time,seconds_elapsed,z,y,x
1772905486158600000,0.493599853515625,-0.005976676940917969,-0.000944972038269043,-0.000015230849385261536
1772905486168600000,0.50360009765625,-0.0059413909912109375,-0.0009839534759521484,-0.000039599835872650146
1772905486178600000,0.513599853515625,-0.005883216857910156,-0.0010067224502563477,-0.000002234010025858879
1772905486188600000,0.52360009765625,-0.005817413330078125,-0.0010050535202026367,0.00008387118577957153
1772905486198600000,0.533599853515625,-0.005786895751953125,-0.0009953975677490234,0.00018134713172912598
1772905486208600000,0.54360009765625,-0.005822181701660156,-0.0009905099868774414,0.0002447366714477539
1772905486218600000,0.553599853515625,-0.0058498382568359375,-0.0009628534317016602,0.00026419758796691895
1772905486228600000,0.56360009765625,-0.005870819091796875,-0.0009304285049438477,0.00026419758796691895
1772905486238600000,0.573599853515625,-0.005934715270996094,-0.0009205341339111328,0.0002593100070953369
1772905486248600000,0.58360009765625,-0.0060596466064453125,-0.0009092092514038086,0.00023660063743591309
1772905486258600000,0.593599853515625,-0.006214141845703125,-0.0008718967437744141,0.0001748502254486084
1772905486268600000,0.60360009765625,-0.006331443786621094,-0.0008214712142944336,0.00009524822235107422
1772905486278600000,0.613599853515625,-0.00635528564453125,-0.0007841587066650391,0.00004163011908531189
1772905486288600000,0.62360009765625,-0.0063018798828125,-0.000780940055847168,0.000030260533094406128
1772905486298600000,0.633599853515625,-0.00623321533203125,-0.0008101463317871094,0.000027008354663848877
1772905486308600000,0.64360009765625,-0.006196022033691406,-0.0008507966995239258,-0.000015230849385261536
1772905486318600000,0.653599853515625,-0.0062122344970703125,-0.0008864402770996094,-0.00010944902896881104
1772905486328600000,0.66360009765625,-0.006267547607421875,-0.0009108781814575195,-0.00021669268608093262
1772905486338600000,0.673599853515625,-0.0063114166259765625,-0.0009287595748901367,-0.00028005242347717285
1772905486348600000,0.68360009765625,-0.0063114166259765625,-0.0009434223175048828,-0.0002719461917877197
1772905486358600000,0.693599853515625,-0.006275177001953125,-0.0009580850601196289,-0.00020694732666015625
1772905486368600000,0.70360009765625,-0.006241798400878906,-0.0009742975234985352,-0.00012895464897155762
1772905486378600000,0.713599853515625,-0.006239891052246094,-0.0009937286376953125,-0.00007209926843643188
1772905486388600000,0.72360009765625,-0.0063037872314453125,-0.001016378402709961,-0.000049345195293426514
1772905486398600000,0.733599853515625,-0.006407737731933594,-0.0010294914245605469,-0.0000525936484336853
1772905486408600000,0.74360009765625,0.07974720001220703,-0.01300060749053955,-0.012023597955703735
1772905486418600000,0.753599853515625,0.04374122619628906,-0.03933680057525635,-0.08384959399700165
1772905486428600000,0.76360009765625,-0.0856618881225586,-0.05609619617462158,-0.18680019676685333
1772905486438600000,0.773599853515625,-0.23900794982910156,-0.04651939868927002,-0.2514435946941376
1772905486448600000,0.78360009765625,-0.3516521453857422,-0.020183205604553223,-0.23468419909477234
1772905486458600000,0.793599853515625,-0.37334442138671875,0.022879481315612793,-0.158954918384552
1772905486468600000,0.80360009765625,-0.33519554138183594,0.06598615646362305,-0.06766429543495178
1772905486478600000,0.813599853515625,-0.2754983901977539,0.07796740531921387,0.01164495199918747
1772905486488600000,0.82360009765625,-0.17989063262939453,0.03966021537780762,0.06701215356588364
1772905486498600000,0.833599853515625,-0.038786888122558594,-0.027370929718017578,0.09843586385250092
1772905486508600000,0.84360009765625,0.11667537689208984,-0.09200680255889893,0.10591963678598404
1772905486518600000,0.853599853515625,0.20270824432373047,-0.15185582637786865,0.12298557162284851
1772905486528600000,0.86360009765625,0.1642436981201172,-0.1973419189453125,0.1639866679906845
1772905486538600000,0.873599853515625,-0.017869949340820312,-0.21170425415039062,0.18105360865592957
1772905486548600000,0.88360009765625,-0.3029346466064453,-0.2093064785003662,0.15501555800437927
1772905486558600000,0.893599853515625,-0.5854530334472656,-0.22845733165740967,0.11431264132261276
1772905486568600000,0.90360009765625,-0.7410106658935547,-0.27745187282562256,0.07754435390233994
1772905486578600000,0.913599853515625,-0.6954326629638672,-0.33461225032806396,0.05260670185089111
1772905486588600000,0.92360009765625,-0.46958160400390625,-0.39416277408599854,0.05593428015708923
1772905486598600000,0.933599853515625,-0.17600059509277344,-0.4536792039871216,0.08274465799331665
1772905486608600000,0.94360009765625,0.05595970153808594,-0.5035523176193237,0.10427747666835785
1772905486618600000,0.953599853515625,0.1208486557006836,-0.5365609526634216,0.08216866105794907
1772905486628600000,0.96360009765625,-0.0006532669067382812,-0.5502592921257019,0.004412248730659485
1772905486638600000,0.973599853515625,-0.23448657989501953,-0.5493629574775696,-0.10502579063177109
1772905486648600000,0.98360009765625,-0.47058582305908203,-0.5361531376838684,-0.1957893967628479
1772905486658600000,0.993599853515625,-0.615544319152832,-0.5080649852752686,-0.22711029648780823
1772905486668600000,1.00360009765625,-0.6190214157104492,-0.4672880172729492,-0.1773977279663086
1772905486678600000,1.013599853515625,-0.5144834518432617,-0.4256136417388916,-0.06975018978118896
1772905486688600000,1.02360009765625,-0.3856801986694336,-0.3900517225265503,0.03588547557592392
1772905486698600000,1.033599853515625,-0.3139667510986328,-0.34849560260772705,0.09629187732934952
1772905486708600000,1.04360009765625,-0.3423309326171875,-0.29844021797180176,0.08510089665651321
1772905486718600000,1.053599853515625,-0.4370698928833008,-0.23979949951171875,-0.00007070600986480713
1772905486728600000,1.06360009765625,-0.5189800262451172,-0.17968642711639404,-0.12330593913793564
1772905486738600000,1.073599853515625,-0.5208797454833984,-0.1300210952758789,-0.24154013395309448
1772905486748600000,1.08360009765625,-0.4332304000854492,-0.08362388610839844,-0.3046138882637024
1772905486758600000,1.093599853515625,-0.2945728302001953,-0.03578794002532959,-0.30065006017684937
1772905486768600000,1.10360009765625,-0.16029834747314453,0.013339638710021973,-0.22486022114753723
1772905486778600000,1.113599853515625,-0.07378673553466797,0.05639374256134033,-0.09639798849821091
1772905486788600000,1.12360009765625,-0.06389808654785156,0.0931706428527832,0.04411809891462326
1772905486798600000,1.133599853515625,-0.11145877838134766,0.12105762958526611,0.13454966247081757
1772905486808600000,1.14360009765625,-0.1541147232055664,0.13981688022613525,0.1485874354839325
1772905486818600000,1.153599853515625,-0.1438913345336914,0.13960421085357666,0.11014147847890854
1772905486828600000,1.16360009765625,-0.03287029266357422,0.11532580852508545,0.07420451194047928
1772905486838600000,1.173599853515625,0.18603801727294922,0.08101940155029297,0.08863359689712524
1772905486848600000,1.18360009765625,0.4505014419555664,0.03865790367126465,0.1463329941034317
1772905486858600000,1.193599853515625,0.638427734375,-0.006662249565124512,0.1971851885318756
1772905486868600000,1.20360009765625,0.6373920440673828,-0.028687238693237305,0.1887044757604599
1772905486878600000,1.213599853515625,0.4139575958251953,-0.008305788040161133,0.11386299133300781
1772905486888600000,1.22360009765625,0.06714439392089844,0.04966425895690918,-0.000910244882106781
1772905486898600000,1.233599853515625,-0.23641300201416016,0.11887407302856445,-0.12206946313381195
1772905486908600000,1.24360009765625,-0.3745861053466797,0.1778026819229126,-0.21172672510147095
1772905486918600000,1.253599853515625,-0.34735870361328125,0.21935045719146729,-0.25624561309814453
1772905486928600000,1.26360009765625,-0.2815999984741211,0.2412576675415039,-0.2650551199913025
1772905486938600000,1.273599853515625,-0.2729625701904297,0.21498489379882812,-0.21173520386219025
1772905486948600000,1.28360009765625,-0.3116750717163086,0.16242504119873047,-0.11070601642131805
1772905486958600000,1.293599853515625,-0.35680389404296875,0.12395918369293213,0.004352986812591553
1772905486968600000,1.30360009765625,-0.3674468994140625,0.09252989292144775,0.1284666657447815
1772905486978600000,1.313599853515625,-0.29804134368896484,0.046738386154174805,0.2231731414794922
1772905486988600000,1.32360009765625,-0.14219284057617188,0.0035469532012939453,0.22613036632537842
1772905486998600000,1.333599853515625,0.036362648010253906,-0.0344010591506958,0.12534037232398987
1772905487008600000,1.34360009765625,0.1536569595336914,-0.062047481536865234,-0.026332754641771317
1772905487018600000,1.353599853515625,0.1831674575805664,-0.06954598426818848,-0.16600793600082397
1772905487028600000,1.36360009765625,0.13909626007080078,-0.04706430435180664,-0.23876532912254333
1772905487038600000,1.373599853515625,0.052422523498535156,0.0006768703460693359,-0.23035748302936554
1772905487048600000,1.38360009765625,-0.06743717193603516,0.05928683280944824,-0.16712263226509094
1772905487058600000,1.393599853515625,-0.2110433578491211,0.11195898056030273,-0.10164131969213486
1772905487068600000,1.40360009765625,-0.36402320861816406,0.14904868602752686,-0.08164980262517929
1772905487078600000,1.413599853515625,-0.5071449279785156,0.17045331001281738,-0.11911909282207489
1772905487088600000,1.42360009765625,-0.6094217300415039,0.1856023073196411,-0.19010718166828156
1772905487098600000,1.433599853515625,-0.623112678527832,0.18951940536499023,-0.25391265749931335
1772905487108600000,1.44360009765625,-0.5290660858154297,0.17959105968475342,-0.2959427535533905
1772905487118600000,1.453599853515625,-0.3464326858520508,0.15558624267578125,-0.3184947967529297
1772905487128600000,1.46360009765625,-0.1350698471069336,0.11231684684753418,-0.32875239849090576
1772905487138600000,1.473599853515625,0.018833160400390625,0.05634486675262451,-0.3315339684486389
1772905487148600000,1.48360009765625,0.05781364440917969,0.01877284049987793,-0.32210487127304077
1772905487158600000,1.493599853515625,-0.018171310424804688,0.011602520942687988,-0.29335251450538635
1772905487168600000,1.50360009765625,-0.13475799560546875,0.02532815933227539,-0.2379634976387024
1772905487178600000,1.513599853515625,-0.2292652130126953,0.05524325370788574,-0.1483967900276184
1772905487188600000,1.52360009765625,-0.28658103942871094,0.0846712589263916,-0.04583887755870819
1772905487198600000,1.533599853515625,-0.2964200973510742,0.08976483345031738,0.019711561501026154
1772905487208600000,1.54360009765625,-0.24883460998535156,0.06823384761810303,0.02206309139728546
1772905487218600000,1.553599853515625,-0.1724376678466797,0.034530043601989746,-0.05074431374669075
1772905487228600000,1.56360009765625,-0.10083866119384766,-0.0015490055084228516,-0.1724483221769333
1772905487238600000,1.573599853515625,-0.041411399841308594,-0.03226649761199951,-0.292866587638855
1772905487248600000,1.58360009765625,0.0104217529296875,-0.05524945259094238,-0.3641989231109619
1772905487258600000,1.593599853515625,0.0663909912109375,-0.07776618003845215,-0.3697957992553711
1772905487268600000,1.60360009765625,0.11534500122070312,-0.09753334522247314,-0.32921403646469116
1772905487278600000,1.613599853515625,0.13954448699951172,-0.11222958564758301,-0.2789037525653839
1772905487288600000,1.62360009765625,0.12880229949951172,-0.11947476863861084,-0.260132372379303
1772905487298600000,1.633599853515625,0.08734130859375,-0.11925673484802246,-0.2877102494239807
1772905487308600000,1.64360009765625,0.036342620849609375,-0.11156761646270752,-0.3522762954235077
1772905487318600000,1.653599853515625,-0.0027666091918945312,-0.10128271579742432,-0.4155052602291107
1772905487328600000,1.66360009765625,-0.02989673614501953,-0.09563136100769043,-0.4461069107055664
1772905487338600000,1.673599853515625,-0.06640243530273438,-0.08982133865356445,-0.4295143187046051
1772905487348600000,1.68360009765625,-0.13417339324951172,-0.07423293590545654,-0.3823162317276001
1772905487358600000,1.693599853515625,-0.24261760711669922,-0.04881119728088379,-0.32589972019195557
1772905487368600000,1.70360009765625,-0.35683441162109375,-0.030275464057922363,-0.28400516510009766
1772905487378600000,1.713599853515625,-0.4473686218261719,-0.021029233932495117,-0.26832300424575806
1772905487388600000,1.72360009765625,-0.4852294921875,-0.009169816970825195,-0.2641586363315582
1772905487398600000,1.733599853515625,-0.4584484100341797,0.005204200744628906,-0.2544741630554199
1772905487408600000,1.74360009765625,-0.35505199432373047,0.014926791191101074,-0.22477751970291138
1772905487418600000,1.753599853515625,-0.1894073486328125,0.02012944221496582,-0.17750397324562073
1772905487428600000,1.76360009765625,0.014546394348144531,0.023337244987487793,-0.13195276260375977
1772905487438600000,1.773599853515625,0.22568130493164062,0.02227461338043213,-0.09068284928798676
1772905487448600000,1.78360009765625,0.3990621566772461,0.005059719085693359,-0.04903058707714081
1772905487458600000,1.793599853515625,0.49645137786865234,-0.018687963485717773,0.012069746851921082
1772905487468600000,1.80360009765625,0.5033750534057617,-0.027432680130004883,0.10929271578788757
1772905487478600000,1.813599853515625,0.4411888122558594,-0.0020815134048461914,0.24011535942554474
1772905487488600000,1.82360009765625,0.36980342864990234,0.042908549308776855,0.35168057680130005
1772905487498600000,1.833599853515625,0.3517303466796875,0.09784960746765137,0.4006941318511963
1772905487508600000,1.84360009765625,0.38955211639404297,0.157647967338562,0.3918086290359497
1772905487518600000,1.853599853515625,0.4551210403442383,0.20488548278808594,0.3585149347782135
1772905487528600000,1.86360009765625,0.5359592437744141,0.23210668563842773,0.3415713906288147
1772905487538600000,1.873599853515625,0.6080656051635742,0.2486182451248169,0.37165528535842896
1772905487548600000,1.88360009765625,0.6378841400146484,0.2709324359893799,0.4326874613761902
1772905487558600000,1.893599853515625,0.603825569152832,0.3060230016708374,0.5027737617492676
1772905487568600000,1.90360009765625,0.49389171600341797,0.3513314723968506,0.5600628852844238
1772905487578600000,1.913599853515625,0.34629154205322266,0.39716851711273193,0.5756397247314453
1772905487588600000,1.92360009765625,0.2037515640258789,0.43867552280426025,0.5542397499084473
1772905487598600000,1.933599853515625,0.10662841796875,0.47342073917388916,0.5078660249710083
1772905487608600000,1.94360009765625,0.059398651123046875,0.49428415298461914,0.46767497062683105
1772905487618600000,1.953599853515625,0.05416393280029297,0.4969106912612915,0.4432084858417511
1772905487628600000,1.96360009765625,0.06018829345703125,0.47418689727783203,0.4152231216430664
1772905487638600000,1.973599853515625,0.058318138122558594,0.44057559967041016,0.3674147129058838
1772905487648600000,1.98360009765625,0.048614501953125,0.40098774433135986,0.28720492124557495
1772905487658600000,1.993599853515625,0.05514812469482422,0.36515212059020996,0.19185231626033783
1772905487668600000,2.00360009765625,0.08286285400390625,0.33564674854278564,0.11779393255710602
1772905487678600000,2.013599853515625,0.0960378646850586,0.30788564682006836,0.08941401541233063
1772905487688600000,2.02360009765625,0.06381416320800781,0.2796742916107178,0.0974552184343338
1772905487698600000,2.033599853515625,-0.011042594909667969,0.24879729747772217,0.10144972801208496
1772905487708600000,2.04360009765625,-0.10172271728515625,0.23934638500213623,0.05615431070327759
1772905487718600000,2.053599853515625,-0.1789684295654297,0.27059364318847656,-0.042871031910181046
1772905487728600000,2.06360009765625,-0.2350749969482422,0.31149566173553467,-0.15687987208366394
1772905487738600000,2.073599853515625,-0.26258373260498047,0.3285876512527466,-0.23276755213737488
1772905487748600000,2.08360009765625,-0.22560596466064453,0.3530195951461792,-0.24150021374225616
1772905487758600000,2.093599853515625,-0.06916236877441406,0.3895714282989502,-0.15185843408107758
1772905487768600000,2.10360009765625,0.2066202163696289,0.38314342498779297,0.04795412719249725
1772905487778600000,2.113599853515625,0.5153903961181641,0.27626097202301025,0.2882750332355499
1772905487788600000,2.12360009765625,0.7611713409423828,0.07377922534942627,0.4515818953514099
1772905487798600000,2.133599853515625,0.874241828918457,-0.18580687046051025,0.4634747803211212
1772905487808600000,2.14360009765625,0.8542509078979492,-0.44710850715637207,0.321356862783432
1772905487818600000,2.153599853515625,0.7391138076782227,-0.683332085609436,0.07998424768447876
1772905487828600000,2.16360009765625,0.5717020034790039,-0.8771413564682007,-0.18434007465839386
1772905487838600000,2.173599853515625,0.395172119140625,-1.016484260559082,-0.41453665494918823
1772905487848600000,2.18360009765625,0.21928977966308594,-1.0798041820526123,-0.6253091096878052
1772905487858600000,2.193599853515625,0.015151023864746094,-1.1005955934524536,-0.8097074627876282
1772905487868600000,2.20360009765625,-0.1621875762939453,-1.1410832405090332,-0.9294623136520386
1772905487878600000,2.213599853515625,-0.23598766326904297,-1.1940994262695312,-0.9941506385803223
1772905487888600000,2.22360009765625,-0.21561813354492188,-1.2382009029388428,-1.0085607767105103
1772905487898600000,2.233599853515625,-0.16068553924560547,-1.2736144065856934,-0.94156813621521
1772905487908600000,2.24360009765625,-0.13793373107910156,-1.2887263298034668,-0.7907744646072388
1772905487918600000,2.253599853515625,-0.2068796157836914,-1.269653558731079,-0.5800848603248596
1772905487928600000,2.26360009765625,-0.3792896270751953,-1.2307772636413574,-0.30466997623443604
1772905487938600000,2.273599853515625,-0.6120119094848633,-1.188258171081543,0.009303629398345947
1772905487948600000,2.28360009765625,-0.8358078002929688,-1.1557652950286865,0.314256489276886
1772905487958600000,2.293599853515625,-0.9978265762329102,-1.1397806406021118,0.5699373483657837
1772905487968600000,2.30360009765625,-1.0717248916625977,-1.1444227695465088,0.7505720853805542
1772905487978600000,2.313599853515625,-1.0672025680541992,-1.1595239639282227,0.8639363050460815
1772905487988600000,2.32360009765625,-1.0060129165649414,-1.182208776473999,0.9320927858352661
1772905487998600000,2.333599853515625,-0.9315052032470703,-1.2097225189208984,0.9745457768440247
1772905488008600000,2.34360009765625,-0.9014310836791992,-1.2370414733886719,0.9866603016853333
1772905488018600000,2.353599853515625,-0.9520397186279297,-1.2616506814956665,0.9634612798690796
1772905488028600000,2.36360009765625,-1.0596942901611328,-1.2697256803512573,0.9035053253173828
1772905488038600000,2.373599853515625,-1.1836071014404297,-1.2595672607421875,0.8304705023765564
1772905488048600000,2.38360009765625,-1.2659530639648438,-1.2414568662643433,0.7608279585838318
1772905488058600000,2.393599853515625,-1.241795539855957,-1.2232660055160522,0.6894239187240601
1772905488068600000,2.40360009765625,-1.1084890365600586,-1.203243374824524,0.5966683626174927
1772905488078600000,2.413599853515625,-0.9064836502075195,-1.1771365404129028,0.4677530527114868
1772905488088600000,2.42360009765625,-0.7073049545288086,-1.1309688091278076,0.3142765164375305
1772905488108600000,2.44360009765625,-0.559906005859375,-0.9337987899780273,0.08111308515071869
1772905488118600000,2.453599853515625,-0.6704206466674805,-0.7566173076629639,0.04197080433368683
1772905488128600000,2.46360009765625,-0.9037961959838867,-0.5382372736930847,0.05313767492771149
1772905488138600000,2.473599853515625,-1.1640748977661133,-0.3050476312637329,0.0976116955280304
1772905488148600000,2.48360009765625,-1.2763395309448242,-0.09072327613830566,0.16790486872196198
1772905488158600000,2.493599853515625,-1.1016521453857422,0.08291780948638916,0.25178059935569763
1772905488168600000,2.50360009765625,-0.6472158432006836,0.20354902744293213,0.3323127329349518
1772905488178600000,2.513599853515625,-0.02812480926513672,0.2635495066642761,0.3687559962272644
1772905488188600000,2.52360009765625,0.6067876815795898,0.2671738266944885,0.3157474100589752
1772905488198600000,2.533599853515625,1.1562919616699219,0.23533666133880615,0.15689390897750854
1772905488208600000,2.54360009765625,1.588353157043457,0.20086604356765747,-0.08081251382827759
1772905488218600000,2.553599853515625,1.9019412994384766,0.18783503770828247,-0.34852248430252075
1772905488228600000,2.56360009765625,2.064913749694824,0.21064651012420654,-0.604302704334259
1772905488238600000,2.573599853515625,2.023662567138672,0.29085689783096313,-0.8326789736747742
1772905488248600000,2.58360009765625,1.7582826614379883,0.42857325077056885,-1.0070255994796753
1772905488258600000,2.593599853515625,1.3200349807739258,0.616758406162262,-1.0936431884765625
1772905488268600000,2.60360009765625,0.8253183364868164,0.8172330856323242,-1.0637600421905518
1772905488278600000,2.613599853515625,0.3935279846191406,0.9750208258628845,-0.9222708344459534
1772905488288600000,2.62360009765625,0.05847930908203125,1.0758159160614014,-0.719723105430603
1772905488298600000,2.633599853515625,-0.23163509368896484,1.1268559694290161,-0.5547322034835815
1772905488308600000,2.64360009765625,-0.5425014495849609,1.1521379947662354,-0.4829975962638855
1772905488318600000,2.653599853515625,-0.9083333015441895,1.1604746580123901,-0.5029239058494568
1772905488328600000,2.66360009765625,-1.272176742553711,1.1608364582061768,-0.5672998428344727
1772905488338600000,2.673599853515625,-1.5243940353393555,1.1982412338256836,-0.656663179397583
1772905488348600000,2.68360009765625,-1.5484037399291992,1.2220139503479004,-0.6933475136756897
1772905488358600000,2.693599853515625,-1.3476824760437012,1.1697182655334473,-0.638111412525177
1772905488368600000,2.70360009765625,-1.0101251602172852,1.055816888809204,-0.528528094291687
1772905488378600000,2.713599853515625,-0.6695718765258789,0.9070325493812561,-0.3904547095298767
1772905488388600000,2.72360009765625,-0.43396759033203125,0.7623083591461182,-0.23085424304008484
1772905488398600000,2.733599853515625,-0.2871513366699219,0.6368408203125,-0.08564770221710205
1772905488408600000,2.74360009765625,-0.09360408782958984,0.5244208574295044,-0.026854664087295532
1772905488418600000,2.753599853515625,0.30580997467041016,0.385417103767395,-0.07876160740852356
1772905488428600000,2.76360009765625,0.9407110214233398,0.20179593563079834,-0.18702365458011627
1772905488438600000,2.773599853515625,1.6323633193969727,0.008218169212341309,-0.30536603927612305
1772905488448600000,2.78360009765625,2.0904674530029297,-0.1535412073135376,-0.40906763076782227
1772905488458600000,2.793599853515625,2.075982093811035,-0.2514967918395996,-0.45650434494018555
1772905488468600000,2.80360009765625,1.565216064453125,-0.25637173652648926,-0.4177435636520386
1772905488478600000,2.813599853515625,0.7396306991577148,-0.1631758213043213,-0.3031955361366272
1772905488488600000,2.82360009765625,-0.11514759063720703,-0.010310769081115723,-0.12769964337348938
1772905488498600000,2.833599853515625,-0.7568435668945312,0.14925432205200195,0.08465933799743652
1772905488508600000,2.84360009765625,-1.0705327987670898,0.2696179151535034,0.29333072900772095
1772905488518600000,2.853599853515625,-1.0921287536621094,0.3359335660934448,0.4412400722503662
1772905488528600000,2.86360009765625,-0.9509210586547852,0.3668172359466553,0.4882090389728546
1772905488538600000,2.873599853515625,-0.7570400238037109,0.3856157064437866,0.4300212860107422
1772905488548600000,2.88360009765625,-0.5687589645385742,0.4036902189254761,0.2930312752723694
1772905488558600000,2.893599853515625,-0.42024898529052734,0.41331160068511963,0.13028684258460999
1772905488568600000,2.90360009765625,-0.3165464401245117,0.3997199535369873,-0.01229802519083023
1772905488578600000,2.913599853515625,-0.23560619354248047,0.3747063875198364,-0.10316144675016403
1772905488588600000,2.92360009765625,-0.17759418487548828,0.34068191051483154,-0.10834043473005295
1772905488598600000,2.933599853515625,-0.17564964294433594,0.3049420118331909,-0.025012493133544922
1772905488608600000,2.94360009765625,-0.22438430786132812,0.2867382764816284,0.10648231208324432
1772905488618600000,2.953599853515625,-0.24197101593017578,0.28610146045684814,0.24091078341007233
1772905488628600000,2.96360009765625,-0.17438411712646484,0.27667272090911865,0.34013134241104126
1772905488638600000,2.973599853515625,-0.03845691680908203,0.24882984161376953,0.39228489995002747
1772905488648600000,2.98360009765625,0.12995624542236328,0.20491540431976318,0.4147363603115082
1772905488658600000,2.993599853515625,0.2737550735473633,0.14964079856872559,0.45547252893447876
1772905488668600000,3.00360009765625,0.34104156494140625,0.09721481800079346,0.5334913730621338
1772905488678600000,3.013599853515625,0.32341957092285156,0.06169784069061279,0.6101122498512268
1772905488688600000,3.02360009765625,0.2453908920288086,0.04264676570892334,0.6416995525360107
1772905488698600000,3.033599853515625,0.16118144989013672,0.02761244773864746,0.6036773324012756
1772905488708600000,3.04360009765625,0.10131359100341797,0.013811469078063965,0.5217559337615967
1772905488718600000,3.053599853515625,0.06297111511230469,0.015389084815979004,0.4408920109272003
1772905488728600000,3.06360009765625,0.032828330993652344,0.03468608856201172,0.3846264183521271
1772905488738600000,3.073599853515625,0.006171226501464844,0.07176089286804199,0.3718450665473938
1772905488748600000,3.08360009765625,-0.012269020080566406,0.13390600681304932,0.39764976501464844
1772905488758600000,3.093599853515625,0.0010852813720703125,0.21407878398895264,0.41904982924461365
1772905488768600000,3.10360009765625,0.03828239440917969,0.3100796937942505,0.3861183226108551
1772905488778600000,3.113599853515625,0.026615142822265625,0.42697763442993164,0.29462000727653503
1772905488788600000,3.12360009765625,-0.12467002868652344,0.5483663082122803,0.1883142590522766
1772905488798600000,3.133599853515625,-0.40263843536376953,0.648266077041626,0.10615712404251099
1772905488808600000,3.14360009765625,-0.6799297332763672,0.7293256521224976,0.09175035357475281
1772905488818600000,3.153599853515625,-0.8056802749633789,0.7987966537475586,0.1477895975112915
1772905488828600000,3.16360009765625,-0.7076530456542969,0.818248987197876,0.2504366636276245
1772905488838600000,3.173599853515625,-0.44092273712158203,0.7658802270889282,0.33022892475128174
1772905488848600000,3.18360009765625,-0.09127616882324219,0.6294460296630859,0.33917635679244995
1772905488858600000,3.193599853515625,0.28886890411376953,0.4087536334991455,0.27233511209487915
1772905488868600000,3.20360009765625,0.7306919097900391,0.11810731887817383,0.1630200743675232
1772905488878600000,3.213599853515625,1.2839689254760742,-0.21845102310180664,0.042124390602111816
1772905488888600000,3.22360009765625,1.9037370681762695,-0.5647400617599487,-0.10011747479438782
1772905488898600000,3.233599853515625,2.473226547241211,-0.8915916681289673,-0.26374438405036926
1772905488908600000,3.24360009765625,2.8447494506835938,-1.1720423698425293,-0.4198123812675476
1772905488918600000,3.253599853515625,2.8733301162719727,-1.3889620304107666,-0.5247377157211304
1772905488928600000,3.26360009765625,2.478403091430664,-1.523025393486023,-0.5732766389846802
1772905488938600000,3.273599853515625,1.6903352737426758,-1.5620368719100952,-0.5940170884132385
1772905488948600000,3.28360009765625,0.6689338684082031,-1.5033955574035645,-0.6059576272964478
1772905488958600000,3.293599853515625,-0.35346031188964844,-1.385293960571289,-0.6018059253692627
1772905488968600000,3.30360009765625,-1.1941041946411133,-1.2676119804382324,-0.5767318606376648
1772905488978600000,3.313599853515625,-1.7725601196289062,-1.1816651821136475,-0.5475255250930786
1772905488988600000,3.32360009765625,-2.0867810249328613,-1.1325976848602295,-0.5167059898376465
1772905488998600000,3.333599853515625,-2.2011828422546387,-1.1185202598571777,-0.477344274520874
1772905489008600000,3.34360009765625,-2.1996984481811523,-1.1324241161346436,-0.4346410036087036
1772905489018600000,3.353599853515625,-2.1480722427368164,-1.1642029285430908,-0.4152418076992035
1772905489028600000,3.36360009765625,-2.073883533477783,-1.2058534622192383,-0.426088809967041
1772905489038600000,3.373599853515625,-1.9811615943908691,-1.2542386054992676,-0.46183741092681885
1772905489048600000,3.38360009765625,-1.867307186126709,-1.3111467361450195,-0.5004997849464417
1772905489058600000,3.393599853515625,-1.7374682426452637,-1.3641541004180908,-0.5345697402954102
1772905489068600000,3.40360009765625,-1.5900907516479492,-1.4033715724945068,-0.547049343585968
1772905489078600000,3.413599853515625,-1.421614646911621,-1.423811674118042,-0.5401580333709717
1772905489088600000,3.42360009765625,-1.2575016021728516,-1.4277446269989014,-0.5281703472137451
1772905489098600000,3.433599853515625,-1.1058979034423828,-1.412691593170166,-0.5302676558494568
1772905489108600000,3.44360009765625,-0.9325332641601562,-1.3766374588012695,-0.5441946387290955
1772905489118600000,3.453599853515625,-0.704681396484375,-1.3322579860687256,-0.5488496422767639
1772905489128600000,3.46360009765625,-0.4523191452026367,-1.2897751331329346,-0.5450672507286072
1772905489138600000,3.473599853515625,-0.2514772415161133,-1.2400799989700317,-0.5598912835121155
1772905489148600000,3.48360009765625,-0.17630767822265625,-1.1690280437469482,-0.5986195206642151
1772905489158600000,3.493599853515625,-0.2606182098388672,-1.0742161273956299,-0.6471880674362183
1772905489168600000,3.50360009765625,-0.45459938049316406,-0.9578688740730286,-0.6889982223510742
1772905489188600000,3.52360009765625,-0.8526859283447266,-0.7051593065261841,-0.7406570911407471
1772905489198600000,3.533599853515625,-0.9386253356933594,-0.5757120847702026,-0.7480307221412659
1772905489208600000,3.54360009765625,-0.9323663711547852,-0.43633103370666504,-0.7292867302894592
1772905489218600000,3.553599853515625,-0.8737001419067383,-0.29696935415267944,-0.6841646432876587
1772905489228600000,3.56360009765625,-0.7944602966308594,-0.17024004459381104,-0.6315934658050537
1772905489238600000,3.573599853515625,-0.6992626190185547,-0.06425464153289795,-0.5666638612747192
1772905489248600000,3.58360009765625,-0.5728721618652344,0.014991044998168945,-0.46784716844558716
1772905489258600000,3.593599853515625,-0.3925457000732422,0.07088625431060791,-0.3305126428604126
1772905489268600000,3.60360009765625,-0.12123966217041016,0.11393922567367554,-0.18602345883846283
1772905489278600000,3.613599853515625,0.27054500579833984,0.13206249475479126,-0.0848994106054306
1772905489288600000,3.62360009765625,0.7615318298339844,0.11805331707000732,-0.06804053485393524
1772905489298600000,3.633599853515625,1.2939872741699219,0.08370059728622437,-0.14518137276172638
1772905489308600000,3.64360009765625,1.768141746520996,0.04577291011810303,-0.25898587703704834
1772905489318600000,3.653599853515625,2.106625556945801,0.023641467094421387,-0.337691992521286
1772905489328600000,3.66360009765625,2.26287841796875,0.02011960744857788,-0.3549455404281616
1772905489338600000,3.673599853515625,2.0058135986328125,0.0884857177734375,-0.3130497932434082
1772905489348600000,3.68360009765625,1.6789445877075195,0.16964858770370483,-0.2885034680366516
1772905489358600000,3.693599853515625,1.2693195343017578,0.26925504207611084,-0.28121066093444824
1772905489368600000,3.70360009765625,0.8267984390258789,0.3714161515235901,-0.2791464924812317
1772905489378600000,3.713599853515625,0.4091510772705078,0.4732731580734253,-0.2655355930328369
1772905489388600000,3.72360009765625,0.05095100402832031,0.5647656321525574,-0.2260197252035141
1772905489398600000,3.733599853515625,-0.25807857513427734,0.6313459277153015,-0.16779449582099915
1772905489408600000,3.74360009765625,-0.5245494842529297,0.6776224970817566,-0.11481685936450958
1772905489418600000,3.753599853515625,-0.7561674118041992,0.710607647895813,-0.06952894479036331
1772905489428600000,3.76360009765625,-0.9654865264892578,0.739721953868866,-0.036822959780693054
1772905489438600000,3.773599853515625,-1.1652765274047852,0.7576513290405273,-0.019221894443035126
1772905489448600000,3.78360009765625,-1.3566317558288574,0.7619155645370483,-0.02637340873479843
1772905489458600000,3.793599853515625,-1.49855375289917,0.7620786428451538,-0.053440213203430176
1772905489468600000,3.80360009765625,-1.5338211059570312,0.7534299492835999,-0.08111393451690674
1772905489478600000,3.813599853515625,-1.434286117553711,0.726561427116394,-0.09485072642564774
1772905489488600000,3.82360009765625,-1.217585563659668,0.6793254017829895,-0.08496595174074173
1772905489498600000,3.833599853515625,-0.9470643997192383,0.6096301078796387,-0.050410062074661255
1772905489508600000,3.84360009765625,-0.6933584213256836,0.5297762155532837,-0.005448460578918457
1772905489518600000,3.853599853515625,-0.4433307647705078,0.4472721815109253,0.04296187311410904
1772905489528600000,3.86360009765625,-0.21014118194580078,0.3648134469985962,0.099856898188591
1772905489538600000,3.873599853515625,-0.06911182403564453,0.3018134832382202,0.12470395117998123
1772905489548600000,3.88360009765625,-0.05655097961425781,0.27043652534484863,0.07445035129785538
1772905489558600000,3.893599853515625,-0.1265878677368164,0.261208176612854,-0.03415350615978241
1772905489568600000,3.90360009765625,-0.21180343627929688,0.2693532705307007,-0.15327155590057373
1772905489578600000,3.913599853515625,-0.2330007553100586,0.27805233001708984,-0.2135108858346939
1772905489588600000,3.92360009765625,-0.1685628890991211,0.2776256799697876,-0.18372194468975067
1772905489598600000,3.933599853515625,-0.08788204193115234,0.2799309492111206,-0.09597909450531006
1772905489608600000,3.94360009765625,-0.06028461456298828,0.2944366931915283,0.008981391787528992
1772905489618600000,3.953599853515625,-0.12627220153808594,0.311481237411499,0.09267856180667877
1772905489628600000,3.96360009765625,-0.25920963287353516,0.3286306858062744,0.13581609725952148
1772905489638600000,3.973599853515625,-0.3773221969604492,0.34589684009552,0.1359798014163971
1772905489648600000,3.98360009765625,-0.40175914764404297,0.34659337997436523,0.11476042866706848
1772905489658600000,3.993599853515625,-0.32788562774658203,0.326074481010437,0.08656808733940125
1772905489668600000,4.00360009765625,-0.19633769989013672,0.29891324043273926,0.061044491827487946
1772905489678600000,4.013599853515625,-0.0811300277709961,0.2845191955566406,0.04734012484550476
1772905489688600000,4.02360009765625,-0.03712940216064453,0.2831556797027588,0.05730026215314865
1772905489698600000,4.033599853515625,-0.057091712951660156,0.2974400520324707,0.09805555641651154
1772905489708600000,4.04360009765625,-0.09094810485839844,0.32753705978393555,0.17195631563663483
1772905489718600000,4.053599853515625,-0.13202285766601562,0.363966703414917,0.2645964026451111
1772905489728600000,4.06360009765625,-0.14759254455566406,0.3947690725326538,0.3232075572013855
1772905489738600000,4.073599853515625,-0.12416934967041016,0.4174731969833374,0.3213028907775879
1772905489748600000,4.08360009765625,-0.10056114196777344,0.4295288324356079,0.25397318601608276
1772905489758600000,4.093599853515625,-0.12501144409179688,0.4426727294921875,0.1498439908027649
1772905489768600000,4.10360009765625,-0.20963096618652344,0.47094929218292236,0.03276751935482025
1772905489778600000,4.113599853515625,-0.32792091369628906,0.4828239679336548,-0.032161638140678406
1772905489788600000,4.12360009765625,-0.4243326187133789,0.46347904205322266,-0.020824790000915527
1772905489798600000,4.133599853515625,-0.45022010803222656,0.43403148651123047,0.03334512561559677
1772905489808600000,4.14360009765625,-0.39503955841064453,0.39650094509124756,0.0848982185125351
1772905489818600000,4.153599853515625,-0.2917289733886719,0.35298967361450195,0.10271988809108734
1772905489828600000,4.16360009765625,-0.18527984619140625,0.3057039976119995,0.07487605512142181
1772905489838600000,4.173599853515625,-0.1182851791381836,0.2713199853897095,0.01822695881128311
1772905489848600000,4.18360009765625,-0.10264396667480469,0.25224995613098145,-0.031159676611423492
1772905489858600000,4.193599853515625,-0.11451244354248047,0.2605782747268677,-0.027638331055641174
1772905489868600000,4.20360009765625,-0.12546730041503906,0.2893277406692505,0.03127705678343773
1772905489878600000,4.213599853515625,-0.12887954711914062,0.3220388889312744,0.11921432614326477
1772905489888600000,4.22360009765625,-0.11832046508789062,0.34709632396698,0.19773152470588684
1772905489898600000,4.233599853515625,-0.06592464447021484,0.3648444414138794,0.24035969376564026
1772905489908600000,4.24360009765625,0.06384944915771484,0.366000771522522,0.24464869499206543
1772905489918600000,4.253599853515625,0.24261474609375,0.35557329654693604,0.23217633366584778
1772905489928600000,4.26360009765625,0.39421939849853516,0.357646107673645,0.22214406728744507
1772905489938600000,4.273599853515625,0.4567584991455078,0.4010143280029297,0.21932534873485565
1772905489948600000,4.28360009765625,0.40172672271728516,0.48326563835144043,0.23558737337589264
1772905489958600000,4.293599853515625,0.23158645629882812,0.5588046312332153,0.2779499888420105
1772905489968600000,4.30360009765625,0.010853767395019531,0.6083097457885742,0.3271138668060303
1772905489978600000,4.313599853515625,-0.13626861572265625,0.6555135250091553,0.3686569333076477
1772905489988600000,4.32360009765625,-0.0665578842163086,0.712151288986206,0.40979668498039246
1772905489998600000,4.333599853515625,0.28726673126220703,0.7085548639297485,0.5128292441368103
1772905490008600000,4.34360009765625,0.857518196105957,0.5631334781646729,0.6992545127868652
1772905490018600000,4.353599853515625,1.4755611419677734,0.2662386894226074,0.887450098991394
1772905490028600000,4.36360009765625,1.9558830261230469,-0.10782754421234131,0.9765042066574097
1772905490038600000,4.373599853515625,2.1751718521118164,-0.48219919204711914,0.961249053478241
1772905490048600000,4.38360009765625,2.122699737548828,-0.8085583448410034,0.9036073684692383
1772905490058600000,4.393599853515625,1.900482177734375,-1.0503792762756348,0.8272557854652405
1772905490068600000,4.40360009765625,1.6347675323486328,-1.214113712310791,0.7104097604751587
1772905490078600000,4.413599853515625,1.3922004699707031,-1.3160603046417236,0.5360933542251587
1772905490088600000,4.42360009765625,1.1797676086425781,-1.3824467658996582,0.31371158361434937
1772905490098600000,4.433599853515625,0.9536113739013672,-1.4275176525115967,0.06954486668109894
1772905490108600000,4.44360009765625,0.6417875289916992,-1.4727184772491455,-0.14594502747058868
1772905490118600000,4.453599853515625,0.21608734130859375,-1.506056308746338,-0.2795555591583252
1772905490128600000,4.46360009765625,-0.3030881881713867,-1.5132701396942139,-0.29694437980651855
1772905490138600000,4.473599853515625,-0.8635969161987305,-1.477849006652832,-0.2067609429359436
1772905490148600000,4.48360009765625,-1.3985557556152344,-1.4073755741119385,-0.04884709417819977
1772905490158600000,4.493599853515625,-1.840932846069336,-1.3167543411254883,0.09851029515266418
1772905490168600000,4.50360009765625,-2.173862934112549,-1.2206528186798096,0.1879723072052002
1772905490178600000,4.513599853515625,-2.3713150024414062,-1.1402456760406494,0.21520861983299255
1772905490188600000,4.52360009765625,-2.4063243865966797,-1.0963070392608643,0.21168836951255798
1772905490198600000,4.533599853515625,-2.2855567932128906,-1.0928304195404053,0.23263677954673767
1772905490208600000,4.54360009765625,-2.0781636238098145,-1.1122961044311523,0.32339900732040405
1772905490218600000,4.553599853515625,-1.8776168823242188,-1.1229102611541748,0.4738691449165344
1772905490228600000,4.56360009765625,-1.7419347763061523,-1.1025803089141846,0.6233435869216919
1772905490238600000,4.573599853515625,-1.6529560089111328,-1.0700547695159912,0.682285726070404
1772905490248600000,4.58360009765625,-1.5425653457641602,-1.0585839748382568,0.5900557041168213
1772905490258600000,4.593599853515625,-1.359614372253418,-1.080026388168335,0.3582035303115845
1772905490268600000,4.60360009765625,-1.1127166748046875,-1.1298831701278687,0.05383259057998657
1772905490278600000,4.613599853515625,-0.8232336044311523,-1.177738070487976,-0.22699177265167236
1772905490288600000,4.62360009765625,-0.5280551910400391,-1.1907997131347656,-0.41441333293914795
1772905490298600000,4.633599853515625,-0.30742359161376953,-1.1554255485534668,-0.5055198669433594
1772905490308600000,4.64360009765625,-0.21074771881103516,-1.0675132274627686,-0.5264908075332642
1772905490318600000,4.653599853515625,-0.23984146118164062,-0.9396344423294067,-0.5082311034202576
1772905490328600000,4.66360009765625,-0.34166526794433594,-0.789018988609314,-0.4527857005596161
1772905490338600000,4.673599853515625,-0.47528743743896484,-0.6495031714439392,-0.36694878339767456
1772905490348600000,4.68360009765625,-0.5974702835083008,-0.5116987228393555,-0.2743838131427765
1772905490358600000,4.693599853515625,-0.6532125473022461,-0.3612802028656006,-0.18942409753799438
1772905490368600000,4.70360009765625,-0.5519313812255859,-0.2102738618850708,-0.13391292095184326
1772905490378600000,4.713599853515625,-0.21875953674316406,-0.08518326282501221,-0.10353299975395203
1772905490388600000,4.72360009765625,0.2872600555419922,0.008848309516906738,-0.11080348491668701
1772905490398600000,4.733599853515625,0.7972469329833984,0.08325326442718506,-0.17735791206359863
1772905490408600000,4.74360009765625,1.1403398513793945,0.15890729427337646,-0.30032798647880554
1772905490418600000,4.753599853515625,1.239419937133789,0.23983240127563477,-0.42891836166381836
1772905490428600000,4.76360009765625,1.161259651184082,0.33286428451538086,-0.49808236956596375
1772905490438600000,4.773599853515625,1.0181465148925781,0.43224847316741943,-0.4645337164402008
1772905490448600000,4.78360009765625,0.8395566940307617,0.5234588384628296,-0.34752392768859863
1772905490458600000,4.793599853515625,0.5986089706420898,0.61114501953125,-0.21206560730934143
1772905490468600000,4.80360009765625,0.27313995361328125,0.6952763199806213,-0.12333232164382935
1772905490478600000,4.813599853515625,-0.12970256805419922,0.773561954498291,-0.09199497103691101
1772905490488600000,4.82360009765625,-0.5446863174438477,0.8534114360809326,-0.09417641162872314
1772905490498600000,4.833599853515625,-0.8988418579101562,0.9375193119049072,-0.09684097766876221
1772905490508600000,4.84360009765625,-1.123525619506836,1.018985629081726,-0.07182034850120544
1772905490518600000,4.853599853515625,-1.2002472877502441,1.0789462327957153,-0.02441999316215515
1772905490528600000,4.86360009765625,-1.158398151397705,1.1100338697433472,0.011437982320785522
1772905490538600000,4.873599853515625,-1.0441551208496094,1.1078920364379883,0.030917257070541382
1772905490548600000,4.88360009765625,-0.9202384948730469,1.0722084045410156,0.04168766736984253
1772905490558600000,4.893599853515625,-0.812373161315918,1.01231050491333,0.042216360569000244
1772905490568600000,4.90360009765625,-0.7150583267211914,0.9351946115493774,0.0311603844165802
1772905490578600000,4.913599853515625,-0.6017618179321289,0.843147873878479,0.007659852504730225
1772905490588600000,4.92360009765625,-0.4657249450683594,0.7314208745956421,-0.0327601432800293
1772905490598600000,4.933599853515625,-0.3558502197265625,0.6026670932769775,-0.09972834587097168
1772905490608600000,4.94360009765625,-0.30007266998291016,0.4813840389251709,-0.19353525340557098
1772905490618600000,4.953599853515625,-0.2810525894165039,0.385101318359375,-0.2929162085056305
1772905490628600000,4.96360009765625,-0.26710033416748047,0.3194960355758667,-0.3735867738723755
1772905490638600000,4.973599853515625,-0.25168609619140625,0.2711063623428345,-0.41616079211235046
1772905490648600000,4.98360009765625,-0.22447967529296875,0.23119306564331055,-0.4305364489555359
1772905490658600000,4.993599853515625,-0.17745304107666016,0.18851184844970703,-0.429176926612854
1772905490668600000,5.00360009765625,-0.0789804458618164,0.13648808002471924,-0.41020911931991577
1772905490678600000,5.013599853515625,0.07348442077636719,0.07323038578033447,-0.3836500644683838
1772905490688600000,5.02360009765625,0.2103404998779297,0.006296277046203613,-0.37608450651168823
1772905490698600000,5.033599853515625,0.2306804656982422,-0.04017496109008789,-0.40182575583457947
1772905490708600000,5.04360009765625,0.06228923797607422,-0.04463648796081543,-0.4557948708534241
1772905490718600000,5.053599853515625,-0.23526668548583984,-0.012040257453918457,-0.5137667655944824
1772905490728600000,5.06360009765625,-0.5232563018798828,0.054959774017333984,-0.54974764585495
1772905490738600000,5.073599853515625,-0.6830005645751953,0.1273437738418579,-0.5375041961669922
1772905490748600000,5.08360009765625,-0.7011995315551758,0.19047188758850098,-0.4911938011646271
1772905490758600000,5.093599853515625,-0.6240777969360352,0.2393125295639038,-0.4417344927787781
1772905490768600000,5.10360009765625,-0.5190715789794922,0.27842414379119873,-0.4009396731853485
1772905490778600000,5.113599853515625,-0.4269523620605469,0.3147392272949219,-0.36627525091171265
1772905490788600000,5.12360009765625,-0.34989166259765625,0.34797465801239014,-0.3112712800502777
1772905490798600000,5.133599853515625,-0.27795886993408203,0.3826165199279785,-0.20947177708148956
1772905490808600000,5.14360009765625,-0.17402076721191406,0.4398993253707886,-0.07036076486110687
1772905490818600000,5.153599853515625,-0.021661758422851562,0.5003430843353271,0.05824476480484009
1772905490828600000,5.16360009765625,0.14574146270751953,0.5300873517990112,0.15007036924362183
1772905490838600000,5.173599853515625,0.2612133026123047,0.5263669490814209,0.18817508220672607
1772905490848600000,5.18360009765625,0.28650951385498047,0.5055346488952637,0.18439307808876038
1772905490858600000,5.193599853515625,0.24568653106689453,0.47913622856140137,0.20093759894371033
1772905490868600000,5.20360009765625,0.19157028198242188,0.4563404321670532,0.2761199176311493
1772905490878600000,5.213599853515625,0.16739940643310547,0.434401273727417,0.38595902919769287
1772905490888600000,5.22360009765625,0.20679759979248047,0.4082653522491455,0.4632805585861206
1772905490898600000,5.233599853515625,0.3050727844238281,0.3634052276611328,0.44080936908721924
1772905490908600000,5.24360009765625,0.4135570526123047,0.29738807678222656,0.29908743500709534
1772905490918600000,5.253599853515625,0.4683256149291992,0.22226476669311523,0.07315854728221893
1772905490928600000,5.26360009765625,0.4216299057006836,0.1669309139251709,-0.16561344265937805
1772905490938600000,5.273599853515625,0.2831583023071289,0.14359092712402344,-0.33339962363243103
1772905490948600000,5.28360009765625,0.09110260009765625,0.15253090858459473,-0.375114381313324
1772905490958600000,5.293599853515625,-0.11166858673095703,0.19167304039001465,-0.3075340688228607
1772905490968600000,5.30360009765625,-0.2727365493774414,0.23979711532592773,-0.2240275740623474
1772905490978600000,5.313599853515625,-0.3324708938598633,0.26610350608825684,-0.20348165929317474
1772905490988600000,5.32360009765625,-0.28385353088378906,0.2565422058105469,-0.27671346068382263
1772905490998600000,5.333599853515625,-0.18443679809570312,0.22815752029418945,-0.4288696348667145
1772905491008600000,5.34360009765625,-0.10849380493164062,0.2027270793914795,-0.6211907863616943
1772905491018600000,5.353599853515625,-0.09441566467285156,0.1828145980834961,-0.7882312536239624
1772905491028600000,5.36360009765625,-0.14482975006103516,0.1757359504699707,-0.8841009736061096
1772905491038600000,5.373599853515625,-0.2411661148071289,0.21750164031982422,-0.9065284729003906
1772905491048600000,5.38360009765625,-0.3667430877685547,0.315349817276001,-0.8652483820915222
1772905491058600000,5.393599853515625,-0.4998779296875,0.41424036026000977,-0.7795678377151489
1772905491068600000,5.40360009765625,-0.6402530670166016,0.48064422607421875,-0.707114577293396
1772905491078600000,5.413599853515625,-0.7854156494140625,0.5192880630493164,-0.6768414974212646
1772905491088600000,5.42360009765625,-0.9162139892578125,0.5491924285888672,-0.6507459282875061
1772905491098600000,5.433599853515625,-0.9799752235412598,0.5653729438781738,-0.6003179550170898
1772905491108600000,5.44360009765625,-0.904871940612793,0.5508387088775635,-0.5421983003616333
1772905491118600000,5.453599853515625,-0.6406278610229492,0.4766263961791992,-0.4952300786972046
1772905491128600000,5.46360009765625,-0.1703929901123047,0.31859326362609863,-0.44475361704826355
1772905491138600000,5.473599853515625,0.4774942398071289,0.07663226127624512,-0.4095900356769562
1772905491148600000,5.48360009765625,1.259963035583496,-0.23246049880981445,-0.41567930579185486
1772905491158600000,5.493599853515625,2.107452392578125,-0.5725815296173096,-0.44581273198127747
1772905491168600000,5.50360009765625,2.8476810455322266,-0.907462477684021,-0.4708077311515808
1772905491178600000,5.513599853515625,3.277663230895996,-1.2126213312149048,-0.49506545066833496
1772905491188600000,5.52360009765625,3.2375946044921875,-1.4568591117858887,-0.5326634645462036
1772905491198600000,5.533599853515625,2.708873748779297,-1.5993895530700684,-0.5524303913116455
1772905491208600000,5.54360009765625,1.8158903121948242,-1.6113684177398682,-0.5162805318832397
1772905491218600000,5.553599853515625,0.7936010360717773,-1.5046539306640625,-0.40528592467308044
1772905491228600000,5.56360009765625,-0.11399650573730469,-1.339030146598816,-0.24128086864948273
1772905491238600000,5.573599853515625,-0.7581377029418945,-1.19113028049469,-0.051023855805397034
1772905491248600000,5.58360009765625,-1.1117267608642578,-1.0922218561172485,0.11462294310331345
1772905491258600000,5.593599853515625,-1.2286972999572754,-1.0425809621810913,0.22380521893501282
1772905491268600000,5.60360009765625,-1.2157936096191406,-1.025861144065857,0.28531110286712646
1772905491278600000,5.613599853515625,-1.191728115081787,-1.0419689416885376,0.3295624852180481
1772905491288600000,5.62360009765625,-1.2345261573791504,-1.0757845640182495,0.3823564648628235
1772905491298600000,5.633599853515625,-1.3345518112182617,-1.1097184419631958,0.4528505802154541
1772905491308600000,5.64360009765625,-1.4174718856811523,-1.1358040571212769,0.5203263163566589
1772905491318600000,5.653599853515625,-1.4141812324523926,-1.1605607271194458,0.564483106136322
1772905491328600000,5.66360009765625,-1.3292603492736816,-1.1786831617355347,0.5729914903640747
1772905491338600000,5.673599853515625,-1.2276716232299805,-1.1778305768966675,0.5481449365615845
1772905491348600000,5.68360009765625,-1.1436967849731445,-1.1481884717941284,0.5140511989593506
1772905491358600000,5.693599853515625,-1.0736818313598633,-1.106399655342102,0.4950314164161682
1772905491368600000,5.70360009765625,-0.9903068542480469,-1.0644065141677856,0.496371328830719
1772905491378600000,5.713599853515625,-0.8448753356933594,-1.0228804349899292,0.48504918813705444
1772905491388600000,5.72360009765625,-0.6070461273193359,-0.9874395132064819,0.43994346261024475
1772905491398600000,5.733599853515625,-0.3266439437866211,-0.9900573492050171,0.3781878650188446
1772905491408600000,5.74360009765625,-0.06532001495361328,-1.0290788412094116,0.31571152806282043
1772905491418600000,5.753599853515625,0.1171712875366211,-1.0834770202636719,0.2632811665534973
1772905491428600000,5.76360009765625,0.20379924774169922,-1.139174461364746,0.22134503722190857
1772905491438600000,5.773599853515625,0.21326446533203125,-1.174723744392395,0.16142424941062927
1772905491448600000,5.78360009765625,0.15712547302246094,-1.168555498123169,0.07162467390298843
1772905491458600000,5.793599853515625,0.0663003921508789,-1.1158004999160767,-0.05043986067175865
1772905491468600000,5.80360009765625,-0.051964759826660156,-1.0236002206802368,-0.16882842779159546
1772905491478600000,5.813599853515625,-0.1877450942993164,-0.8992332220077515,-0.2571140229701996
1772905491488600000,5.82360009765625,-0.3364391326904297,-0.7549298405647278,-0.29359304904937744
1772905491498600000,5.833599853515625,-0.48868274688720703,-0.600690484046936,-0.2708882689476013
1772905491508600000,5.84360009765625,-0.6272735595703125,-0.4490896463394165,-0.2031782567501068
1772905491518600000,5.853599853515625,-0.7105264663696289,-0.3104921579360962,-0.12142182886600494
1772905491528600000,5.86360009765625,-0.7013101577758789,-0.19778239727020264,-0.03272275626659393
1772905491538600000,5.873599853515625,-0.5865974426269531,-0.1142885684967041,0.05806966871023178
1772905491548600000,5.88360009765625,-0.37301063537597656,-0.046492576599121094,0.12935271859169006
1772905491558600000,5.893599853515625,-0.08460807800292969,0.0121229887008667,0.16665442287921906
1772905491568600000,5.90360009765625,0.2658367156982422,0.06115150451660156,0.1386614739894867
1772905491578600000,5.913599853515625,0.6522903442382812,0.10049593448638916,0.035524576902389526
1772905491588600000,5.92360009765625,1.0563983917236328,0.1231546401977539,-0.11435630917549133
1772905491598600000,5.933599853515625,1.4504947662353516,0.13430941104888916,-0.28499138355255127
1772905491608600000,5.94360009765625,1.785003662109375,0.1488732099533081,-0.44797366857528687
1772905491618600000,5.953599853515625,1.9934444427490234,0.1674942970275879,-0.5891316533088684
1772905491628600000,5.96360009765625,2.0191383361816406,0.2052152156829834,-0.6940232515335083
1772905491638600000,5.973599853515625,1.8395013809204102,0.27462518215179443,-0.7313181757926941
1772905491648600000,5.98360009765625,1.504556655883789,0.37949538230895996,-0.688923716545105
1772905491658600000,5.993599853515625,1.0914583206176758,0.5032509565353394,-0.583565354347229
1772905491668600000,6.00360009765625,0.6540908813476562,0.6195856332778931,-0.44639852643013
1772905491678600000,6.013599853515625,0.22365665435791016,0.7115814685821533,-0.31577545404434204
1772905491688600000,6.02360009765625,-0.17636871337890625,0.781324028968811,-0.22041946649551392
1772905491698600000,6.033599853515625,-0.5180301666259766,0.8236210346221924,-0.16740840673446655
1772905491708600000,6.04360009765625,-0.7754631042480469,0.8428168296813965,-0.14217440783977509
1772905491718600000,6.053599853515625,-0.9298925399780273,0.8432662487030029,-0.11102696508169174
1772905491728600000,6.06360009765625,-0.9723978042602539,0.8269881010055542,-0.05237235873937607
1772905491738600000,6.073599853515625,-0.936070442199707,0.7937355041503906,0.04105087369680405
1772905491748600000,6.08360009765625,-0.9022064208984375,0.7449442148208618,0.13344749808311462
1772905491758600000,6.093599853515625,-0.959599494934082,0.6808698177337646,0.1698867380619049
1772905491768600000,6.10360009765625,-1.1207027435302734,0.6043194532394409,0.1121661365032196
1772905491778600000,6.113599853515625,-1.3215961456298828,0.5158793926239014,-0.02055465243756771
1772905491788600000,6.12360009765625,-1.4578866958618164,0.4234517812728882,-0.16619916260242462
1772905491798600000,6.133599853515625,-1.4564990997314453,0.3374103307723999,-0.27009308338165283
1772905491808600000,6.14360009765625,-1.311518669128418,0.26575005054473877,-0.30466005206108093
1772905491818600000,6.153599853515625,-1.093602180480957,0.20446205139160156,-0.28059685230255127
1772905491828600000,6.16360009765625,-0.8772096633911133,0.156638503074646,-0.2412986159324646
1772905491838600000,6.173599853515625,-0.7049398422241211,0.11565887928009033,-0.24211642146110535
1772905491848600000,6.18360009765625,-0.5621891021728516,0.06994426250457764,-0.2976551055908203
1772905491858600000,6.193599853515625,-0.4560384750366211,0.014921069145202637,-0.3817480802536011
1772905491868600000,6.20360009765625,-0.42473602294921875,-0.03738081455230713,-0.4729214310646057
1772905491878600000,6.213599853515625,-0.49214839935302734,-0.06308138370513916,-0.5495885014533997
1772905491888600000,6.22360009765625,-0.6246576309204102,-0.04078543186187744,-0.5900357365608215
1772905491898600000,6.233599853515625,-0.7407245635986328,0.024505615234375,-0.5603669881820679
1772905491908600000,6.24360009765625,-0.7587366104125977,0.1062154769897461,-0.456939160823822
1772905491918600000,6.253599853515625,-0.6185398101806641,0.18015944957733154,-0.32414010167121887
1772905491928600000,6.26360009765625,-0.3611335754394531,0.21979665756225586,-0.2000703364610672
1772905491938600000,6.273599853515625,-0.08448314666748047,0.2345569133758545,-0.0941409319639206
1772905491948600000,6.28360009765625,0.11377525329589844,0.2554582357406616,-0.008630290627479553
1772905491958600000,6.293599853515625,0.17679595947265625,0.29916226863861084,0.06607929617166519
1772905491968600000,6.30360009765625,0.12184524536132812,0.36314892768859863,0.1467023491859436
1772905491978600000,6.313599853515625,0.021047592163085938,0.4352707862854004,0.23552221059799194
1772905491988600000,6.32360009765625,-0.03693675994873047,0.5033277273178101,0.3347843885421753
1772905491998600000,6.333599853515625,0.00039386749267578125,0.5550813674926758,0.45382803678512573
1772905492008600000,6.34360009765625,0.11098575592041016,0.5854500532150269,0.589856743812561
1772905492018600000,6.353599853515625,0.2388315200805664,0.6060892343521118,0.7425709366798401
1772905492028600000,6.36360009765625,0.3196239471435547,0.6238199472427368,0.8997889757156372
1772905492038600000,6.373599853515625,0.32071876525878906,0.6358391046524048,1.027836561203003
1772905492048600000,6.38360009765625,0.24373722076416016,0.6345434188842773,1.094223141670227
1772905492058600000,6.393599853515625,0.13125896453857422,0.6195487976074219,1.068663239479065
1772905492068600000,6.40360009765625,0.028502464294433594,0.5785857439041138,0.9627204537391663
1772905492078600000,6.413599853515625,-0.03586387634277344,0.5210462808609009,0.8120203614234924
1772905492088600000,6.42360009765625,-0.04974174499511719,0.4540451765060425,0.6618381142616272
1772905492098600000,6.433599853515625,-0.02711963653564453,0.3895835876464844,0.5503032207489014
1772905492108600000,6.44360009765625,-0.0008096694946289062,0.33734166622161865,0.48443955183029175
1772905492118600000,6.453599853515625,-0.0008573532104492188,0.2974965572357178,0.4473639130592346
1772905492128600000,6.46360009765625,-0.03481864929199219,0.2631380558013916,0.4079028367996216
1772905492138600000,6.473599853515625,-0.07750320434570312,0.2250664234161377,0.3517509698867798
1772905492148600000,6.48360009765625,-0.08072757720947266,0.16459369659423828,0.2922988533973694
1772905492158600000,6.493599853515625,-0.011007308959960938,0.0822443962097168,0.24563968181610107
1772905492168600000,6.50360009765625,0.10748100280761719,-0.0022993087768554688,0.1932886838912964
1772905492178600000,6.513599853515625,0.22895336151123047,-0.052642107009887695,0.11910437792539597
1772905492188600000,6.52360009765625,0.35068225860595703,-0.05400419235229492,0.0524151474237442
1772905492198600000,6.533599853515625,0.5296697616577148,-0.006031513214111328,0.053646937012672424
1772905492208600000,6.54360009765625,0.8226900100708008,0.09157204627990723,0.1233169287443161
1772905492218600000,6.553599853515625,1.2311935424804688,0.19115710258483887,0.2522655129432678
1772905492228600000,6.56360009765625,1.6415529251098633,0.25696444511413574,0.4287862777709961
1772905492238600000,6.573599853515625,1.9401111602783203,0.27707815170288086,0.6098614931106567
1772905492248600000,6.58360009765625,2.087550163269043,0.23947978019714355,0.7403366565704346
1772905492258600000,6.593599853515625,2.0806045532226562,0.13207507133483887,0.7817460298538208
1772905492268600000,6.60360009765625,1.9568243026733398,-0.026119232177734375,0.7315493226051331
1772905492278600000,6.613599853515625,1.7538185119628906,-0.22081637382507324,0.6207517385482788
1772905492288600000,6.62360009765625,1.4949054718017578,-0.4306330680847168,0.4827648997306824
1772905492298600000,6.633599853515625,1.2203636169433594,-0.6366631984710693,0.31511393189430237
1772905492308600000,6.64360009765625,0.9397096633911133,-0.8104009628295898,0.09860840439796448
1772905492318600000,6.653599853515625,0.6174745559692383,-0.9568363428115845,-0.15234678983688354
1772905492328600000,6.66360009765625,0.2282724380493164,-1.0809327363967896,-0.4064611792564392
1772905492338600000,6.673599853515625,-0.20978927612304688,-1.1732591390609741,-0.6298975944519043
1772905492348600000,6.68360009765625,-0.6544256210327148,-1.23153555393219,-0.8250930905342102
1772905492358600000,6.693599853515625,-1.0584430694580078,-1.2510794401168823,-0.9849199652671814
1772905492368600000,6.70360009765625,-1.3985481262207031,-1.241599440574646,-1.0926897525787354
1772905492378600000,6.713599853515625,-1.7016935348510742,-1.2342320680618286,-1.1317429542541504
1772905492388600000,6.72360009765625,-2.0211267471313477,-1.2287031412124634,-1.0974187850952148
1772905492398600000,6.733599853515625,-2.377213478088379,-1.2197734117507935,-0.9898821115493774
1772905492408600000,6.74360009765625,-2.7265281677246094,-1.2141169309616089,-0.7925900220870972
1772905492418600000,6.753599853515625,-2.975679874420166,-1.2255555391311646,-0.5034358501434326
1772905492428600000,6.76360009765625,-3.0843029022216797,-1.2583247423171997,-0.16349834203720093
1772905492438600000,6.773599853515625,-3.062617778778076,-1.316673994064331,0.12909114360809326
1772905492448600000,6.78360009765625,-2.9354324340820312,-1.3977196216583252,0.2862694263458252
1772905492458600000,6.793599853515625,-2.7372593879699707,-1.4962639808654785,0.2702544331550598
1772905492468600000,6.80360009765625,-2.490701198577881,-1.6024153232574463,0.08867079019546509
1772905492478600000,6.813599853515625,-2.206425666809082,-1.6969923973083496,-0.19588974118232727
1772905492488600000,6.82360009765625,-1.8897371292114258,-1.7539268732070923,-0.4850224554538727
1772905492498600000,6.833599853515625,-1.5206823348999023,-1.7616780996322632,-0.694815456867218
1772905492508600000,6.84360009765625,-1.0881996154785156,-1.7327512502670288,-0.8013848066329956
1772905492518600000,6.853599853515625,-0.6363286972045898,-1.6844762563705444,-0.8361073732376099
1772905492528600000,6.86360009765625,-0.26908016204833984,-1.6197885274887085,-0.8376960754394531
1772905492538600000,6.873599853515625,-0.10494422912597656,-1.541530728340149,-0.8382554054260254
1772905492548600000,6.88360009765625,-0.16192054748535156,-1.4380321502685547,-0.8340224027633667
1772905492558600000,6.893599853515625,-0.35031986236572266,-1.2950513362884521,-0.7971280813217163
1772905492568600000,6.90360009765625,-0.5398406982421875,-1.1173328161239624,-0.6850498914718628
1772905492578600000,6.913599853515625,-0.6362781524658203,-0.9262340068817139,-0.4860733151435852
1772905492588600000,6.92360009765625,-0.6397790908813477,-0.7310287952423096,-0.23130905628204346
1772905492598600000,6.933599853515625,-0.6067361831665039,-0.5481234788894653,0.0028990209102630615
1772905492608600000,6.94360009765625,-0.6035928726196289,-0.3843801021575928,0.14528900384902954
1772905492618600000,6.953599853515625,-0.6276464462280273,-0.251567006111145,0.16321447491645813
1772905492628600000,6.96360009765625,-0.6356029510498047,-0.1448899507522583,0.10084928572177887
1772905492638600000,6.973599853515625,-0.5434808731079102,-0.05502939224243164,0.04787978529930115
1772905492648600000,6.98360009765625,-0.2505779266357422,0.02943134307861328,0.07703346014022827
1772905492658600000,6.993599853515625,0.3030424118041992,0.09328269958496094,0.20314571261405945
1772905492668600000,7.00360009765625,1.0456314086914062,0.12347257137298584,0.3685261011123657
1772905492678600000,7.013599853515625,1.7844886779785156,0.13073694705963135,0.4827961027622223
1772905492688600000,7.02360009765625,2.3121862411499023,0.1377391815185547,0.48131033778190613
1772905492698600000,7.033599853515625,2.5074214935302734,0.14325034618377686,0.35935428738594055
1772905492708600000,7.04360009765625,2.3932008743286133,0.15002989768981934,0.1720494031906128
1772905492718600000,7.053599853515625,2.093709945678711,0.17434096336364746,-0.016042716801166534
1772905492728600000,7.06360009765625,1.75762939453125,0.23511850833892822,-0.16207006573677063
1772905492738600000,7.073599853515625,1.4886484146118164,0.33946728706359863,-0.23523247241973877
1772905492748600000,7.08360009765625,1.3072004318237305,0.47548919916152954,-0.22638042271137238
1772905492758600000,7.093599853515625,1.1720657348632812,0.6122804284095764,-0.15240705013275146
1772905492768600000,7.10360009765625,1.0042991638183594,0.7190643548965454,-0.03928818181157112
1772905492778600000,7.113599853515625,0.7315406799316406,0.7843164801597595,0.09552983939647675
1772905492788600000,7.12360009765625,0.3206634521484375,0.8181188702583313,0.25134527683258057
1772905492798600000,7.133599853515625,-0.1699695587158203,0.8473394513130188,0.42938032746315
1772905492808600000,7.14360009765625,-0.6224985122680664,0.8782418966293335,0.63566654920578
1772905492818600000,7.153599853515625,-0.9435100555419922,0.8918192386627197,0.861911416053772
1772905492828600000,7.16360009765625,-1.0952482223510742,0.8881934881210327,1.0736637115478516
1772905492838600000,7.173599853515625,-1.0865545272827148,0.8772019147872925,1.2319012880325317
1772905492848600000,7.18360009765625,-0.9607086181640625,0.8496707677841187,1.3194996118545532
1772905492858600000,7.193599853515625,-0.7710514068603516,0.8013467788696289,1.3409316539764404
1772905492868600000,7.20360009765625,-0.5570411682128906,0.7280805110931396,1.312671184539795
1772905492878600000,7.213599853515625,-0.3800678253173828,0.6305758953094482,1.2320992946624756
1772905492888600000,7.22360009765625,-0.32329654693603516,0.5095565319061279,1.0828063488006592
1772905492898600000,7.233599853515625,-0.39092540740966797,0.38965916633605957,0.8703809976577759
1772905492908600000,7.24360009765625,-0.5008554458618164,0.2930415868759155,0.6507503986358643
1772905492918600000,7.253599853515625,-0.5683774948120117,0.21539461612701416,0.4727579951286316
1772905492928600000,7.26360009765625,-0.5846996307373047,0.140289306640625,0.3205646872520447
1772905492938600000,7.273599853515625,-0.5736598968505859,0.06791305541992188,0.1351361870765686
1772905492948600000,7.28360009765625,-0.5517864227294922,0.01267707347869873,-0.12108421325683594
1772905492958600000,7.293599853515625,-0.5383205413818359,-0.025494098663330078,-0.4138278663158417
1772905492968600000,7.30360009765625,-0.5479326248168945,-0.05155301094055176,-0.6824562549591064
1772905492978600000,7.313599853515625,-0.5905475616455078,-0.07289779186248779,-0.8711389899253845
1772905492988600000,7.32360009765625,-0.659184455871582,-0.09216725826263428,-0.950535774230957
1772905492998600000,7.333599853515625,-0.7705411911010742,-0.09284555912017822,-0.9346874952316284
1772905493008600000,7.34360009765625,-0.9338626861572266,-0.06556034088134766,-0.8572116494178772
1772905493018600000,7.353599853515625,-1.1007366180419922,-0.024818897247314453,-0.7544084787368774
1772905493028600000,7.36360009765625,-1.2302579879760742,0.005358219146728516,-0.665002703666687
1772905493038600000,7.373599853515625,-1.2935981750488281,0.008202433586120605,-0.6109411716461182
1772905493048600000,7.38360009765625,-1.2902860641479492,-0.0138169527053833,-0.5974078178405762
1772905493058600000,7.393599853515625,-1.2290840148925781,-0.04861640930175781,-0.5985005497932434
1772905493068600000,7.40360009765625,-1.1328868865966797,-0.10108613967895508,-0.5883813500404358
1772905493078600000,7.413599853515625,-1.012643814086914,-0.16175079345703125,-0.5460413694381714
1772905493088600000,7.42360009765625,-0.8556957244873047,-0.2235403060913086,-0.4719929099082947
1772905493098600000,7.433599853515625,-0.6427326202392578,-0.257851243019104,-0.4024433195590973
1772905493108600000,7.44360009765625,-0.3861360549926758,-0.24567723274230957,-0.37806209921836853
1772905493118600000,7.453599853515625,-0.12749004364013672,-0.22309398651123047,-0.3603513538837433
1772905493128600000,7.46360009765625,0.08413982391357422,-0.2118217945098877,-0.30358368158340454
1772905493138600000,7.473599853515625,0.24265289306640625,-0.20487260818481445,-0.20266029238700867
1772905493148600000,7.48360009765625,0.36588478088378906,-0.18329477310180664,-0.08832341432571411
1772905493158600000,7.493599853515625,0.4142475128173828,-0.144645094871521,0.0015549063682556152
1772905493168600000,7.50360009765625,0.3242521286010742,-0.09342968463897705,0.04348713159561157
1772905493178600000,7.513599853515625,0.1235036849975586,-0.031781792640686035,0.025942206382751465
1772905493188600000,7.52360009765625,-0.07885551452636719,0.04052090644836426,-0.03151482343673706
1772905493198600000,7.533599853515625,-0.14419841766357422,0.09252965450286865,-0.0783352255821228
1772905493208600000,7.54360009765625,0.006600379943847656,0.11480152606964111,-0.10479655861854553
1772905493218600000,7.553599853515625,0.3067636489868164,0.12658166885375977,-0.1347789168357849
1772905493228600000,7.56360009765625,0.6201581954956055,0.11354410648345947,-0.1325189471244812
1772905493238600000,7.573599853515625,0.8489704132080078,0.013415694236755371,-0.055345386266708374
1772905493248600000,7.58360009765625,0.8618602752685547,-0.12843096256256104,-0.006893545389175415
1772905493258600000,7.593599853515625,0.6543607711791992,-0.10232126712799072,-0.13888365030288696
1772905493268600000,7.60360009765625,0.39432525634765625,0.14034700393676758,-0.44122886657714844
1772905493278600000,7.613599853515625,0.20401859283447266,0.479478120803833,-0.7887906432151794
1772905493288600000,7.62360009765625,0.10750579833984375,0.7542372941970825,-1.0379040241241455
1772905493298600000,7.633599853515625,0.099609375,0.851693868637085,-1.068721055984497
1772905493308600000,7.64360009765625,0.16557788848876953,0.7715108394622803,-0.885840654373169
1772905493318600000,7.653599853515625,0.29089832305908203,0.6068136692047119,-0.613760232925415
1772905493328600000,7.66360009765625,0.39429473876953125,0.46756231784820557,-0.43452686071395874
1772905493338600000,7.673599853515625,0.4019355773925781,0.36559152603149414,-0.3815453350543976
1772905493348600000,7.68360009765625,0.2521810531616211,0.2529093027114868,-0.3707163333892822
1772905493358600000,7.693599853515625,-0.03506946563720703,0.18752849102020264,-0.39919543266296387
1772905493368600000,7.70360009765625,-0.3320426940917969,0.24972128868103027,-0.4847060739994049
1772905493378600000,7.713599853515625,-0.5156259536743164,0.4682493209838867,-0.6379055380821228
1772905493388600000,7.72360009765625,-0.5655736923217773,0.7881377935409546,-0.8209109306335449
1772905493398600000,7.733599853515625,-0.5096855163574219,1.1016905307769775,-0.9719991087913513
1772905493408600000,7.74360009765625,-0.38591766357421875,1.3082810640335083,-1.0507700443267822
1772905493418600000,7.753599853515625,-0.20600414276123047,1.3024203777313232,-0.9397005438804626
1772905493428600000,7.76360009765625,0.0612640380859375,1.0768375396728516,-0.6215587854385376
1772905493438600000,7.773599853515625,0.48041248321533203,0.7417269945144653,-0.2443421185016632
1772905493448600000,7.78360009765625,1.0702629089355469,0.3906499147415161,-0.018398582935333252
1772905493458600000,7.793599853515625,1.753687858581543,0.026284098625183105,-0.0225202739238739
1772905493468600000,7.80360009765625,2.369630813598633,-0.3868730068206787,-0.20868539810180664
1772905493478600000,7.813599853515625,2.7569704055786133,-0.8386459350585938,-0.48338234424591064
1772905493488600000,7.82360009765625,2.818881034851074,-1.256363868713379,-0.7745715379714966
1772905493498600000,7.833599853515625,2.5331945419311523,-1.583788514137268,-1.0244667530059814
1772905493508600000,7.84360009765625,1.9730596542358398,-1.7955929040908813,-1.1802748441696167
1772905493518600000,7.853599853515625,1.2886276245117188,-1.8866876363754272,-1.2015178203582764
1772905493528600000,7.86360009765625,0.6424579620361328,-1.8736101388931274,-1.0862269401550293
1772905493538600000,7.873599853515625,0.12570953369140625,-1.7969623804092407,-0.897164523601532
1772905493548600000,7.88360009765625,-0.2730274200439453,-1.7022265195846558,-0.7305446267127991
1772905493558600000,7.893599853515625,-0.6031208038330078,-1.6254191398620605,-0.6465298533439636
1772905493568600000,7.90360009765625,-0.9088563919067383,-1.5596375465393066,-0.6357370615005493
1772905493578600000,7.913599853515625,-1.167313575744629,-1.5101754665374756,-0.6408870816230774
1772905493588600000,7.92360009765625,-1.312129020690918,-1.48734450340271,-0.6048325300216675
1772905493598600000,7.933599853515625,-1.3084583282470703,-1.520737648010254,-0.46825650334358215
1772905493608600000,7.94360009765625,-1.2194814682006836,-1.696271300315857,-0.17913751304149628
1772905493618600000,7.953599853515625,-1.1714067459106445,-1.9168061017990112,0.16863158345222473
1772905493628600000,7.96360009765625,-1.1831417083740234,-2.0278890132904053,0.455107182264328
1772905493638600000,7.973599853515625,-1.209376335144043,-1.9662671089172363,0.6395958662033081
1772905493648600000,7.98360009765625,-1.3033447265625,-1.7575162649154663,0.7318222522735596
1772905493658600000,7.993599853515625,-1.5066585540771484,-1.4729390144348145,0.7965733408927917
1772905493668600000,8.00360009765625,-1.7534832954406738,-1.172055721282959,0.9104706048965454
1772905493678600000,8.013599853515625,-1.9135098457336426,-0.8953818082809448,1.1251732110977173
1772905493688600000,8.02360009765625,-1.8564410209655762,-0.7458196878433228,1.434431791305542
1772905493698600000,8.033599853515625,-1.599717140197754,-0.8216745853424072,1.7707452774047852
1772905493708600000,8.04360009765625,-1.315474510192871,-1.0381321907043457,1.9445767402648926
1772905493718600000,8.053599853515625,-1.1756982803344727,-1.267174482345581,1.783278226852417
1772905493728600000,8.06360009765625,-1.2376222610473633,-1.4714953899383545,1.2604217529296875
1772905493738600000,8.073599853515624,-1.379002571105957,-1.646992564201355,0.5101872682571411
1772905493748600000,8.08360009765625,-1.3698749542236328,-1.734248161315918,-0.242080956697464
1772905493758600000,8.093599853515625,-1.147810935974121,-1.7503317594528198,-0.7780694365501404
1772905493768600000,8.10360009765625,-0.8561334609985352,-1.7170782089233398,-1.0110200643539429
1772905493778600000,8.113599853515625,-0.5732898712158203,-1.584471344947815,-1.008816123008728
1772905493788600000,8.12360009765625,-0.3007984161376953,-1.2976484298706055,-0.960891842842102
1772905493798600000,8.133599853515625,-0.05478477478027344,-0.9215402603149414,-0.9999427795410156
1772905493808600000,8.14360009765625,0.1439504623413086,-0.5524750351905823,-1.1746540069580078
1772905493818600000,8.153599853515624,0.3371696472167969,-0.2703547477722168,-1.4020792245864868
1772905493828600000,8.16360009765625,0.5188264846801758,-0.1697080135345459,-1.5239226818084717
1772905493838600000,8.173599853515626,0.6299781799316406,-0.21590077877044678,-1.489949345588684
1772905493848600000,8.18360009765625,0.6159543991088867,-0.2975795269012451,-1.3818943500518799
1772905493858600000,8.193599853515625,0.5219945907592773,-0.3676998019218445,-1.2960197925567627
1772905493868600000,8.20360009765625,0.462066650390625,-0.41472288966178894,-1.2831218242645264
1772905493878600000,8.213599853515625,0.4991445541381836,-0.40769776701927185,-1.3293266296386719
1772905493888600000,8.22360009765625,0.5571832656860352,-0.3419360816478729,-1.4112331867218018
1772905493898600000,8.233599853515624,0.5537805557250977,-0.21982884407043457,-1.5199683904647827
1772905493908600000,8.24360009765625,0.4826669692993164,-0.01719653606414795,-1.6635913848876953
1772905493928600000,8.26360009765625,0.38083648681640625,0.5050456523895264,-1.939820647239685
1772905493938600000,8.273599853515625,0.3960399627685547,0.6680869460105896,-1.903394341468811
1772905493948600000,8.28360009765625,0.4213228225708008,0.7892611026763916,-1.7035776376724243
1772905493958600000,8.293599853515625,0.44262123107910156,0.9338375926017761,-1.3159189224243164
1772905493968600000,8.30360009765625,0.4726390838623047,1.1138553619384766,-0.713538408279419
1772905493978600000,8.313599853515624,0.5699100494384766,1.2997822761535645,0.058656830340623856
1772905493988600000,8.32360009765625,0.8046846389770508,1.4335405826568604,0.848059892654419
1772905493998600000,8.333599853515626,1.1957578659057617,1.459373116493225,1.470987319946289
1772905494008600000,8.34360009765625,1.6711711883544922,1.3741796016693115,1.789302110671997
1772905494018600000,8.353599853515625,2.055828094482422,1.2060298919677734,1.7622042894363403
1772905494028600000,8.36360009765625,2.1314010620117188,0.9711929559707642,1.4640913009643555
1772905494038600000,8.373599853515625,1.7705554962158203,0.7174202799797058,1.026933193206787
1772905494048600000,8.38360009765625,1.0161848068237305,0.5196306705474854,0.5585442781448364
1772905494058600000,8.393599853515624,0.05051898956298828,0.40443480014801025,0.12550340592861176
1772905494068600000,8.40360009765625,-0.8957242965698242,0.3247484564781189,-0.22564932703971863
1772905494078600000,8.413599853515626,-1.6199841499328613,0.23676079511642456,-0.5289221405982971
1772905494088600000,8.42360009765625,-1.9624896049499512,0.1276879906654358,-0.8035116791725159
1772905494098600000,8.433599853515625,-1.9046955108642578,-0.012707114219665527,-1.0105993747711182
1772905494108600000,8.44360009765625,-1.6235027313232422,-0.18267250061035156,-1.1183702945709229
1772905494118600000,8.453599853515625,-1.353257179260254,-0.34947943687438965,-1.121525526046753
1772905494128600000,8.46360009765625,-1.258875846862793,-0.4831506311893463,-1.0270910263061523
1772905494138600000,8.473599853515625,-1.3785028457641602,-0.5661769509315491,-0.85910964012146
1772905494148600000,8.48360009765625,-1.6092815399169922,-0.5839169025421143,-0.6679555773735046
1772905494158600000,8.493599853515626,-1.8511533737182617,-0.5651504993438721,-0.49654436111450195
1772905494168600000,8.50360009765625,-2.0620079040527344,-0.5579636096954346,-0.39196884632110596
1772905494188600000,8.52360009765625,-1.929652214050293,-0.3955797553062439,-0.5525858402252197
1772905494198600000,8.533599853515625,-1.478057861328125,-0.2945057153701782,-0.5853890776634216
1772905494208600000,8.54360009765625,-0.9493093490600586,-0.15242630243301392,-0.4998815655708313
1772905494218600000,8.553599853515625,-0.4929056167602539,0.03716456890106201,-0.25650399923324585
1772905494228600000,8.56360009765625,-0.20348262786865234,0.2641427516937256,0.13932934403419495
1772905494238600000,8.573599853515624,-0.0850229263305664,0.5065782070159912,0.6341265439987183
1772905494248600000,8.58360009765625,-0.06050300598144531,0.7330887317657471,1.145973563194275
1772905494258600000,8.593599853515625,-0.04368019104003906,0.9171136617660522,1.5573241710662842
1772905494268600000,8.60360009765625,-0.0036306381225585938,1.0296690464019775,1.7963612079620361
1772905494278600000,8.613599853515625,0.052184104919433594,1.0421072244644165,1.8393244743347168
1772905494288600000,8.62360009765625,0.1306905746459961,0.9788194894790649,1.7032368183135986
1772905494298600000,8.633599853515625,0.22539615631103516,0.8857628107070923,1.445777416229248
1772905494308600000,8.64360009765625,0.26758670806884766,0.7729620933532715,1.1292279958724976
1772905494318600000,8.653599853515624,0.2485036849975586,0.6767058372497559,0.7772976160049438
1772905494328600000,8.66360009765625,0.23627185821533203,0.6092026233673096,0.4093514680862427
1772905494338600000,8.673599853515626,0.30426883697509766,0.5387681722640991,0.06926485896110535
1772905494348600000,8.68360009765625,0.42105770111083984,0.450419545173645,-0.21593916416168213
1772905494358600000,8.693599853515625,0.4861288070678711,0.34621262550354004,-0.4541785717010498
1772905494368600000,8.70360009765625,0.40860843658447266,0.22116470336914062,-0.6568585634231567
1772905494378600000,8.713599853515625,0.2059469223022461,0.08205258846282959,-0.8454722762107849
1772905494388600000,8.72360009765625,-0.022420883178710938,-0.042702555656433105,-1.0458993911743164
1772905494398600000,8.733599853515624,-0.13776493072509766,-0.16293483972549438,-1.2669472694396973
1772905494408600000,8.74360009765625,-0.09435749053955078,-0.27646028995513916,-1.4549599885940552
1772905494418600000,8.753599853515626,0.06276702880859375,-0.35466182231903076,-1.5059189796447754
1772905494428600000,8.76360009765625,0.24544811248779297,-0.3448141813278198,-1.3668174743652344
1772905494438600000,8.773599853515625,0.3629426956176758,-0.23886293172836304,-1.0520684719085693
1772905494448600000,8.78360009765625,0.3602933883666992,-0.05742168426513672,-0.6006660461425781
1772905494458600000,8.793599853515625,0.235321044921875,0.1570519208908081,-0.06933555006980896
1772905494468600000,8.80360009765625,0.060433387756347656,0.381054162979126,0.48868468403816223
1772905494478600000,8.813599853515624,-0.06357574462890625,0.5860779285430908,1.0398211479187012
1772905494488600000,8.82360009765625,-0.022100448608398438,0.7553979158401489,1.5644638538360596
1772905494498600000,8.833599853515626,0.22177410125732422,0.8865324258804321,2.045083999633789
1772905494508600000,8.84360009765625,0.6207008361816406,0.9793221950531006,2.447178840637207
1772905494518600000,8.853599853515625,0.9282941818237305,1.0000110864639282,2.7505106925964355
1772905494528600000,8.86360009765625,0.8549537658691406,0.9698214530944824,2.949409008026123
1772905494538600000,8.873599853515625,0.4630765914916992,0.8476665019989014,2.9695987701416016
1772905494548600000,8.88360009765625,0.13592052459716797,0.5828968286514282,2.6783413887023926
1772905494558600000,8.893599853515624,0.2107686996459961,0.24706780910491943,2.102893590927124
1772905494568600000,8.90360009765625,0.7134695053100586,-0.11206531524658203,1.4223313331604004
1772905494578600000,8.913599853515626,1.4422616958618164,-0.5136202573776245,0.7656519412994385
1772905494588600000,8.92360009765625,2.0727577209472656,-0.9478035569190979,0.09201717376708984
1772905494598600000,8.933599853515625,2.346698760986328,-1.366438627243042,-0.7445960640907288
1772905494608600000,8.94360009765625,2.214674949645996,-1.7576345205307007,-1.7415032386779785
1772905494618600000,8.953599853515625,1.7903823852539062,-2.09747314453125,-2.699307680130005
1772905494628600000,8.96360009765625,1.2524490356445312,-2.3212757110595703,-3.384856939315796
1772905494638600000,8.973599853515625,0.7556352615356445,-2.3595383167266846,-3.6681153774261475
1772905494648600000,8.98360009765625,0.3492879867553711,-2.216994047164917,-3.5345816612243652
1772905494658600000,8.993599853515626,0.00417327880859375,-1.9607094526290894,-3.0953097343444824
1772905494668600000,9.00360009765625,-0.33979225158691406,-1.6794127225875854,-2.5150105953216553
1772905494678600000,9.013599853515625,-0.7302665710449219,-1.4428012371063232,-1.9226809740066528
1772905494688600000,9.02360009765625,-1.1804132461547852,-1.2607421875,-1.387616515159607
1772905494698600000,9.033599853515625,-1.6373777389526367,-1.116262674331665,-0.92420494556427
1772905494708600000,9.04360009765625,-2.022172451019287,-0.9894722104072571,-0.48964133858680725
1772905494718600000,9.053599853515625,-2.2894277572631836,-0.8460204601287842,-0.017565932124853134
1772905494728600000,9.06360009765625,-2.4758057594299316,-0.6802229881286621,0.529233455657959
1772905494738600000,9.073599853515624,-2.604736328125,-0.5103704929351807,1.1135021448135376
1772905494748600000,9.08360009765625,-2.6732845306396484,-0.3692739009857178,1.6513961553573608
1772905494758600000,9.093599853515625,-2.659412384033203,-0.3163013458251953,2.0650317668914795
1772905494768600000,9.10360009765625,-2.5126137733459473,-0.391879677772522,2.3240976333618164
1772905494778600000,9.113599853515625,-2.2379050254821777,-0.5480200052261353,2.4674723148345947
1772905494788600000,9.12360009765625,-1.900658130645752,-0.6771022081375122,2.359074831008911
1772905494798600000,9.133599853515625,-1.5714530944824219,-0.8636538982391357,1.996694564819336
1772905494808600000,9.14360009765625,-1.2804145812988281,-1.146876573562622,1.4185593128204346
1772905494818600000,9.153599853515624,-0.9998674392700195,-1.4559787511825562,0.6769887804985046
1772905494828600000,9.16360009765625,-0.7198238372802734,-1.7154738903045654,-0.10167448967695236
1772905494838600000,9.173599853515626,-0.44358253479003906,-1.9000930786132812,-0.7601040601730347
1772905494848600000,9.18360009765625,-0.16962814331054688,-1.993895411491394,-1.187718152999878
1772905494858600000,9.193599853515625,0.1082754135131836,-1.9949527978897095,-1.3716307878494263
1772905494868600000,9.20360009765625,0.3338203430175781,-1.9105645418167114,-1.3415749073028564
1772905494878600000,9.213599853515625,0.3831911087036133,-1.7813055515289307,-1.1102142333984375
1772905494888600000,9.22360009765625,0.1967601776123047,-1.6165509223937988,-0.7138416767120361
1772905494898600000,9.233599853515624,-0.1608266830444336,-1.3897604942321777,-0.22788891196250916
1772905494908600000,9.24360009765625,-0.5123958587646484,-1.1174962520599365,0.23659637570381165
1772905494918600000,9.253599853515626,-0.647547721862793,-0.8306922912597656,0.5761135816574097
1772905494928600000,9.26360009765625,-0.4933443069458008,-0.5459500551223755,0.7520639896392822
1772905494938600000,9.273599853515625,-0.11588668823242188,-0.2703912854194641,0.7954245209693909
1772905494948600000,9.28360009765625,0.3752422332763672,-0.016113758087158203,0.7444882988929749
1772905494958600000,9.293599853515625,0.8605403900146484,0.19016802310943604,0.6401793956756592
1772905494968600000,9.30360009765625,1.2660760879516602,0.32624924182891846,0.5046216249465942
1772905494978600000,9.313599853515624,1.5854921340942383,0.40807783603668213,0.3460367023944855
1772905494988600000,9.32360009765625,1.825057029724121,0.46127524971961975,0.165803924202919
1772905494998600000,9.333599853515626,1.9823551177978516,0.5020408034324646,-0.016547538340091705
1772905495008600000,9.34360009765625,2.065031051635742,0.5418784022331238,-0.1836986243724823
1772905495018600000,9.353599853515625,2.057065010070801,0.5755972862243652,-0.3282025456428528
1772905495028600000,9.36360009765625,1.8946952819824219,0.6028820276260376,-0.42767003178596497
1772905495038600000,9.373599853515625,1.5362825393676758,0.6354959011077881,-0.45740437507629395
1772905495048600000,9.38360009765625,1.0297060012817383,0.6781794428825378,-0.4072946310043335
1772905495058600000,9.393599853515624,0.4861326217651367,0.7335086464881897,-0.272420734167099
1772905495068600000,9.40360009765625,-0.03993511199951172,0.7995473742485046,-0.08429358899593353
1772905495078600000,9.413599853515626,-0.5558109283447266,0.8649625182151794,0.1202554702758789
1772905495088600000,9.42360009765625,-1.0733728408813477,0.9121643304824829,0.30392584204673767
1772905495098600000,9.433599853515625,-1.5593047142028809,0.9324775338172913,0.4482160806655884
1772905495108600000,9.44360009765625,-1.9613337516784668,0.9253551959991455,0.5394841432571411
1772905495118600000,9.453599853515625,-2.1939191818237305,0.8926903009414673,0.5756014585494995
1772905495128600000,9.46360009765625,-2.2281622886657715,0.8484429717063904,0.5584056377410889
1772905495138600000,9.473599853515625,-2.1325831413269043,0.7970860600471497,0.5133402943611145
1772905495148600000,9.48360009765625,-2.012195587158203,0.7432101964950562,0.46776366233825684
1772905495158600000,9.493599853515626,-1.919968605041504,0.7083034515380859,0.4412386417388916
1772905495168600000,9.50360009765625,-1.8519902229309082,0.6972088813781738,0.4339235723018646
1772905495178600000,9.513599853515625,-1.7856931686401367,0.6933521032333374,0.43230241537094116
1772905495188600000,9.52360009765625,-1.6749982833862305,0.679381251335144,0.41054514050483704
1772905495198600000,9.533599853515625,-1.464613914489746,0.6410803198814392,0.3359375298023224
1772905495208600000,9.54360009765625,-1.1282682418823242,0.589682400226593,0.19003067910671234
1772905495218600000,9.553599853515625,-0.7606449127197266,0.5579172372817993,0.014968931674957275
1772905495228600000,9.56360009765625,-0.5044078826904297,0.5639727115631104,-0.11824725568294525
1772905495238600000,9.573599853515624,-0.3985576629638672,0.621016800403595,-0.17678195238113403
1772905495248600000,9.58360009765625,-0.38933372497558594,0.713156521320343,-0.18984070420265198
1772905495258600000,9.593599853515625,-0.4162425994873047,0.8216906189918518,-0.21742427349090576
1772905495268600000,9.60360009765625,-0.4573965072631836,0.913161039352417,-0.28354498744010925
1772905495278600000,9.613599853515625,-0.5102834701538086,0.9777005910873413,-0.3890361785888672
1772905495288600000,9.62360009765625,-0.5486440658569336,1.0338637828826904,-0.5295835733413696
1772905495298600000,9.633599853515625,-0.5488595962524414,1.0807983875274658,-0.6843432188034058
1772905495308600000,9.64360009765625,-0.537811279296875,1.1318469047546387,-0.8040052056312561
1772905495318600000,9.653599853515624,-0.5581331253051758,1.2074809074401855,-0.8680918216705322
1772905495328600000,9.66360009765625,-0.6292858123779297,1.3114453554153442,-0.8584617376327515
1772905495338600000,9.673599853515626,-0.7172517776489258,1.4045037031173706,-0.7519915103912354
1772905495358600000,9.693599853515625,-0.8319101333618164,1.4497694969177246,-0.25043541193008423
1772905495368600000,9.70360009765625,-0.8087701797485352,1.3795630931854248,0.04613691568374634
1772905495378600000,9.713599853515625,-0.7536125183105469,1.2344499826431274,0.2830119729042053
1772905495388600000,9.72360009765625,-0.7216110229492188,1.0121119022369385,0.40030285716056824
1772905495398600000,9.733599853515624,-0.7248096466064453,0.7319918870925903,0.3549667298793793
1772905495408600000,9.74360009765625,-0.708125114440918,0.42093729972839355,0.18314439058303833
1772905495418600000,9.753599853515626,-0.6112155914306641,0.11796128749847412,-0.01906988024711609
1772905495428600000,9.76360009765625,-0.44324207305908203,-0.14494526386260986,-0.14115245640277863
1772905495438600000,9.773599853515625,-0.2948427200317383,-0.34766244888305664,-0.12522836029529572
1772905495448600000,9.78360009765625,-0.24718952178955078,-0.48200738430023193,0.019503027200698853
1772905495458600000,9.793599853515625,-0.2783784866333008,-0.5350296497344971,0.22389838099479675
1772905495468600000,9.80360009765625,-0.30167102813720703,-0.5273557901382446,0.4115089774131775
1772905495478600000,9.813599853515624,-0.23272418975830078,-0.4940682649612427,0.5225157737731934
1772905495488600000,9.82360009765625,-0.03304100036621094,-0.4464423656463623,0.528099536895752
1772905495498600000,9.833599853515626,0.2881937026977539,-0.37438392639160156,0.4495106339454651
1772905495508600000,9.84360009765625,0.657292366027832,-0.2681084871292114,0.3270200788974762
1772905495518600000,9.853599853515625,0.9858016967773438,-0.11596405506134033,0.19958648085594177
1772905495528600000,9.86360009765625,1.2067441940307617,0.09356284141540527,0.09306111931800842
1772905495538600000,9.873599853515625,1.3032169342041016,0.3479350805282593,0.04017423093318939
1772905495548600000,9.88360009765625,1.294001579284668,0.622577428817749,0.05939556658267975
1772905495558600000,9.893599853515624,1.2287406921386719,0.8833092451095581,0.14543567597866058
1772905495568600000,9.90360009765625,1.1738471984863281,1.060034990310669,0.2644772231578827
1772905495578600000,9.913599853515626,1.184248924255371,1.1114047765731812,0.40681561827659607
1772905495588600000,9.92360009765625,1.2247543334960938,1.1682007312774658,0.45758116245269775
1772905495598600000,9.933599853515625,1.1964044570922852,1.284088134765625,0.3954298198223114
1772905495608600000,9.94360009765625,0.9837369918823242,1.3888713121414185,0.34040284156799316
1772905495618600000,9.953599853515625,0.4836387634277344,1.4103140830993652,0.37312713265419006
1772905495628600000,9.96360009765625,-0.23182010650634766,1.2762150764465332,0.4316636025905609
1772905495638600000,9.973599853515625,-0.8436794281005859,0.9743305444717407,0.3155401349067688
1772905495648600000,9.98360009765625,-1.0137710571289062,0.5428453683853149,-0.16603635251522064
1772905495658600000,9.993599853515626,-0.6745920181274414,0.05362224578857422,-1.024065613746643
1772905495668600000,10.00360009765625,-0.11811256408691406,-0.3878493309020996,-2.08505916595459
1772905495678600000,10.013599853515625,0.32500743865966797,-0.788541316986084,-3.037679433822632
1772905495688600000,10.02360009765625,0.5919713973999023,-1.2172644138336182,-3.606555938720703
1772905495698600000,10.033599853515625,0.7459259033203125,-1.6223570108413696,-3.734288215637207
1772905495708600000,10.04360009765625,0.8879213333129883,-1.9093410968780518,-3.5455284118652344
1772905495718600000,10.053599853515625,1.0537214279174805,-2.048341751098633,-3.1984949111938477
1772905495728600000,10.06360009765625,1.2018022537231445,-2.089261054992676,-2.8322672843933105
1772905495738600000,10.073599853515624,1.2375679016113281,-2.115624189376831,-2.526120901107788
1772905495748600000,10.08360009765625,1.0761137008666992,-2.1608264446258545,-2.302039623260498
1772905495758600000,10.093599853515625,0.6953277587890625,-2.2105400562286377,-2.134232759475708
1772905495768600000,10.10360009765625,0.16234683990478516,-2.24815034866333,-1.9670095443725586
1772905495778600000,10.113599853515625,-0.40491199493408203,-2.2475318908691406,-1.7578444480895996
1772905495788600000,10.12360009765625,-0.8810062408447266,-2.1850764751434326,-1.4857680797576904
1772905495798600000,10.133599853515625,-1.228804588317871,-2.073284149169922,-1.1131972074508667
1772905495808600000,10.14360009765625,-1.4856691360473633,-1.9175420999526978,-0.6530077457427979
1772905495818600000,10.153599853515624,-1.7231168746948242,-1.7344261407852173,-0.1852848082780838
1772905495828600000,10.16360009765625,-1.9573287963867188,-1.5684828758239746,0.19533461332321167
1772905495838600000,10.173599853515626,-2.1612772941589355,-1.469045639038086,0.43225035071372986
1772905495848600000,10.18360009765625,-2.250642776489258,-1.4567205905914307,0.5115641951560974
1772905495858600000,10.193599853515625,-2.127163887023926,-1.5161833763122559,0.4569717347621918
1772905495868600000,10.20360009765625,-1.7265958786010742,-1.6153374910354614,0.32858383655548096
1772905495878600000,10.213599853515625,-1.085667610168457,-1.719734787940979,0.18828772008419037
1772905495888600000,10.22360009765625,-0.3467550277709961,-1.806993842124939,0.08815917372703552
1772905495898600000,10.233599853515624,0.24520111083984375,-1.874008297920227,0.04199177026748657
1772905495908600000,10.24360009765625,0.513768196105957,-1.9203197956085205,0.03023102879524231
1772905495918600000,10.253599853515626,0.47025012969970703,-1.9463597536087036,0.007204771041870117
1772905495928600000,10.26360009765625,0.29351139068603516,-1.9598029851913452,-0.06052446365356445
1772905495938600000,10.273599853515625,0.15496349334716797,-1.9635636806488037,-0.18922775983810425
1772905495948600000,10.28360009765625,0.16322803497314453,-1.9629933834075928,-0.37716078758239746
1772905495958600000,10.293599853515625,0.3423643112182617,-1.9468119144439697,-0.5867339372634888
1772905495968600000,10.30360009765625,0.6079158782958984,-1.8991389274597168,-0.7675979137420654
1772905495978600000,10.313599853515624,0.8246021270751953,-1.8210251331329346,-0.8784676790237427
1772905495988600000,10.32360009765625,0.8545475006103516,-1.718430519104004,-0.9063327312469482
1772905495998600000,10.333599853515626,0.6598987579345703,-1.5925501585006714,-0.8592785596847534
1772905496008600000,10.34360009765625,0.34810733795166016,-1.434936285018921,-0.759341299533844
1772905496018600000,10.353599853515625,0.09940147399902344,-1.2419325113296509,-0.6162822842597961
1772905496028600000,10.36360009765625,0.060532569885253906,-1.038711667060852,-0.42300260066986084
1772905496038600000,10.373599853515625,0.22049713134765625,-0.8457539677619934,-0.14144450426101685
1772905496048600000,10.38360009765625,0.4515247344970703,-0.6644012928009033,0.21992099285125732
1772905496058600000,10.393599853515624,0.5938034057617188,-0.48629650473594666,0.6001507043838501
1772905496068600000,10.40360009765625,0.6036214828491211,-0.3387502133846283,0.9326764345169067
1772905496078600000,10.413599853515626,0.5816879272460938,-0.22241325676441193,1.1627800464630127
1772905496088600000,10.42360009765625,0.6456527709960938,-0.13759608566761017,1.2690491676330566
1772905496098600000,10.433599853515625,0.8436870574951172,-0.09394042193889618,1.26804780960083
1772905496108600000,10.44360009765625,1.0561895370483398,-0.05304819345474243,1.1926946640014648
1772905496118600000,10.453599853515625,1.0814533233642578,0.02129611372947693,1.121047019958496
1772905496128600000,10.46360009765625,0.8188753128051758,0.1464248150587082,1.1238030195236206
1772905496138600000,10.473599853515625,0.3384532928466797,0.2968003749847412,1.2285927534103394
1772905496148600000,10.48360009765625,-0.20313072204589844,0.4446108043193817,1.4010909795761108
1772905496158600000,10.493599853515626,-0.6448545455932617,0.58121657371521,1.5519864559173584
1772905496168600000,10.50360009765625,-0.9217500686645508,0.6859554648399353,1.6116341352462769
1772905496178600000,10.513599853515625,-1.048055648803711,0.7500352263450623,1.5432825088500977
1772905496188600000,10.52360009765625,-1.081038475036621,0.7717235684394836,1.362863540649414
1772905496198600000,10.533599853515625,-1.1006956100463867,0.7619273066520691,1.131840705871582
1772905496208600000,10.54360009765625,-1.1587657928466797,0.7448523640632629,0.9141265749931335
1772905496218600000,10.553599853515625,-1.2259206771850586,0.7394396662712097,0.7641249895095825
1772905496228600000,10.56360009765625,-1.2302894592285156,0.7597869038581848,0.6932319402694702
1772905496238600000,10.573599853515624,-1.1197633743286133,0.798425018787384,0.6938016414642334
1772905496248600000,10.58360009765625,-0.9265279769897461,0.8359488248825073,0.765373945236206
1772905496258600000,10.593599853515625,-0.7692337036132812,0.8721736073493958,0.8839448690414429
1772905496268600000,10.60360009765625,-0.7355098724365234,0.9117700457572937,1.0089035034179688
1772905496278600000,10.613599853515625,-0.8268251419067383,0.9403139352798462,1.0716766119003296
1772905496288600000,10.62360009765625,-0.9452724456787109,0.9266828894615173,1.0469602346420288
1772905496298600000,10.633599853515625,-0.9650545120239258,0.8701745271682739,0.9455258250236511
1772905496308600000,10.64360009765625,-0.8463954925537109,0.8261685371398926,0.7280319333076477
1772905496318600000,10.653599853515624,-0.6409111022949219,0.759452760219574,0.45821094512939453
1772905496328600000,10.66360009765625,-0.4032001495361328,0.6395715475082397,0.23573459684848785
1772905496338600000,10.673599853515626,-0.17403793334960938,0.5365664958953857,0.07640346884727478
1772905496348600000,10.68360009765625,0.012643814086914062,0.5012229681015015,-0.030445635318756104
1772905496358600000,10.693599853515625,0.10849285125732422,0.5051978826522827,-0.10757681727409363
1772905496368600000,10.70360009765625,0.10358619689941406,0.5176669955253601,-0.1826573610305786
1772905496378600000,10.713599853515625,0.004918098449707031,0.5149411559104919,-0.26914992928504944
1772905496388600000,10.72360009765625,-0.1578359603881836,0.49722474813461304,-0.34283310174942017
1772905496398600000,10.733599853515624,-0.3555021286010742,0.4790199398994446,-0.3514437675476074
1772905496408600000,10.74360009765625,-0.5613241195678711,0.4723942279815674,-0.25969767570495605
1772905496418600000,10.753599853515626,-0.7218265533447266,0.4845704436302185,-0.0779924988746643
1772905496428600000,10.76360009765625,-0.7947635650634766,0.501120388507843,0.12809425592422485
1772905496438600000,10.773599853515625,-0.7849483489990234,0.505154013633728,0.27379316091537476
1772905496448600000,10.78360009765625,-0.6583652496337891,0.4917539358139038,0.2958916425704956
1772905496458600000,10.793599853515625,-0.39532947540283203,0.47039228677749634,0.19823306798934937
1772905496468600000,10.80360009765625,-0.07465171813964844,0.4481438398361206,0.06606787443161011
1772905496478600000,10.813599853515624,0.20290756225585938,0.4392269253730774,-0.012562334537506104
1772905496488600000,10.82360009765625,0.3788328170776367,0.4482353925704956,-0.006284594535827637
1772905496498600000,10.833599853515626,0.47048473358154297,0.4510107636451721,0.0638546347618103
1772905496508600000,10.84360009765625,0.5356950759887695,0.42340511083602905,0.11905229091644287
1772905496518600000,10.853599853515625,0.5915136337280273,0.3389546275138855,0.08980667591094971
1772905496528600000,10.86360009765625,0.6283807754516602,0.1809138059616089,-0.06556397676467896
1772905496538600000,10.873599853515625,0.6412086486816406,-0.043376028537750244,-0.3434300720691681
1772905496548600000,10.88360009765625,0.6655035018920898,-0.30489885807037354,-0.7074872851371765
1772905496558600000,10.893599853515624,0.7345590591430664,-0.5625720620155334,-1.088304042816162
1772905496568600000,10.90360009765625,0.9059410095214844,-0.7561182975769043,-1.4092655181884766
1772905496578600000,10.913599853515626,1.1656627655029297,-0.8397992849349976,-1.6013188362121582
1772905496588600000,10.92360009765625,1.3568801879882812,-0.8160350322723389,-1.5933704376220703
1772905496598600000,10.933599853515625,1.3642969131469727,-0.735103964805603,-1.3571908473968506
1772905496608600000,10.94360009765625,1.2167205810546875,-0.6209549307823181,-0.9815713167190552
1772905496618600000,10.953599853515625,1.067612648010254,-0.4760410189628601,-0.583757758140564
1772905496628600000,10.96360009765625,1.0585527420043945,-0.3388141393661499,-0.18910610675811768
1772905496638600000,10.973599853515625,1.2208547592163086,-0.23825347423553467,0.14389044046401978
1772905496648600000,10.98360009765625,1.4969005584716797,-0.2106391191482544,0.3173638582229614
1772905496658600000,10.993599853515626,1.7807607650756836,-0.3234739303588867,0.257814884185791
1772905496668600000,11.00360009765625,1.9853763580322266,-0.5818608403205872,-0.0436173677444458
1772905496678600000,11.013599853515625,2.085879325866699,-0.9114109873771667,-0.5048815011978149
1772905496688600000,11.02360009765625,2.0263891220092773,-1.1704201698303223,-1.1374492645263672
1772905496698600000,11.033599853515625,1.8086700439453125,-1.375258445739746,-1.8404878377914429
1772905496708600000,11.04360009765625,1.5327939987182617,-1.5519708395004272,-2.4894747734069824
1772905496718600000,11.053599853515625,1.3205108642578125,-1.6860172748565674,-2.9721262454986572
1772905496728600000,11.06360009765625,1.1812639236450195,-1.7533948421478271,-3.2506160736083984
1772905496738600000,11.073599853515624,0.9549579620361328,-1.756537675857544,-3.292229413986206
1772905496748600000,11.08360009765625,0.48218250274658203,-1.7050871849060059,-3.103013277053833
1772905496758600000,11.093599853515625,-0.22571563720703125,-1.5870529413223267,-2.755943775177002
1772905496768600000,11.10360009765625,-0.9939756393432617,-1.4144253730773926,-2.3165950775146484
1772905496778600000,11.113599853515625,-1.6498785018920898,-1.2233017683029175,-1.8190538883209229
1772905496788600000,11.12360009765625,-2.1786303520202637,-1.0376707315444946,-1.2921040058135986
1772905496798600000,11.133599853515625,-2.632599353790283,-0.869388222694397,-0.7615247368812561
1772905496808600000,11.14360009765625,-3.0850019454956055,-0.7205241918563843,-0.2596648335456848
1772905496818600000,11.153599853515624,-3.5737781524658203,-0.607302188873291,0.16254916787147522
1772905496828600000,11.16360009765625,-4.050870895385742,-0.5625399351119995,0.45461514592170715
1772905496838600000,11.173599853515626,-4.4182209968566895,-0.5830607414245605,0.6068301200866699
1772905496848600000,11.18360009765625,-4.535091876983643,-0.622702956199646,0.6211776733398438
1772905496858600000,11.193599853515625,-4.321105003356934,-0.6643707156181335,0.5277697443962097
1772905496868600000,11.20360009765625,-3.8112478256225586,-0.7105780839920044,0.3966310918331146
1772905496878600000,11.213599853515625,-3.1270179748535156,-0.7474908828735352,0.2824799716472626
1772905496888600000,11.22360009765625,-2.404435157775879,-0.7736034393310547,0.1983368992805481
1772905496898600000,11.233599853515624,-1.763646125793457,-0.785324215888977,0.13472631573677063
1772905496908600000,11.24360009765625,-1.2819900512695312,-0.7745158672332764,0.08790601789951324
1772905496918600000,11.253599853515626,-0.9715108871459961,-0.7259902954101562,0.059079140424728394
1772905496928600000,11.26360009765625,-0.7915258407592773,-0.6269605755805969,0.06393688917160034
1772905496938600000,11.273599853515625,-0.7159128189086914,-0.4956434965133667,0.13676604628562927
1772905496948600000,11.28360009765625,-0.7333345413208008,-0.3236163258552551,0.31685757637023926
1772905496958600000,11.293599853515625,-0.8090229034423828,-0.0948023796081543,0.6386250257492065
1772905496968600000,11.30360009765625,-0.8607759475708008,0.20263348519802094,1.097733497619629
1772905496978600000,11.313599853515624,-0.7756404876708984,0.5522983074188232,1.6184415817260742
1772905496988600000,11.32360009765625,-0.4601459503173828,0.8998860120773315,2.072704792022705
1772905496998600000,11.333599853515626,0.08153247833251953,1.1338727474212646,2.3808822631835938
1772905497008600000,11.34360009765625,0.6766605377197266,1.2601126432418823,2.4526522159576416
1772905497018600000,11.353599853515625,1.2190132141113281,1.3431000709533691,2.26467227935791
1772905497028600000,11.36360009765625,1.750504493713379,1.3413382768630981,1.911179780960083
1772905497038600000,11.373599853515625,2.1862945556640625,1.3005506992340088,1.4158592224121094
1772905497048600000,11.38360009765625,2.3774595260620117,1.3023816347122192,0.8247277140617371
1772905497058600000,11.393599853515624,2.3386173248291016,1.3087085485458374,0.26883289217948914
1772905497068600000,11.40360009765625,2.151251792907715,1.2549949884414673,-0.16948151588439941
1772905497078600000,11.413599853515626,1.783609390258789,1.129315733909607,-0.4790966808795929
1772905497088600000,11.42360009765625,1.2454843521118164,0.9628364443778992,-0.6843876838684082
1772905497098600000,11.433599853515625,0.6196489334106445,0.7987133860588074,-0.8001606464385986
1772905497108600000,11.44360009765625,0.023702621459960938,0.6849247217178345,-0.8177170157432556
1772905497118600000,11.453599853515625,-0.4211387634277344,0.6442763805389404,-0.7400611639022827
1772905497128600000,11.46360009765625,-0.6908340454101562,0.6665180921554565,-0.585437536239624
1772905497138600000,11.473599853515625,-0.8468856811523438,0.7089966535568237,-0.3967248797416687
1772905497148600000,11.48360009765625,-0.9625129699707031,0.7287840247154236,-0.2199402153491974
1772905497158600000,11.493599853515626,-1.0750045776367188,0.6995069980621338,-0.09460455179214478
1772905497168600000,11.50360009765625,-1.1897859573364258,0.6209790706634521,-0.03446084260940552
1772905497178600000,11.513599853515625,-1.258575439453125,0.519230842590332,-0.024897843599319458
1772905497188600000,11.52360009765625,-1.2651386260986328,0.4249916672706604,-0.02512410283088684
1772905497198600000,11.533599853515625,-1.2058086395263672,0.359424889087677,0.0033058226108551025
1772905497208600000,11.54360009765625,-1.082657814025879,0.3390504717826843,0.06448253989219666
1772905497218600000,11.553599853515625,-0.9608783721923828,0.3590749502182007,0.14726456999778748
1772905497228600000,11.56360009765625,-0.9135923385620117,0.3958548903465271,0.22589465975761414
1772905497238600000,11.573599853515624,-0.9307098388671875,0.43080461025238037,0.26208770275115967
1772905497248600000,11.58360009765625,-0.9450788497924805,0.4431121349334717,0.2390865683555603
1772905497258600000,11.593599853515625,-0.9137296676635742,0.4335799217224121,0.16341304779052734
1772905497268600000,11.60360009765625,-0.8584527969360352,0.40056872367858887,0.05661490559577942
1772905497278600000,11.613599853515625,-0.8248014450073242,0.35909008979797363,-0.06454843282699585
1772905497288600000,11.62360009765625,-0.8562202453613281,0.32404088973999023,-0.18092334270477295
1772905497298600000,11.633599853515625,-0.953862190246582,0.3029845952987671,-0.2565968930721283
1772905497308600000,11.64360009765625,-1.081106185913086,0.29607534408569336,-0.26655450463294983
1772905497318600000,11.653599853515624,-1.1992712020874023,0.3127368688583374,-0.21671463549137115
1772905497328600000,11.66360009765625,-1.2458610534667969,0.35487043857574463,-0.13878095149993896
1772905497338600000,11.673599853515626,-1.1679649353027344,0.39539897441864014,-0.0686802864074707
1772905497348600000,11.68360009765625,-0.9389753341674805,0.4047287702560425,-0.027224212884902954
1772905497358600000,11.693599853515625,-0.6136131286621094,0.372395396232605,-0.03936532139778137
1772905497368600000,11.70360009765625,-0.33267688751220703,0.2952228784561157,-0.11886577308177948
1772905497378600000,11.713599853515625,-0.22742080688476562,0.1821765899658203,-0.2581517696380615
1772905497388600000,11.72360009765625,-0.3349447250366211,0.06629979610443115,-0.427473247051239
1772905497398600000,11.733599853515624,-0.5432548522949219,-0.014462471008300781,-0.5698951482772827
1772905497408600000,11.74360009765625,-0.6824274063110352,-0.0364001989364624,-0.6442269086837769
1772905497418600000,11.753599853515626,-0.625575065612793,-0.009144783020019531,-0.6355032920837402
1772905497428600000,11.76360009765625,-0.34911155700683594,0.050695061683654785,-0.5670166015625
1772905497438600000,11.773599853515625,0.045533180236816406,0.11469841003417969,-0.4602307081222534
1772905497448600000,11.78360009765625,0.3965940475463867,0.14255619049072266,-0.3350379168987274
1772905497458600000,11.793599853515625,0.5848598480224609,0.12031054496765137,-0.2161029577255249
1772905497468600000,11.80360009765625,0.5841665267944336,0.07941222190856934,-0.12318235635757446
1772905497478600000,11.813599853515624,0.4612579345703125,0.053565144538879395,-0.05666746199131012
1772905497488600000,11.82360009765625,0.3282909393310547,0.07155239582061768,-0.02954888343811035
1772905497498600000,11.833599853515626,0.2757587432861328,0.140519380569458,-0.043695077300071716
1772905497508600000,11.84360009765625,0.3127422332763672,0.24840772151947021,-0.0852300375699997
1772905497518600000,11.853599853515625,0.3910989761352539,0.3735455274581909,-0.12362909317016602
1772905497528600000,11.86360009765625,0.43683815002441406,0.5014067888259888,-0.13024568557739258
1772905497538600000,11.873599853515625,0.3669767379760742,0.6198172569274902,-0.08779032528400421
1772905497548600000,11.88360009765625,0.19718074798583984,0.7285078763961792,0.004274994134902954
1772905497558600000,11.893599853515624,0.032149314880371094,0.8438844680786133,0.12241363525390625
1772905497568600000,11.90360009765625,-0.0160980224609375,0.9559541940689087,0.21418175101280212
1772905497578600000,11.913599853515626,0.061781883239746094,1.0092332363128662,0.2796192765235901
1772905497588600000,11.92360009765625,0.23195457458496094,1.0033595561981201,0.3186114430427551
1772905497598600000,11.933599853515625,0.384033203125,1.052931308746338,0.25193893909454346
1772905497608600000,11.94360009765625,0.41016101837158203,1.1600219011306763,0.12004868686199188
1772905497618600000,11.953599853515625,0.32469654083251953,1.2524713277816772,0.03518956899642944
1772905497628600000,11.96360009765625,0.228179931640625,1.3083850145339966,0.05239957571029663
1772905497638600000,11.973599853515625,0.21860694885253906,1.3465737104415894,0.17020028829574585
1772905497648600000,11.98360009765625,0.19034671783447266,1.4122161865234375,0.34230130910873413
1772905497658600000,11.993599853515626,-0.04113578796386719,1.5002849102020264,0.4315624535083771
1772905497668600000,12.00360009765625,-0.4134483337402344,1.514880657196045,0.3489709496498108
1772905497678600000,12.013599853515625,-0.6723117828369141,1.400917887687683,0.13750872015953064
1772905497688600000,12.02360009765625,-0.6710138320922852,1.1201876401901245,-0.054220207035541534
1772905497708600000,12.04360009765625,0.31353759765625,0.27774667739868164,-0.42726385593414307
1772905497718600000,12.053599853515625,1.1625843048095703,-0.15806686878204346,-0.8108946084976196
1772905497728600000,12.06360009765625,2.0370540618896484,-0.6213668584823608,-1.2401509284973145
1772905497738600000,12.073599853515624,2.736906051635742,-1.0796468257904053,-1.5748616456985474
1772905497748600000,12.08360009765625,3.090813636779785,-1.4714324474334717,-1.723784327507019
1772905497758600000,12.093599853515625,2.96840763092041,-1.7470382452011108,-1.6459521055221558
1772905497768600000,12.10360009765625,2.3492355346679688,-1.9022079706192017,-1.372291088104248
1772905497778600000,12.113599853515625,1.392287254333496,-1.9818583726882935,-1.0272257328033447
1772905497788600000,12.12360009765625,0.35247230529785156,-2.033635377883911,-0.7400916814804077
1772905497798600000,12.133599853515625,-0.5502862930297852,-2.0670573711395264,-0.5780524015426636
1772905497808600000,12.14360009765625,-1.1457242965698242,-2.082296133041382,-0.543730616569519
1772905497818600000,12.153599853515624,-1.413844108581543,-2.0749783515930176,-0.5777006149291992
1772905497828600000,12.16360009765625,-1.4466657638549805,-2.026625633239746,-0.6203250885009766
1772905497838600000,12.173599853515626,-1.396794319152832,-1.9429587125778198,-0.6422625184059143
1772905497848600000,12.18360009765625,-1.399831771850586,-1.8299325704574585,-0.647260308265686
1772905497858600000,12.193599853515625,-1.5044317245483398,-1.6960821151733398,-0.644037663936615
1772905497868600000,12.20360009765625,-1.6640739440917969,-1.5559885501861572,-0.6200266480445862
1772905497878600000,12.213599853515625,-1.8084321022033691,-1.4324226379394531,-0.5724497437477112
1772905497888600000,12.22360009765625,-1.9057374000549316,-1.343229055404663,-0.49147355556488037
1772905497898600000,12.233599853515624,-1.9557466506958008,-1.289595365524292,-0.36976873874664307
1772905497908600000,12.24360009765625,-1.95634126663208,-1.234534740447998,-0.20733433961868286
1772905497918600000,12.253599853515626,-1.8652687072753906,-1.1460520029067993,-0.013902857899665833
1772905497928600000,12.26360009765625,-1.6910648345947266,-1.021093726158142,0.20735186338424683
1772905497938600000,12.273599853515625,-1.4713544845581055,-0.8783389329910278,0.4262309968471527
1772905497948600000,12.28360009765625,-1.2498693466186523,-0.7390199899673462,0.5886266231536865
1772905497958600000,12.293599853515625,-1.0519819259643555,-0.6340736150741577,0.6574896574020386
1772905497968600000,12.30360009765625,-0.8621311187744141,-0.5694237947463989,0.6249219179153442
1772905497978600000,12.313599853515624,-0.6818485260009766,-0.5296633243560791,0.5216724872589111
1772905497988600000,12.32360009765625,-0.5250215530395508,-0.5017117261886597,0.3882102370262146
1772905497998600000,12.333599853515626,-0.4226722717285156,-0.47003674507141113,0.2673971951007843
1772905498008600000,12.34360009765625,-0.3917379379272461,-0.42862164974212646,0.19294394552707672
1772905498018600000,12.353599853515625,-0.4325370788574219,-0.3785446882247925,0.17869657278060913
1772905498028600000,12.36360009765625,-0.5022697448730469,-0.3160642385482788,0.21767908334732056
1772905498038600000,12.373599853515625,-0.5388040542602539,-0.25660884380340576,0.2888179421424866
1772905498048600000,12.38360009765625,-0.47136592864990234,-0.21322274208068848,0.35200056433677673
1772905498058600000,12.393599853515624,-0.26033878326416016,-0.19178354740142822,0.35038524866104126
1772905498068600000,12.40360009765625,0.04580879211425781,-0.2061179280281067,0.27500107884407043
1772905498078600000,12.413599853515626,0.32718467712402344,-0.2424325942993164,0.14319442212581635
1772905498088600000,12.42360009765625,0.4594907760620117,-0.28380918502807617,-0.006126627326011658
1772905498098600000,12.433599853515625,0.39531707763671875,-0.30595260858535767,-0.13400991261005402
1772905498108600000,12.44360009765625,0.20702457427978516,-0.28919297456741333,-0.19953155517578125
1772905498118600000,12.453599853515625,0.021877288818359375,-0.2472246289253235,-0.17543599009513855
1772905498128600000,12.46360009765625,-0.0021486282348632812,-0.2246628999710083,-0.07109333574771881
1772905498138600000,12.473599853515625,0.1941823959350586,-0.19649481773376465,0.022504795342683792
1772905498148600000,12.48360009765625,0.4565868377685547,-0.13278591632843018,0.019090354442596436
1772905498158600000,12.493599853515626,0.6168365478515625,-0.07771730422973633,-0.08861909806728363
1772905498168600000,12.50360009765625,0.6096696853637695,-0.069912850856781,-0.25045913457870483
1772905498178600000,12.513599853515625,0.48009586334228516,-0.10884475708007812,-0.3781927824020386
1772905498188600000,12.52360009765625,0.3379383087158203,-0.15159916877746582,-0.40301313996315
1772905498198600000,12.533599853515625,0.2884035110473633,-0.1338667869567871,-0.3039304316043854
1772905498208600000,12.54360009765625,0.3602867126464844,-0.034523725509643555,-0.09572511911392212
1772905498218600000,12.553599853515625,0.5155868530273438,0.10766041278839111,0.16389739513397217
1772905498228600000,12.56360009765625,0.6568088531494141,0.22037184238433838,0.39821791648864746
1772905498238600000,12.573599853515624,0.6941003799438477,0.24806201457977295,0.5329602956771851
1772905498248600000,12.58360009765625,0.5953388214111328,0.1926790475845337,0.536882221698761
1772905498258600000,12.593599853515625,0.4019632339477539,0.10175716876983643,0.41931986808776855
1772905498268600000,12.60360009765625,0.2509012222290039,0.03518486022949219,0.22560527920722961
1772905498278600000,12.613599853515625,0.2667045593261719,0.00045883655548095703,0.027792103588581085
1772905498288600000,12.62360009765625,0.45619964599609375,-0.023726224899291992,-0.12583038210868835
1772905498298600000,12.633599853515625,0.7110748291015625,-0.05638682842254639,-0.22062943875789642
1772905498308600000,12.64360009765625,0.8847122192382812,-0.08073979616165161,-0.25410306453704834
1772905498318600000,12.653599853515624,0.8809356689453125,-0.08009666204452515,-0.23346678912639618
1772905498328600000,12.66360009765625,0.6970930099487305,-0.06653517484664917,-0.17149323225021362
1772905498338600000,12.673599853515626,0.428680419921875,-0.047322869300842285,-0.09324242174625397
1772905498348600000,12.68360009765625,0.18303489685058594,-0.051246821880340576,-0.008154422044754028
1772905498358600000,12.693599853515625,-0.023588180541992188,-0.10955584049224854,0.057534411549568176
1772905498368600000,12.70360009765625,-0.22747802734375,-0.22105908393859863,0.04621652513742447
1772905498378600000,12.713599853515625,-0.4549398422241211,-0.34568434953689575,-0.06646934151649475
1772905498388600000,12.72360009765625,-0.7006568908691406,-0.44286996126174927,-0.24975796043872833
1772905498398600000,12.733599853515624,-0.8991241455078125,-0.49103909730911255,-0.4464111626148224
1772905498408600000,12.74360009765625,-0.9518184661865234,-0.48526686429977417,-0.5822855830192566
1772905498418600000,12.753599853515626,-0.85150146484375,-0.43745309114456177,-0.6094642877578735
1772905498428600000,12.76360009765625,-0.6796493530273438,-0.35946208238601685,-0.5151747465133667
1772905498438600000,12.773599853515625,-0.5752525329589844,-0.26557421684265137,-0.3294234275817871
1772905498448600000,12.78360009765625,-0.6317787170410156,-0.1605210304260254,-0.1265672892332077
1772905498458600000,12.793599853515625,-0.8444814682006836,-0.04423636198043823,0.04062141850590706
1772905498468600000,12.80360009765625,-1.1009101867675781,0.08892250061035156,0.1481318175792694
1772905498478600000,12.813599853515624,-1.248112678527832,0.23208725452423096,0.1983032077550888
1772905498488600000,12.82360009765625,-1.1693229675292969,0.3636075258255005,0.20306065678596497
1772905498498600000,12.833599853515626,-0.8791399002075195,0.44983768463134766,0.17913462221622467
1772905498508600000,12.84360009765625,-0.4850149154663086,0.48364293575286865,0.1481008678674698
1772905498518600000,12.853599853515625,-0.12074947357177734,0.49395740032196045,0.11483163386583328
1772905498528600000,12.86360009765625,0.10607433319091797,0.5121105909347534,0.09141571819782257
