time,seconds_elapsed,z,y,x
1772905486158600000,0.493599853515625,0,0.0045938328839838505,-0.0043095797300338745
1772905486178600000,0.513599853515625,-0.0025859607849270105,0.0030629101675003767,-0.002872343407943845
1772905486188600000,0.52360009765625,0.002650902606546879,0.0022963841911405325,-0.0021547898650169373
1772905486198600000,0.533599853515625,0.0026636780239641666,0.0015309228328987956,-0.0014361717039719224
1772905486208600000,0.54360009765625,0.0026061884127557278,0.0007654614164493978,-0.0007186181610450149
1772905486218600000,0.553599853515625,0.002616834593936801,0.005147435236722231,0.005030327010899782
1772905486228600000,0.56360009765625,0.002745653735473752,-0.005437011830508709,-0.005099527537822723
1772905486238600000,0.573599853515625,-0.002695616567507386,0.0053710052743554115,0.005228346213698387
1772905486248600000,0.58360009765625,0.002633868483826518,0.005441270302981138,-0.005254961550235748
1772905486258600000,0.593599853515625,0.0027190381661057472,-0.00509207509458065,0.005219829268753529
1772905486268600000,0.60360009765625,-0.0025348588824272156,-0.005069717764854431,-0.005132530350238085
1772905486278600000,0.613599853515625,-0.002641320927068591,-0.0051751150749623775,-0.005396556109189987
1772905486288600000,0.62360009765625,0.0026636780239641666,-0.005019681062549353,0.0053145806305110455
1772905486298600000,0.633599853515625,0.0026732594706118107,-0.005050554871559143,0.005055877845734358
1772905486308600000,0.64360009765625,0.0026285455096513033,0.00531990360468626,-0.005298611242324114
1772905486318600000,0.653599853515625,0.002564668422564864,-0.00537313474342227,0.005407202523201704
1772905486328600000,0.66360009765625,-0.0026966810692101717,-0.005050554871559143,0.005082493182271719
1772905486338600000,0.673599853515625,0.0026466441340744495,0.0051932139322161674,-0.005105915013700724
1772905486348600000,0.68360009765625,0.002655161079019308,-0.00528902979567647,-0.005192149430513382
1772905486358600000,0.693599853515625,-0.0026828411500900984,-0.005133595317602158,0.005027133040130138
1772905486368600000,0.70360009765625,0.0025284711737185717,0.005101656541228294,-0.005451916251331568
1772905486378600000,0.713599853515625,-0.002594477729871869,0.0053986855782568455,0.005093139596283436
1772905486388600000,0.72360009765625,0.0025657329242676497,-0.0051953429356217384,-0.005137853790074587
1772905486398600000,0.733599853515625,-0.0027126504573971033,-0.005030327010899782,0.005119754932820797
1772905486408600000,0.74360009765625,-0.002554022241383791,-0.004734362941235304,0.004812079947441816
1772905486418600000,0.753599853515625,-0.0023975230287760496,-0.004734362941235304,0.00450334046036005
1772905486428600000,0.76360009765625,-0.0022388948127627373,-0.004735427442938089,0.0041977944783866405
1772905486438600000,0.773599853515625,-0.002082395600154996,-0.004746073856949806,0.00389011949300766
1772905486448600000,0.78360009765625,-0.0019280258566141129,-0.004748202860355377,0.0035877677146345377
1772905486458600000,0.793599853515625,-0.0017693975241854787,-0.0047524613328278065,0.0032768987584859133
1772905486468600000,0.80360009765625,-0.0016118339262902737,-0.004763107746839523,0.002966029802337289
1772905486478600000,0.813599853515625,-0.0014521409757435322,-0.004773753695189953,0.0026658072602003813
1772905486488600000,0.82360009765625,-0.001293512643314898,-0.004773753695189953,0.00236558448523283
1772905486498600000,0.833599853515625,-0.001139142899774015,-0.00478014163672924,0.002066426444798708
1772905486508600000,0.84360009765625,-0.0009783853311091661,-0.004787593614310026,0.0017651390517130494
1772905486518600000,0.853599853515625,-0.000819756998680532,-0.004793981555849314,0.0014595933025702834
1772905486528600000,0.86360009765625,-0.000662193342577666,-0.0047971755266189575,0.001159370644018054
1772905486538600000,0.873599853515625,-0.0005088881007395685,-0.004800369031727314,0.0008527602185495198
1772905486548600000,0.88360009765625,-0.0003555829171091318,-0.004803563002496958,0.0005546667380258441
1772905486558600000,0.893599853515625,-0.00035238906275480986,-0.0048067569732666016,0.0005557313561439514
1772905486568600000,0.90360009765625,0.000059618691011564806,-0.004534214269369841,-0.0014925964642316103
1772905486578600000,0.913599853515625,0.001497919554822147,-0.005783013068139553,-0.0008580833091400564
1772905486588600000,0.92360009765625,-0.0005237928126007318,-0.00798358116298914,0.00023421629157382995
1772905486598600000,0.933599853515625,-0.0009858376579359174,-0.0033759083598852158,-0.008183729834854603
1772905486608600000,0.94360009765625,-0.0016448370879516006,-0.004295739810913801,-0.007152113597840071
1772905486618600000,0.953599853515625,-0.001397845335304737,-0.00399871077388525,-0.004375586286187172
1772905486628600000,0.96360009765625,-0.004577863961458206,-0.003692100290209055,-0.002258057938888669
1772905486638600000,0.973599853515625,-0.007042457815259695,-0.003387619275599718,-0.005020745564252138
1772905486648600000,0.98360009765625,-0.009108884260058403,-0.0030820732936263084,-0.003524955129250884
1772905486658600000,0.993599853515625,-0.00930477399379015,-0.0027775922790169716,-0.010786724276840687
1772905486668600000,1.00360009765625,-0.01069729682058096,-0.002480563474819064,-0.011716137640178204
1772905486678600000,1.013599853515625,-0.011192345060408115,-0.0021792759653180838,-0.016994521021842957
1772905486688600000,1.02360009765625,-0.0144681790843606,-0.0018694718601182103,-0.01591925509274006
1772905486698600000,1.033599853515625,-0.017115887254476547,-0.0015617967583239079,-0.015086722560226917
1772905486708600000,1.04360009765625,-0.022467728704214096,-0.0012551863910630345,-0.0127019751816988
1772905486718600000,1.053599853515625,-0.02670598030090332,-0.0009517698199488223,-0.015246415510773659
1772905486728600000,1.06360009765625,-0.028665944933891296,-0.00064835324883461,-0.006443077232688665
1772905486738600000,1.073599853515625,-0.03251028433442116,-0.00034919517929665744,-0.003796433098614216
1772905486748600000,1.08360009765625,-0.03619919344782829,-0.00033748437999747694,-0.003500468796119094
1772905486758600000,1.093599853515625,-0.04096336290240288,-0.00003726168142748065,-0.0000883634202182293
1772905486768600000,1.10360009765625,-0.041363660246133804,0.00025976714096032083,-0.0005163404275663197
1772905486778600000,1.113599853515625,-0.040981464087963104,0.00027360720559954643,0.0004982419195584953
1772905486788600000,1.12360009765625,-0.03946438059210777,0.0005706360680051148,0.001327580539509654
1772905486798600000,1.133599853515625,-0.038704242557287216,0.0005685068317689002,0.005197472404688597
1772905486808600000,1.14360009765625,-0.03723825886845589,0.0005791530129499733,0.006850826554000378
1772905486818600000,1.153599853515625,-0.03743840754032135,0.000578088394831866,0.011687392368912697
1772905486828600000,1.16360009765625,-0.03499191254377365,0.0005717006861232221,0.012245253659784794
1772905486838600000,1.173599853515625,-0.03158087283372879,0.0005759591585956514,0.011921608820557594
1772905486848600000,1.18360009765625,-0.027707787230610847,0.0005695714498870075,0.012709427624940872
1772905486858600000,1.193599853515625,-0.025187833234667778,0.0005759591585956514,0.016634680330753326
1772905486868600000,1.20360009765625,-0.020516281947493553,0.0005738299223594368,0.01683376356959343
1772905486878600000,1.213599853515625,-0.015592416748404503,0.0005759591585956514,0.020285259932279587
1772905486888600000,1.22360009765625,-0.012254835106432438,0.0005663775373250246,0.021198702976107597
1772905486898600000,1.233599853515625,-0.010552508756518364,0.000561054446734488,0.02101665362715721
1772905486908600000,1.24360009765625,-0.010886798612773418,0.0019227027660235763,0.021980132907629013
1772905486918600000,1.253599853515625,-0.013952902518212795,0.003916735295206308,0.021529799327254295
1772905486928600000,1.26360009765625,-0.013437626883387566,0.006906186696141958,0.019350523129105568
1772905486938600000,1.273599853515625,-0.016782661899924278,0.0006334485951811075,0.021939678117632866
1772905486948600000,1.28360009765625,-0.01954854279756546,0.00032364431535825133,0.018695782870054245
1772905486958600000,1.293599853515625,-0.022852057591080666,0.000015969291780493222,0.011160406284034252
1772905486968600000,1.30360009765625,-0.0230798851698637,-0.00029277036082930863,0.007871796377003193
1772905486978600000,1.313599853515625,-0.025846831500530243,-0.0006100269383750856,0.008679842576384544
1772905486988600000,1.32360009765625,-0.02706262655556202,-0.0009166373638436198,0.010119208134710789
1772905486998600000,1.333599853515625,-0.02936752885580063,-0.0012275063199922442,0.006088559050112963
1772905487008600000,1.34360009765625,-0.03537198156118393,-0.0015351813053712249,0.0013190635945647955
1772905487018600000,1.353599853515625,-0.03975076228380203,-0.0018417916726320982,-0.00546362716704607
1772905487028600000,1.36360009765625,-0.04186616092920303,-0.001918444293551147,-0.010845278389751911
1772905487038600000,1.373599853515625,-0.040356531739234924,-0.002234636340290308,-0.015255996957421303
1772905487048600000,1.38360009765625,-0.038725532591342926,-0.0025455052964389324,-0.015787241980433464
1772905487058600000,1.393599853515625,-0.03731491416692734,-0.0028276294469833374,-0.017210638150572777
1772905487068600000,1.40360009765625,-0.040023304522037506,-0.0028265647124499083,-0.01805594563484192
1772905487078600000,1.413599853515625,-0.0398700013756752,-0.002829758683219552,-0.02322467416524887
1772905487088600000,1.42360009765625,-0.038506221026182175,-0.0028414693661034107,-0.02156493254005909
1772905487098600000,1.433599853515625,-0.0337633416056633,-0.0028446633368730545,-0.020592935383319855
1772905487108600000,1.44360009765625,-0.034789636731147766,-0.0031470151152461767,-0.014767336659133434
1772905487118600000,1.453599853515625,-0.03602246567606926,-0.00284253410063684,-0.017391623929142952
1772905487128600000,1.46360009765625,-0.040358658879995346,-0.002836146391928196,-0.012678553350269794
1772905487138600000,1.473599853515625,-0.04212060570716858,-0.0025242127012461424,-0.016658101230859756
1772905487148600000,1.48360009765625,-0.044561777263879776,-0.0022250546608120203,-0.01266684290021658
1772905487158600000,1.493599853515625,0,-0.0019077981123700738,-0.014753497205674648
1772905487168600000,1.50360009765625,-0.00016608064470347017,0.004294674843549728,0.0027999491430819035
1772905487178600000,1.513599853515625,-0.004421364516019821,0.004035972524434328,0.0061311437748372555
1772905487188600000,1.52360009765625,-0.0077195558696985245,0.005647806450724602,0.0037549128755927086
1772905487198600000,1.533599853515625,-0.006176922004669905,0.005803240928798914,0.0035153734497725964
1772905487208600000,1.54360009765625,-0.005340131465345621,0.005953351967036724,0.009771077893674374
1772905487218600000,1.553599853515625,-0.004385167732834816,0.006106657441705465,0.01401252206414938
1772905487228600000,1.56360009765625,-0.004658774938434362,0.006265285424888134,0.01827419362962246
1772905487238600000,1.573599853515625,-0.0074001699686050415,0.006421784870326519,0.021656488999724388
1772905487248600000,1.58360009765625,-0.010152211412787437,0.006569766905158758,0.024234997108578682
1772905487258600000,1.593599853515625,-0.01138291135430336,0.006719877943396568,0.02320125326514244
1772905487268600000,1.60360009765625,-0.013432304374873638,0.006881700363010168,0.02502175234258175
1772905487278600000,1.613599853515625,-0.017250029370188713,0.0070318118669092655,0.030109567567706108
1772905487288600000,1.62360009765625,-0.018234802410006523,0.007179793901741505,0.029086468741297722
1772905487298600000,1.633599853515625,-0.019947774708271027,0.007338421884924173,0.03296594321727753
1772905487308600000,1.64360009765625,-0.023888995870947838,0.007487468887120485,0.03326297178864479
1772905487318600000,1.653599853515625,-0.02579253539443016,0.0056084152311086655,0.01451928075402975
1772905487328600000,1.66360009765625,-0.026601646095514297,0.00650163134559989,0.015212347730994225
1772905487338600000,1.673599853515625,-0.03242085874080658,0.0074076224118471146,0.01656867377460003
1772905487348600000,1.68360009765625,-0.03835291787981987,0.009419753216207027,0.013367362320423126
1772905487358600000,1.693599853515625,-0.04211528226733208,0.03981676697731018,0.04182570427656174
1772905487368600000,1.70360009765625,-0.0452016144990921,0.03961768373847008,0.041823577135801315
1772905487378600000,1.713599853515625,-0.050827063620090485,0.047008272260427475,0.03763642907142639
1772905487388600000,1.72360009765625,-0.053903814405202866,0.05292542651295662,0.029027914628386497
1772905487398600000,1.733599853515625,-0.057550135999917984,0.05108576640486717,0.035436924546957016
1772905487408600000,1.74360009765625,-0.06075570359826088,0.05532827600836754,0.030241580680012703
1772905487418600000,1.753599853515625,-0.06343002617359161,0.05297333747148514,0.023958196863532066
1772905487428600000,1.76360009765625,-0.06667818129062653,0.05151374265551567,0.025341138243675232
1772905487438600000,1.773599853515625,-0.06966124475002289,0.050968658179044724,0.027213802561163902
1772905487448600000,1.78360009765625,-0.07208751142024994,0.04950267821550369,0.029118407517671585
1772905487458600000,1.793599853515625,-0.0751674622297287,0.0444372184574604,0.03297020122408867
1772905487468600000,1.80360009765625,-0.07538677006959915,0.04522610083222389,0.03376759961247444
1772905487478600000,1.813599853515625,-0.07180538773536682,0.04137430712580681,0.039088569581508636
1772905487488600000,1.82360009765625,-0.0693514421582222,0.03526126220822334,0.04964320734143257
1772905487498600000,1.833599853515625,-0.0670987069606781,0.025851089507341385,0.05583929270505905
1772905487508600000,1.84360009765625,-0.06429662555456161,0.01367503684014082,0.05640140920877457
1772905487518600000,1.853599853515625,-0.05447551608085632,0.0004343647451605648,0.015859635546803474
1772905487528600000,1.86360009765625,-0.047779057174921036,-0.003478111932054162,0.01981363259255886
1772905487538600000,1.873599853515625,-0.044604361057281494,-0.014190313406288624,0.04366111010313034
1772905487548600000,1.88360009765625,-0.04215360805392265,-0.02382086031138897,0.04360787943005562
1772905487558600000,1.893599853515625,-0.041937489062547684,-0.027846187353134155,0.04678257554769516
1772905487568600000,1.90360009765625,-0.039657074958086014,-0.032959554344415665,0.04651748389005661
1772905487578600000,1.913599853515625,-0.03277644142508507,-0.039064083248376846,0.045163288712501526
1772905487588600000,1.92360009765625,-0.02572120726108551,-0.0466335266828537,0.050729118287563324
1772905487598600000,1.933599853515625,-0.022342104464769363,-0.052294109016656876,0.06550391018390656
1772905487608600000,1.94360009765625,-0.020480085164308548,-0.06179370731115341,0.07172341644763947
1772905487618600000,1.953599853515625,-0.017905835062265396,-0.019780630245804787,0.07228659838438034
1772905487628600000,1.96360009765625,-0.017258547246456146,-0.022063173353672028,0.08245264738798141
1772905487638600000,1.973599853515625,-0.01627909578382969,-0.022854186594486237,0.08403893560171127
1772905487648600000,1.98360009765625,-0.014412818476557732,-0.04895120486617088,0.09286250174045563
1772905487658600000,1.993599853515625,-0.014269094914197922,-0.05338960140943527,0.10971222817897797
1772905487668600000,2.00360009765625,-0.016296129673719406,-0.05572963505983353,0.059927430003881454
1772905487678600000,2.013599853515625,-0.013875185512006283,-0.05484387278556824,0.06155629828572273
1772905487688600000,2.02360009765625,-0.010540797375142574,-0.057915300130844116,0.06969531625509262
1772905487698600000,2.033599853515625,-0.011666100472211838,-0.06432537734508514,0.07508761435747147
1772905487708600000,2.04360009765625,-0.0139635493978858,-0.06414545327425003,0.07664088904857635
1772905487718600000,2.053599853515625,-0.014508633874356747,-0.06652061641216278,0.0823642835021019
1772905487728600000,2.06360009765625,-0.016651714220643044,-0.0707130879163742,0.08672071248292923
1772905487738600000,2.073599853515625,-0.018481794744729996,-0.07068540900945663,0.08391863107681274
1772905487748600000,2.08360009765625,-0.02089102752506733,-0.0712677538394928,0.0860084816813469
1772905487758600000,2.093599853515625,-0.023910289630293846,-0.07077910006046295,0.08805148303508759
1772905487768600000,2.10360009765625,-0.02631739340722561,-0.06893304735422134,0.08696344494819641
1772905487778600000,2.113599853515625,-0.030094662681221962,-0.069943368434906,0.08850713819265366
1772905487788600000,2.12360009765625,-0.03292867913842201,-0.07131140679121017,0.08570399880409241
1772905487798600000,2.133599853515625,-0.036420632153749466,-0.03549547865986824,0.08338738232851028
1772905487808600000,2.14360009765625,-0.042683787643909454,-0.03657606616616249,0.079912468791008
1772905487818600000,2.153599853515625,-0.053230974823236465,-0.03871701657772064,0.07620865851640701
1772905487828600000,2.16360009765625,-0.06227065995335579,-0.037428826093673706,0.06896498799324036
1772905487838600000,2.173599853515625,-0.06898095458745956,-0.03459800407290459,0.06231643632054329
1772905487848600000,2.18360009765625,-0.0768144279718399,-0.032770052552223206,0.05811970680952072
1772905487858600000,2.193599853515625,-0.09172016382217407,-0.029304716736078262,0.05314367637038231
1772905487868600000,2.20360009765625,-0.10244514048099518,-0.023116081953048706,0.0426018126308918
1772905487878600000,2.213599853515625,-0.11164557933807373,-0.06002005189657211,0.11555912345647812
1772905487888600000,2.22360009765625,-0.12195322662591934,-0.05210673436522484,0.0832010805606842
1772905487898600000,2.233599853515625,-0.13571768999099731,-0.048812802881002426,0.0404970608651638
1772905487908600000,2.24360009765625,-0.14873266220092773,-0.044634170830249786,-0.004621513187885284
1772905487918600000,2.253599853515625,-0.16413983702659607,-0.03965068981051445,-0.02870001271367073
1772905487928600000,2.26360009765625,-0.18125785887241364,-0.033484410494565964,-0.05931953340768814
1772905487938600000,2.273599853515625,-0.196508526802063,-0.028882062062621117,-0.09814833104610443
1772905487948600000,2.28360009765625,-0.20780840516090393,-0.02117954008281231,-0.12852086126804352
1772905487958600000,2.293599853515625,-0.21619334816932678,-0.018364686518907547,-0.15489894151687622
1772905487968600000,2.30360009765625,-0.22546298801898956,-0.012280385941267014,-0.18114499747753143
1772905487978600000,2.313599853515625,-0.23375211656093597,-0.010488631203770638,-0.2010001540184021
1772905487988600000,2.32360009765625,-0.23778702318668365,-0.006482467986643314,-0.22457508742809296
1772905487998600000,2.333599853515625,-0.23564819991588593,-0.008503115735948086,-0.24720251560211182
1772905488008600000,2.34360009765625,-0.23469962179660797,-0.007975064218044281,-0.42461708188056946
1772905488018600000,2.353599853515625,-0.23366481065750122,-0.0069817746989429,-0.13351605832576752
1772905488028600000,2.36360009765625,-0.23306436836719513,-0.009842406958341599,-0.1360977590084076
1772905488038600000,2.373599853515625,-0.2275294065475464,-0.011956741102039814,-0.1366598755121231
1772905488048600000,2.38360009765625,-0.2221573442220688,-0.013972066342830658,-0.13264094293117523
1772905488058600000,2.393599853515625,-0.21558330953121185,-0.017108434811234474,-0.1302572637796402
1772905488068600000,2.40360009765625,-0.20803090929985046,-0.018519055098295212,-0.1262606829404831
1772905488078600000,2.413599853515625,-0.1996459662914276,-0.02024586871266365,-0.11976224184036255
1772905488088600000,2.42360009765625,-0.19365109503269196,-0.02269555814564228,-0.11488841474056244
1772905488098600000,2.433599853515625,-0.18945755064487457,-0.021266838535666466,-0.1125238910317421
1772905488108600000,2.44360009765625,-0.18532364070415497,-0.021575577557086945,-0.11050750315189362
1772905488118600000,2.453599853515625,-0.1809544414281845,-0.020513087511062622,-0.11171584576368332
1772905488128600000,2.46360009765625,-0.1792510449886322,-0.01854141242802143,-0.109786756336689
1772905488138600000,2.473599853515625,-0.17914564907550812,-0.016827374696731567,-0.10862738639116287
1772905488148600000,2.48360009765625,-0.17952145636081696,-0.014584221877157688,-0.1080801710486412
1772905488158600000,2.493599853515625,-0.179315984249115,-0.010654712095856667,-0.10852731019258499
1772905488168600000,2.50360009765625,-0.1796385645866394,-0.009208958595991135,-0.10638103634119034
1772905488178600000,2.513599853515625,-0.17900405824184418,-0.007040328811854124,-0.10216940194368362
1772905488188600000,2.52360009765625,-0.1787911355495453,-0.006821017246693373,-0.09785343706607819
1772905488198600000,2.533599853515625,-0.17507986724376678,-0.005778754595667124,-0.0947713628411293
1772905488208600000,2.54360009765625,-0.174180269241333,-0.00672520138323307,-0.0854591354727745
1772905488218600000,2.553599853515625,-0.17549294233322144,-0.00580643443390727,-0.07715722918510437
1772905488228600000,2.56360009765625,-0.17429843544960022,-0.0021643713116645813,-0.06722646206617355
1772905488238600000,2.573599853515625,-0.1673901230096817,0.0013957160990685225,-0.052342016249895096
1772905488248600000,2.58360009765625,-0.16323703527450562,0.006334485951811075,-0.03571691736578941
1772905488258600000,2.593599853515625,-0.15673434734344482,0.013001132756471634,-0.019851960241794586
1772905488268600000,2.60360009765625,-0.14914041757583618,0.0179164819419384,-0.0024443662259727716
1772905488278600000,2.613599853515625,-0.14244608581066132,0.023331135511398315,0.011969516985118389
1772905488288600000,2.62360009765625,-0.13722412288188934,0.02872130461037159,0.026901869103312492
1772905488298600000,2.633599853515625,-0.13514386117458344,0.03262845799326897,0.04069933667778969
1772905488308600000,2.64360009765625,-0.12982608377933502,0.035821251571178436,0.050375666469335556
1772905488318600000,2.653599853515625,-0.12543985247612,0.03683583438396454,0.06025107577443123
1772905488328600000,2.66360009765625,-0.12106746435165405,0.038121894001960754,0.06848909705877304
1772905488338600000,2.673599853515625,-0.12171155959367752,0.038578614592552185,0.07820268720388412
1772905488348600000,2.68360009765625,-0.11876682192087173,0.03832097724080086,0.08211623132228851
1772905488358600000,2.693599853515625,-0.11458073556423187,0.04061416909098625,0.09037448465824127
1772905488368600000,2.70360009765625,-0.10740520060062408,0.038697853684425354,0.09412620216608047
1772905488378600000,2.713599853515625,-0.10285608470439911,0.071945920586586,0.0976511538028717
1772905488388600000,2.72360009765625,-0.09626289457082748,0.0628785565495491,0.09929493069648743
1772905488398600000,2.733599853515625,-0.09200228750705719,0.0504768043756485,0.09950146824121475
1772905488408600000,2.74360009765625,-0.08964841067790985,0.04189916327595711,0.09910117089748383
1772905488418600000,2.753599853515625,-0.08574764430522919,0.034090179949998856,0.10148698091506958
1772905488428600000,2.76360009765625,-0.0796782523393631,0.02608104795217514,0.10226628184318542
1772905488438600000,2.773599853515625,-0.0715584009885788,0.018198605626821518,0.10610317438840866
1772905488448600000,2.78360009765625,-0.0678524598479271,0.015688233077526093,0.11065760999917984
1772905488458600000,2.793599853515625,-0.06629066169261932,0.017177635803818703,0.11243446171283722
1772905488468600000,2.80360009765625,-0.06560610979795456,0.021618163213133812,0.11431032419204712
1772905488478600000,2.813599853515625,-0.06393998116254807,0.030312910676002502,0.11444872617721558
1772905488488600000,2.82360009765625,-0.06360995024442673,0.03650686517357826,0.11480111628770828
1772905488498600000,2.833599853515625,-0.06463198363780975,0.04457029327750206,0.2263583242893219
1772905488508600000,2.84360009765625,-0.06600960344076157,0.054527681320905685,0.22064238786697388
1772905488518600000,2.853599853515625,-0.07170212268829346,0.05964424088597298,0.21325498819351196
1772905488528600000,2.86360009765625,-0.07429873198270798,0.07040221989154816,0.19869419932365417
1772905488538600000,2.873599853515625,-0.07411561161279678,0.09281565248966217,0.19715049862861633
1772905488548600000,2.88360009765625,-0.07211306691169739,0.089633509516716,0.19201157987117767
1772905488558600000,2.893599853515625,-0.07005409151315689,0.08714655786752701,0.18682368099689484
1772905488568600000,2.90360009765625,-0.06488536298274994,0.07725517451763153,0.3044109046459198
1772905488578600000,2.913599853515625,-0.0596516951918602,0.06756394356489182,0.2991974651813507
1772905488588600000,2.92360009765625,-0.051022954285144806,0.05384206399321556,0.2970117926597595
1772905488598600000,2.933599853515625,-0.042856257408857346,0.03554019331932068,0.302860826253891
1772905488608600000,2.94360009765625,-0.03367071971297264,0.022054657340049744,0.29924431443214417
1772905488618600000,2.953599853515625,-0.02132539264857769,0.007312871050089598,0.3071725368499756
1772905488628600000,2.96360009765625,-0.00896835420280695,-0.007290514186024666,0.3158598244190216
1772905488638600000,2.973599853515625,0.004371327813714743,-0.017898382619023323,0.3235144317150116
1772905488648600000,2.98360009765625,0.013166149146854877,-0.0265867430716753,0.3376227617263794
1772905488668600000,3.00360009765625,0.031084759160876274,-0.03260822966694832,0.3485947549343109
1772905488678600000,3.013599853515625,0.0364089198410511,-0.03380699083209038,0.3447972536087036
1772905488688600000,3.02360009765625,0.039229098707437515,-0.03313308581709862,0.33900144696235657
1772905488698600000,3.033599853515625,0.04006056487560272,-0.03159897029399872,0.32384341955184937
1772905488708600000,3.04360009765625,0.03563707321882248,-0.020082982257008553,0.3072066009044647
1772905488718600000,3.053599853515625,0.031856607645750046,-0.005760656204074621,0.2844226658344269
1772905488728600000,3.06360009765625,0.025759533047676086,0.011668229475617409,0.26508280634880066
1772905488738600000,3.073599853515625,0.02072920650243759,0.03373885527253151,0.2414109855890274
1772905488748600000,3.08360009765625,0.015883058309555054,0.049772024154663086,0.23051141202449799
1772905488758600000,3.093599853515625,0.00899284053593874,0.0664205476641655,0.20789676904678345
1772905488768600000,3.10360009765625,0.0029553836211562157,0.081161268055439,0.19666928052902222
1772905488778600000,3.113599853515625,-0.0039050241466611624,0.08940142393112183,0.18205100297927856
1772905488788600000,3.12360009765625,-0.005021810065954924,0.09252501279115677,0.17019645869731903
1772905488798600000,3.133599853515625,-0.002170759020373225,0.08960050344467163,0.17736028134822845
1772905488808600000,3.14360009765625,0.0023698429577052593,0.08149342983961105,0.18648087978363037
1772905488818600000,3.153599853515625,0.008823566138744354,0.069076769053936,0.1983087956905365
1772905488828600000,3.16360009765625,0.017812147736549377,0.057122159749269485,0.22282272577285767
1772905488838600000,3.173599853515625,0.027869608253240585,0.044391438364982605,0.2505997121334076
1772905488848600000,3.18360009765625,0.03895655646920204,0.028730886057019234,0.2832803428173065
1772905488858600000,3.193599853515625,0.05116987228393555,0.016225865110754967,0.3147238790988922
1772905488868600000,3.20360009765625,0.061462610960006714,0.0006536763394251466,0.34818166494369507
1772905488878600000,3.213599853515625,0.0704171285033226,0.0003555829171091318,0.3697945177555084
1772905488888600000,3.22360009765625,0.07803980261087418,0.00004152016117586754,0.3831341862678528
1772905488898600000,3.233599853515625,0.08261127769947052,-0.00026402564253658056,0.38673368096351624
1772905488908600000,3.24360009765625,0.08163821697235107,-0.0005727653042413294,0.37308311462402344
1772905488918600000,3.253599853515625,0.07989756017923355,-0.0005834114854224026,0.34836265444755554
1772905488928600000,3.26360009765625,0.07428382337093353,-0.00027467182371765375,0.3189930021762848
1772905488938600000,3.273599853515625,0.06357694417238235,0.00004045553941978142,0.2730695605278015
1772905488948600000,3.28360009765625,0.0514349602162838,0.0003513244155328721,0.21969275176525116
1772905488958600000,3.293599853515625,0.036345046013593674,0.0006504824850708246,0.16743695735931396
1772905488968600000,3.30360009765625,0.02108798362314701,0.0009538990561850369,0.10208742320537567
1772905488978600000,3.313599853515625,0.004244637675583363,0.0012573156272992492,0.04048534855246544
1772905488988600000,3.32360009765625,-0.014154115691781044,0.0015596675220876932,-0.027703527361154556
1772905488998600000,3.333599853515625,-0.03488970920443535,0.0018598901806399226,-0.09077903628349304
1772905489008600000,3.34360009765625,-0.05123906955122948,0.002161177573725581,-0.15650545060634613
1772905489018600000,3.353599853515625,-0.06572641432285309,0.002468852559104562,-0.20655427873134613
1772905489028600000,3.36360009765625,-0.07882123440504074,0.0027669460978358984,-0.25589194893836975
1772905489038600000,3.373599853515625,-0.08841345459222794,0.00276162289083004,-0.2933569550514221
1772905489048600000,3.38360009765625,-0.09458718448877335,0.0027637521270662546,-0.19381184875965118
1772905489058600000,3.393599853515625,-0.10111862421035767,0.0027594936545938253,-0.20554926991462708
1772905489068600000,3.40360009765625,-0.10567306727170944,0.002748847473412752,-0.21660003066062927
1772905489078600000,3.413599853515625,-0.10718163102865219,0.0027541706804186106,-0.21914446353912354
1772905489088600000,3.42360009765625,-0.10851134359836578,0.0024475601967424154,-0.22401723265647888
1772905489098600000,3.433599853515625,-0.11018279194831848,0.00213775597512722,-0.2277391403913498
1772905489108600000,3.44360009765625,-0.11344372481107712,0.0018385978182777762,-0.23392458260059357
1772905489118600000,3.453599853515625,-0.11528445035219193,0.0018332747276872396,-0.3957999646663666
1772905489128600000,3.46360009765625,-0.1164587214589119,0.0015330520691350102,-0.4042988419532776
1772905489138600000,3.473599853515625,-0.11850918084383011,0.0015373105416074395,-0.4177609384059906
1772905489148600000,3.48360009765625,-0.12337023764848709,0.0015373105416074395,-0.43934398889541626
1772905489158600000,3.493599853515625,-0.12961742281913757,0.0012285709381103516,-0.4637588858604431
1772905489168600000,3.50360009765625,-0.13585609197616577,0.0012179246405139565,-0.495994508266449
1772905489178600000,3.513599853515625,-0.14233005046844482,0.0015170827973634005,-0.5242612361907959
1772905489188600000,3.52360009765625,-0.14809495210647583,0.001824757782742381,-0.560710608959198
1772905489198600000,3.533599853515625,-0.15169550478458405,0.002133497502654791,-0.5921637415885925
1772905489208600000,3.54360009765625,-0.15506714582443237,0.002443301724269986,-0.6197054386138916
1772905489218600000,3.553599853515625,-0.15853461623191833,0.0027541706804186106,-0.6463762521743774
1772905489228600000,3.56360009765625,-0.16138140857219696,0.003068233374506235,-0.6630652546882629
1772905489238600000,3.573599853515625,-0.16140057146549225,0.003369520651176572,-0.6710371375083923
1772905489248600000,3.58360009765625,-0.15751364827156067,0.0036814541090279818,-0.6656479835510254
1772905489258600000,3.593599853515625,-0.15137292444705963,0.003380166832357645,-0.6518217921257019
1772905489268600000,3.60360009765625,-0.14305610954761505,0.00307355634868145,-0.6265775561332703
1772905489278600000,3.613599853515625,-0.1303328424692154,0.0027669460978358984,-0.587642252445221
1772905489288600000,3.62360009765625,-0.11635971814393997,0.002463529584929347,-0.5372474193572998
1772905489298600000,3.633599853515625,-0.10218111425638199,0.0021686297841370106,-0.486767441034317
1772905489308600000,3.64360009765625,-0.08819840103387833,0.0018598901806399226,-0.43031173944473267
1772905489318600000,3.653599853515625,-0.07111126184463501,0.0015596675220876932,-0.37550088763237
1772905489328600000,3.66360009765625,-0.053014855831861496,0.0012573156272992492,-0.3137529492378235
1772905489338600000,3.673599853515625,-0.03458629176020622,0.0009570929105393589,-0.2551637291908264
1772905489348600000,3.68360009765625,-0.020091498270630836,0.00064835324883461,-0.20110449194908142
1772905489358600000,3.693599853515625,-0.008869345299899578,0.00033322590752504766,-0.16533434391021729
1772905489368600000,3.70360009765625,0.0016033169813454151,0.00003832630318356678,-0.13030730187892914
1772905489378600000,3.713599853515625,0.008940674364566803,-0.00027573644183576107,-0.1033947765827179
1772905489388600000,3.72360009765625,0.014485212974250317,-0.0005887345760129392,-0.08777149021625519
1772905489398600000,3.733599853515625,0.020277807489037514,-0.000907055800780654,-0.07525262981653214
1772905489408600000,3.74360009765625,0.024850348010659218,-0.001206213841214776,-0.06693795323371887
1772905489418600000,3.753599853515625,0.026362108066678047,-0.001519212033599615,-0.07075035572052002
1772905489428600000,3.76360009765625,0.02756619267165661,-0.0015128243248909712,-0.0725112333893776
1772905489438600000,3.773599853515625,0.03001588210463524,-0.0015117597067728639,-0.07396337389945984
1772905489448600000,3.78360009765625,0.03518886864185333,-0.0015234705060720444,-0.06938763707876205
1772905489458600000,3.793599853515625,0.039253585040569305,-0.0018236931646242738,-0.05965382233262062
1772905489468600000,3.80360009765625,0.041920457035303116,-0.0018204993102699518,-0.048427410423755646
1772905489478600000,3.813599853515625,0.044221099466085434,-0.00213775597512722,-0.03817832097411156
1772905489488600000,3.82360009765625,0.05139024555683136,-0.0024518186692148447,-0.018136857077479362
1772905489498600000,3.833599853515625,0.062167391180992126,-0.0024464954622089863,0.011392492800951004
1772905489508600000,3.84360009765625,0.07289449870586395,-0.0027435244992375374,0.044654399156570435
1772905489518600000,3.853599853515625,0.0841837227344513,-0.003044811775907874,0.07870199531316757
1772905489528600000,3.86360009765625,0.09296044707298279,-0.0033514220267534256,0.11595302820205688
1772905489538600000,3.873599853515625,0.09852521121501923,-0.0036740018986165524,0.14344683289527893
1772905489548600000,3.88360009765625,0.10303068161010742,-0.003985935356467962,0.1699526607990265
1772905489558600000,3.893599853515625,0.10700277239084244,-0.0043021272867918015,0.19597728550434113
1772905489568600000,3.90360009765625,0.11049472540616989,-0.004620448686182499,0.2133859395980835
1772905489578600000,3.913599853515625,0.11215446889400482,-0.004932382144033909,0.22849822044372559
1772905489588600000,3.92360009765625,0.1093236431479454,-0.005237927660346031,0.2334848940372467
1772905489598600000,3.933599853515625,0.10487992316484451,-0.004927059169858694,0.2314855307340622
1772905489608600000,3.94360009765625,0.100189208984375,-0.004905766807496548,0.2255779653787613
1772905489618600000,3.953599853515625,0.09370780736207962,-0.0045991563238203526,0.21272800862789154
1772905489628600000,3.96360009765625,0.08439451456069946,-0.004288287367671728,0.19686304032802582
1772905489638600000,3.973599853515625,0.07360140234231949,-0.003986999858170748,0.17682477831840515
1772905489648600000,3.98360009765625,0.06363549828529358,-0.003675066400319338,0.15805873274803162
1772905489658600000,3.993599853515625,0.05412312597036362,-0.003367391414940357,0.14212457835674286
1772905489668600000,4.00360009765625,0.04752887040376663,-0.0030629101675003767,0.13139213621616364
1772905489678600000,4.013599853515625,0.04188745468854904,-0.0027648168615996838,0.12981650233268738
1772905489688600000,4.02360009765625,0.03625348582863808,-0.002768010599538684,0.1269281953573227
1772905489698600000,4.033599853515625,0.03177250549197197,-0.002768010599538684,0.1294822096824646
1772905489708600000,4.04360009765625,0.02802504412829876,-0.0027712045703083277,0.1336459368467331
1772905489718600000,4.053599853515625,0.026828410103917122,-0.00275842915289104,0.13862623274326324
1772905489728600000,4.06360009765625,0.02627693861722946,-0.0027531059458851814,0.15364694595336914
1772905489738600000,4.073599853515625,0.024697043001651764,-0.0027424597647041082,0.1638023555278778
1772905489748600000,4.08360009765625,0.023668620735406876,-0.002744589000940323,0.17724211513996124
1772905489758600000,4.093599853515625,0.023767629638314247,-0.002748847473412752,0.19732828438282013
1772905489768600000,4.10360009765625,0.025317715480923653,-0.0027605583891272545,0.2103794515132904
1772905489778600000,4.113599853515625,0.026400433853268623,-0.0027637521270662546,0.2304922491312027
1772905489788600000,4.12360009765625,0.025346459820866585,-0.00276162289083004,0.23802655935287476
1772905489798600000,4.133599853515625,0.02490144968032837,-0.002762687625363469,0.24401503801345825
1772905489808600000,4.14360009765625,0.023611130192875862,-0.0027669460978358984,0.24685971438884735
1772905489818600000,4.153599853515625,0.021481892094016075,-0.0027573644183576107,0.24562688171863556
1772905489828600000,4.16360009765625,0.017543865367770195,-0.0027499122079461813,0.23806169629096985
1772905489838600000,4.173599853515625,0.01194715965539217,-0.002756299916654825,0.22550450265407562
1772905489848600000,4.18360009765625,0.005761720705777407,-0.002769075334072113,0.21345195174217224
1772905489858600000,4.193599853515625,-0.0016086400719359517,-0.002772269072011113,0.19787444174289703
1772905489868600000,4.20360009765625,-0.008234831504523754,-0.0027669460978358984,0.18029969930648804
1772905489878600000,4.213599853515625,-0.014618289656937122,-0.00275842915289104,0.16827800869941711
1772905489888600000,4.22360009765625,-0.020259708166122437,-0.0027541706804186106,0.15278567373752594
1772905489898600000,4.233599853515625,-0.025893675163388252,-0.0027499122079461813,0.1415475457906723
1772905489908600000,4.24360009765625,-0.03140733763575554,-0.0027477829717099667,0.13314983248710632
1772905489918600000,4.253599853515625,-0.036134250462055206,-0.002748847473412752,0.12489796429872513
1772905489928600000,4.26360009765625,-0.038793668150901794,-0.002750976709648967,0.12434010207653046
1772905489938600000,4.273599853515625,-0.04185764491558075,-0.003057587193325162,0.12408459186553955
1772905489948600000,4.28360009765625,-0.04491203650832176,-0.00307355634868145,0.12325419485569
1772905489958600000,4.293599853515625,-0.047155190259218216,-0.0033822960685938597,0.12729761004447937
1772905489968600000,4.30360009765625,-0.045689210295677185,-0.003698487998917699,0.13347028195858002
1772905489978600000,4.313599853515625,-0.04190342128276825,-0.004007227718830109,0.1498398631811142
1772905489988600000,4.32360009765625,-0.03839550167322159,-0.004318096674978733,0.16325300931930542
1772905489998600000,4.333599853515625,-0.03545182943344116,-0.004633224103599787,0.17870064079761505
1772905490008600000,4.34360009765625,-0.031230611726641655,-0.004945157561451197,0.19310814142227173
1772905490018600000,4.353599853515625,-0.02713608555495739,-0.005252832546830177,0.2108883410692215
1772905490028600000,4.36360009765625,-0.023288551717996597,-0.005248574074357748,0.2247273325920105
1772905490038600000,4.373599853515625,-0.018790533766150475,-0.005238992627710104,0.23719722032546997
1772905490048600000,4.38360009765625,-0.01604275032877922,-0.004929188173264265,0.250647634267807
1772905490058600000,4.393599853515625,-0.0153092285618186,-0.004632159136235714,0.2568192183971405
1772905490068600000,4.40360009765625,-0.014026361517608166,-0.004333001095801592,0.2574388384819031
1772905490078600000,4.413599853515625,-0.014241415075957775,0.0009166373638436198,0.07813561707735062
1772905490088600000,4.42360009765625,-0.015820246189832687,0.004831243306398392,0.07472244650125504
1772905490098600000,4.433599853515625,-0.018559511750936508,0.013454660773277283,0.23097026348114014
1772905490108600000,4.44360009765625,-0.024217963218688965,0.013765529729425907,0.2103581577539444
1772905490118600000,4.453599853515625,-0.031979039311409,0.014087044633924961,0.17561110854148865
1772905490128600000,4.46360009765625,-0.04059180989861488,0.014392591081559658,0.14117279648780823
1772905490138600000,4.473599853515625,-0.05050235614180565,0.014689619652926922,0.10104729235172272
1772905490148600000,4.48360009765625,-0.06221955642104149,0.015004746615886688,0.05612673982977867
1772905490158600000,4.493599853515625,-0.07393356412649155,0.015301776118576527,0.007855826988816261
1772905490168600000,4.50360009765625,-0.08559327572584152,0.015611579641699791,-0.03926103562116623
1772905490178600000,4.513599853515625,-0.09608723223209381,0.01592244952917099,-0.08529305458068848
1772905490188600000,4.52360009765625,-0.10645023733377457,0.01623225398361683,-0.13065968453884125
1772905490198600000,4.533599853515625,-0.11480537056922913,0.016542058438062668,-0.17440809309482574
1772905490208600000,4.54360009765625,-0.1213676854968071,0.016847603023052216,-0.21001535654067993
1772905490218600000,4.553599853515625,-0.12431242316961288,0.017155278474092484,-0.23668301105499268
1772905490228600000,4.56360009765625,-0.12621383368968964,0.01745975948870182,-0.2517654597759247
1772905490238600000,4.573599853515625,-0.12674401700496674,0.017464017495512962,-0.26484325528144836
1772905490248600000,4.58360009765625,-0.1252514123916626,0.017469340935349464,-0.26721736788749695
1772905490258600000,4.593599853515625,-0.12111430615186691,0.017475727945566177,-0.26145032048225403
1772905490268600000,4.60360009765625,-0.11595196276903152,0.017477858811616898,-0.2503111958503723
1772905490278600000,4.613599853515625,-0.11121440678834915,0.01747998781502247,-0.23901985585689545
1772905490288600000,4.62360009765625,-0.10726466774940491,0.01747998781502247,-0.22674904763698578
1772905490298600000,4.633599853515625,-0.103171207010746,0.01779085583984852,-0.21937230229377747
1772905490308600000,4.64360009765625,-0.10059483349323273,0.01779085583984852,-0.2089454084634781
1772905490318600000,4.653599853515625,-0.10077475011348724,0.017786597833037376,-0.21048910915851593
1772905490328600000,4.66360009765625,-0.10130918771028519,0.017780210822820663,-0.2130846530199051
1772905490338600000,4.673599853515625,-0.10391111671924591,0.017780210822820663,-0.21918386220932007
1772905490348600000,4.68360009765625,-0.11116756498813629,0.017781274393200874,-0.2326427847146988
1772905490358600000,4.693599853515625,-0.12009972333908081,0.018098531290888786,-0.26051878929138184
1772905490368600000,4.70360009765625,-0.12821318209171295,0.018407270312309265,-0.2844333350658417
1772905490378600000,4.713599853515625,-0.13669927418231964,0.01839662529528141,-0.3086182773113251
1772905490388600000,4.72360009765625,-0.14403662085533142,0.01839449629187584,-0.3356766402721405
1772905490398600000,4.733599853515625,-0.15131543576717377,0.018099596723914146,-0.35724371671676636
1772905490408600000,4.74360009765625,-0.15922342240810394,0.018097465857863426,-0.38090595602989197
1772905490418600000,4.753599853515625,-0.1641068309545517,0.011267933063209057,-0.3966005742549896
1772905490428600000,4.76360009765625,-0.16586558520793915,0.0006270608864724636,-0.3980495035648346
1772905490438600000,4.773599853515625,-0.16587835550308228,0.0003098042798228562,-0.3881847560405731
1772905490448600000,4.78360009765625,-0.16366076469421387,0.0000010646194823493715,-0.37280312180519104
1772905490458600000,4.793599853515625,-0.15831103920936584,-0.000010646194823493715,-0.34263819456100464
1772905490468600000,4.80360009765625,-0.1518179327249527,-0.0003119335160590708,-0.305025190114975
1772905490478600000,4.813599853515625,-0.14338189363479614,-0.0006196085596457124,-0.2638031244277954
1772905490488600000,4.82360009765625,-0.13139747083187103,-0.0009283481631428003,-0.2120775282382965
1772905490498600000,4.833599853515625,-0.11757977306842804,-0.0012232477311044931,-0.1532551646232605
1772905490508600000,4.84360009765625,-0.10430396348237991,-0.0015394397778436542,-0.09278903901576996
1772905490518600000,4.853599853515625,-0.0914880782365799,-0.0018460501451045275,-0.03470765799283981
1772905490528600000,4.86360009765625,-0.07937696576118469,-0.002149466658011079,0.021798083558678627
1772905490538600000,4.873599853515625,-0.06727010756731033,-0.002452883403748274,0.07799402624368668
1772905490548600000,4.88360009765625,-0.05518880859017372,-0.0027637521270662546,0.1345636397600174
1772905490558600000,4.893599853515625,-0.045134544372558594,-0.003077814821153879,0.18788723647594452
1772905490568600000,4.90360009765625,-0.03664100915193558,-0.0033897485118359327,0.23120766878128052
1772905490578600000,4.913599853515625,-0.02941543608903885,-0.0033908130135387182,0.2694392204284668
1772905490588600000,4.92360009765625,-0.023546189069747925,-0.0033982654567807913,0.298764169216156
1772905490598600000,4.933599853515625,-0.02038746327161789,-0.003392942249774933,0.32012468576431274
1772905490608600000,4.94360009765625,-0.016600610688328743,-0.0033886837773025036,0.3328937292098999
1772905490618600000,4.953599853515625,-0.013057557865977287,-0.0033982654567807913,0.3497732877731323
1772905490628600000,4.96360009765625,-0.00995632167905569,-0.0034057176671922207,0.35601940751075745
1772905490638600000,4.973599853515625,-0.008436044678092003,-0.003417428582906723,0.3619897961616516
1772905490648600000,4.98360009765625,-0.005605221726000309,-0.003099107416346669,0.3599584996700287
1772905490658600000,4.993599853515625,-0.0021888576447963715,-0.0027829152531921864,0.3635111153125763
1772905490668600000,5.00360009765625,0.0006515471031889319,-0.002469917293637991,0.36111360788345337
1772905490678600000,5.013599853515625,0.0025188897270709276,-0.0021547898650169373,0.3555435240268707
1772905490688600000,5.02360009765625,0.0054008145816624165,-0.0018524378538131714,0.34933677315711975
1772905490698600000,5.033599853515625,0.008576574735343456,-0.0018535024719312787,0.3456617295742035
1772905490708600000,5.04360009765625,0.012025942094624043,-0.001851373235695064,0.3381721079349518
1772905490718600000,5.053599853515625,0.015530669130384922,-0.001531987451016903,0.33251261711120605
1772905490728600000,5.06360009765625,0.01825396530330181,-0.0015362459234893322,0.32607805728912354
1772905490738600000,5.073599853515625,0.021883253008127213,-0.0012285709381103516,0.3183946907520294
1772905490748600000,5.08360009765625,0.025148442015051842,-0.0012147307861596346,0.31459081172943115
1772905490758600000,5.093599853515625,0.028738338500261307,-0.0009177019819617271,0.30836915969848633
1772905490768600000,5.10360009765625,0.031206125393509865,-0.0006100269383750856,0.30303648114204407
1772905490778600000,5.113599853515625,0.0340486615896225,-0.0002917057427112013,0.2944258451461792
1772905490788600000,5.12360009765625,0.03492484241724014,-0.00028105953242629766,0.2895488142967224
1772905490798600000,5.133599853515625,0.0355018675327301,-0.0002768010599538684,0.27734509110450745
1772905490808600000,5.14360009765625,0.036560095846652985,-0.00027467182371765375,0.2719772756099701
1772905490818600000,5.153599853515625,0.03844128176569939,0.00003726168142748065,0.2681691348552704
1772905490828600000,5.16360009765625,0.03974224627017975,0.00003832630318356678,0.26600581407546997
1772905490838600000,5.173599853515625,0.040356531739234924,0.000031938583560986444,0.25867486000061035
1772905490848600000,5.18360009765625,0.04113689810037613,0.00004045553941978142,0.2563827335834503
1772905490858600000,5.193599853515625,0.04118267446756363,0.000036197063309373334,0.24993538856506348
1772905490868600000,5.20360009765625,0.042018402367830276,0.00003513244155328721,0.24753467738628387
1772905490878600000,5.213599853515625,0.0414552167057991,0.00002874472556868568,0.24111714959144592
1772905490888600000,5.22360009765625,0.040790896862745285,0.000029809345505782403,0.23191989958286285
1772905490898600000,5.233599853515625,0.039300426840782166,0.000025550867576384917,0.21899010241031647
1772905490908600000,5.24360009765625,0.03768540173768997,0.000025550867576384917,0.2069183737039566
1772905490918600000,5.253599853515625,0.03530065342783928,0.000024486247639288194,0.1917688399553299
1772905490928600000,5.26360009765625,0.0320759192109108,0.000031938583560986444,0.1739705353975296
1772905490938600000,5.273599853515625,0.028934229165315628,0.000027680107450578362,0.15100030601024628
1772905490948600000,5.28360009765625,0.027197834104299545,0.000018098531654686667,0.12764468789100647
1772905490958600000,5.293599853515625,0.025930937379598618,0.000024486247639288194,0.10684201866388321
1772905490968600000,5.30360009765625,0.024893997237086296,0.000030873965442879125,0.08134225010871887
1772905490978600000,5.313599853515625,0.025729723274707794,-0.00027573644183576107,0.06656426936388016
1772905490988600000,5.32360009765625,0.02499939501285553,-0.0005876699578948319,0.04953993856906891
1772905490998600000,5.333599853515625,0.026422791182994843,-0.0005855407216586173,0.03349931538105011
1772905491008600000,5.34360009765625,0.027820635586977005,-0.0008942803833633661,0.02413492277264595
1772905491018600000,5.353599853515625,0.03128916770219803,-0.0012136661680415273,0.01589583419263363
1772905491028600000,5.36360009765625,0.03587235510349274,-0.001519212033599615,0.012105788104236126
1772905491038600000,5.373599853515625,0.04141050577163696,-0.001519212033599615,0.01432339008897543
1772905491048600000,5.38360009765625,0.046243876218795776,-0.0018300808733329177,0.01592457853257656
1772905491058600000,5.393599853515625,0.051933202892541885,-0.002136691240593791,0.01902155578136444
1772905491068600000,5.40360009765625,0.06066733971238136,-0.0024475601967424154,0.026767726987600327
1772905491078600000,5.413599853515625,0.06907038390636444,-0.0011274319840595126,0.01344720833003521
1772905491088600000,5.42360009765625,0.0755603015422821,-0.001377617591060698,0.01772059127688408
1772905491098600000,5.433599853515625,0.08067580312490463,-0.000023421627702191472,0.020470503717660904
1772905491108600000,5.44360009765625,0.08473306149244308,0.00019588998111430556,0.024681072682142258
1772905491118600000,5.453599853515625,0.0881643295288086,0.0007399105234071612,0.026356784626841545
1772905491128600000,5.46360009765625,0.09452330321073532,0.0007335228146985173,0.028789440169930458
1772905491138600000,5.473599853515625,0.09894147515296936,-0.0015628613764420152,0.032333556562662125
1772905491148600000,5.48360009765625,0.10452327877283096,-0.001545827486552298,0.03267636522650719
1772905491158600000,5.493599853515625,0.10684840381145477,-0.0020014846231788397,0.033438634127378464
1772905491168600000,5.50360009765625,0.10792580246925354,-0.0030192609410732985,0.02912692353129387
1772905491178600000,5.513599853515625,0.10673981159925461,-0.0053710052743554115,0.02199610322713852
1772905491188600000,5.52360009765625,0.10538987815380096,-0.0073927175253629684,0.01326835248619318
1772905491198600000,5.533599853515625,0.10075239092111588,-0.02007978782057762,0.006391975563019514
1772905491208600000,5.54360009765625,0.09440087527036667,-0.02007872425019741,-0.03816660866141319
1772905491218600000,5.553599853515625,0.08668557554483414,-0.020085111260414124,-0.09031486511230469
1772905491228600000,5.56360009765625,0.07616500556468964,-0.02007765881717205,-0.14540892839431763
1772905491238600000,5.573599853515625,0.06526223570108414,-0.020068077370524406,-0.20866328477859497
1772905491248600000,5.58360009765625,0.05576902627944946,-0.020068077370524406,-0.27364233136177063
1772905491258600000,5.593599853515625,0.047368112951517105,-0.020035073161125183,-0.32947736978530884
1772905491268600000,5.60360009765625,0.03685925528407097,-0.019727399572730064,-0.39052265882492065
1772905491278600000,5.613599853515625,0.029020462185144424,-0.019417595118284225,-0.4395941495895386
1772905491288600000,5.62360009765625,0.01760135404765606,-0.019103532657027245,-0.4868643283843994
1772905491298600000,5.633599853515625,0.009839213453233242,-0.01880118064582348,-0.5279415845870972
1772905491308600000,5.64360009765625,0.0034355269744992256,-0.018500957638025284,-0.5481800436973572
1772905491318600000,5.653599853515625,0.00017033911717589945,-0.018191153183579445,-0.5552884936332703
1772905491328600000,5.66360009765625,-0.00267751794308424,-0.01789199560880661,-0.5537149906158447
1772905491338600000,5.673599853515625,-0.0031257227528840303,-0.017901577055454254,-0.5430155396461487
1772905491348600000,5.68360009765625,-0.0015660552307963371,-0.017588578164577484,-0.5262616276741028
1772905491358600000,5.693599853515625,0.0012562510091811419,-0.017274515703320503,-0.4978937804698944
1772905491368600000,5.70360009765625,0.004792917054146528,-0.016960453242063522,-0.46819302439689636
1772905491378600000,5.713599853515625,0.008084720000624657,-0.016959387809038162,-0.44105908274650574
1772905491388600000,5.72360009765625,0.01294257864356041,-0.01664319634437561,-0.41041508316993713
1772905491398600000,5.733599853515625,0.015939483419060707,-0.01633445732295513,-0.38540396094322205
1772905491408600000,5.74360009765625,0.01827099919319153,-0.01633445732295513,-0.360466331243515
1772905491418600000,5.753599853515625,0.017281968146562576,-0.01601720042526722,-0.3566826581954956
1772905491428600000,5.76360009765625,0.019265353679656982,-0.015653099864721298,-0.3495507836341858
1772905491438600000,5.773599853515625,0.018391301855444908,-0.01964329369366169,-0.34780585765838623
1772905491448600000,5.78360009765625,0.015520023182034492,-0.020549286156892776,-0.3579123020172119
1772905491458600000,5.793599853515625,0.009227056987583637,-0.022038687020540237,-0.3786872923374176
1772905491468600000,5.80360009765625,0.001075265696272254,-0.021723560988903046,-0.40401244163513184
1772905491478600000,5.813599853515625,-0.006831663195043802,-0.015468921512365341,-0.4340762495994568
1772905491488600000,5.82360009765625,-0.015767013654112816,-0.015214476734399796,-0.4640282392501831
1772905491498600000,5.833599853515625,-0.023479118943214417,-0.013975259847939014,-0.4927580654621124
1772905491508600000,5.84360009765625,-0.032195158302783966,-0.01091341394931078,-0.5179405808448792
1772905491518600000,5.853599853515625,-0.03816873952746391,-0.004222280811518431,-0.526068925857544
1772905491528600000,5.86360009765625,-0.04281686618924141,0.0015532798133790493,-0.5308938026428223
1772905491538600000,5.873599853515625,-0.04425303637981415,0.0015575382858514786,-0.515079915523529
1772905491548600000,5.88360009765625,-0.04613528400659561,0.0018673426238819957,-0.49920326471328735
1772905491558600000,5.893599853515625,-0.04445105791091919,0.0021835346706211567,-0.4691831171512604
1772905491568600000,5.90360009765625,-0.04055668041110039,0.0021835346706211567,-0.4350641965866089
1772905491578600000,5.913599853515625,-0.03438933938741684,0.0024880156852304935,-0.39188748598098755
1772905491588600000,5.92360009765625,-0.02692422643303871,0.0024944033939391375,-0.3445790112018585
1772905491598600000,5.933599853515625,-0.018859734758734703,0.0024614003486931324,-0.2974216938018799
1772905491608600000,5.94360009765625,-0.005915025714784861,0.002156919101253152,-0.24418751895427704
1772905491618600000,5.953599853515625,0.003562216879799962,0.0018460501451045275,-0.19340409338474274
1772905491628600000,5.96360009765625,0.014627872034907341,0.0015426336321979761,-0.14053934812545776
1772905491638600000,5.973599853515625,0.02202591300010681,0.0012360232649371028,-0.10311798006296158
1772905491648600000,5.98360009765625,0.030359754338860512,0.0009326066938228905,-0.0665738508105278
1772905491658600000,5.993599853515625,0.034140218049287796,0.0006281255045905709,-0.049430280923843384
1772905491668600000,6.00360009765625,0.03595645725727081,0.000331096671288833,-0.03739688917994499
1772905491678600000,6.013599853515625,0.03448089584708214,0.000027680107450578362,-0.03767368942499161
1772905491688600000,6.02360009765625,0.0313573032617569,-0.00027573644183576107,-0.04126252233982086
1772905491698600000,6.033599853515625,0.02708924189209938,-0.0005855407216586173,-0.05186400189995766
1772905491708600000,6.04360009765625,0.022678524255752563,-0.0008910865290090442,-0.07077057659626007
1772905491718600000,6.053599853515625,0.019241932779550552,-0.0011987615143880248,-0.07898944616317749
1772905491728600000,6.06360009765625,0.01358028594404459,-0.0015106950886547565,-0.09230144321918488
1772905491738600000,6.073599853515625,0.009863699786365032,-0.0018215639283880591,-0.09507371485233307
1772905491748600000,6.08360009765625,0.004721587523818016,-0.0018226285465061665,-0.10223753750324249
1772905491758600000,6.093599853515625,0.005099527537822723,-0.0018268870189785957,-0.09017114341259003
1772905491768600000,6.10360009765625,0.002797819906845689,-0.0018183700740337372,-0.08452758938074112
1772905491778600000,6.113599853515625,0.004439463373273611,-0.001827951637096703,-0.0686541199684143
1772905491788600000,6.12360009765625,0.010106433182954788,-0.0018354039639234543,-0.05151587352156639
1772905491798600000,6.133599853515625,0.01930900290608406,-0.002144143683835864,-0.013532377779483795
1772905491808600000,6.14360009765625,0.030863318592309952,-0.0024518186692148447,0.021414820104837418
1772905491818600000,6.153599853515625,0.04147544503211975,-0.002752041444182396,0.06039905548095703
1772905491828600000,6.16360009765625,0.05488113313913345,-0.0030597164295613766,0.09665786474943161
1772905491838600000,6.173599853515625,0.06579561531543732,-0.003061845665797591,0.13622018694877625
1772905491848600000,6.18360009765625,0.07510996609926224,-0.003061845665797591,0.1814441680908203
1772905491858600000,6.193599853515625,0.08186604082584381,-0.0030586516950279474,0.20654043555259705
1772905491868600000,6.20360009765625,0.08767993003129959,-0.003056522458791733,0.23532775044441223
1772905491878600000,6.213599853515625,0.09175955504179001,-0.0027594936545938253,0.24549487233161926
1772905491888600000,6.22360009765625,0.09645985066890717,-0.0027658813633024693,0.25728872418403625
1772905491898600000,6.233599853515625,0.09754575788974762,-0.0027712045703083277,0.2594892978668213
1772905491908600000,6.24360009765625,0.09787578880786896,-0.0024656588211655617,0.25982144474983215
1772905491918600000,6.253599853515625,0.0960308089852333,-0.0024677880574017763,0.2553575038909912
1772905491928600000,6.26360009765625,0.092222660779953,-0.0021558543667197227,0.2500131130218506
1772905491938600000,6.273599853515625,0.08734670281410217,-0.0018492439994588494,0.2358185350894928
1772905491948600000,6.28360009765625,0.07667602598667145,-0.0015532798133790493,0.22673733532428741
1772905491958600000,6.293599853515625,0.06918855756521225,-0.0012487986823543906,0.20264393091201782
1772905491968600000,6.30360009765625,0.06159782037138939,-0.0009538990561850369,0.18965664505958557
1772905491978600000,6.313599853515625,0.056662242859601974,-0.0006462240125983953,0.17938518524169922
1772905491988600000,6.32360009765625,0.05138811841607094,-0.00034280747058801353,0.16757217049598694
1772905491998600000,6.333599853515625,0.048065438866615295,-0.00034919517929665744,0.16514696180820465
1772905492008600000,6.34360009765625,0.048814933747053146,-0.0003545182989910245,0.17138351500034332
1772905492018600000,6.353599853515625,0.05084729194641113,-0.00035025979741476476,0.190296471118927
1772905492028600000,6.36360009765625,0.051812902092933655,-0.0003545182989910245,0.2142280489206314
1772905492038600000,6.373599853515625,0.053879328072071075,-0.00005216635327087715,0.2345750629901886
1772905492048600000,6.38360009765625,0.055605076253414154,0.00025444405036978424,0.2708679437637329
1772905492058600000,6.393599853515625,0.05737128108739853,0.0005504082655534148,0.2983745038509369
1772905492068600000,6.40360009765625,0.05979115888476372,0.0008580833091400564,0.335630863904953
1772905492078600000,6.413599853515625,0.061703216284513474,0.0011678875889629126,0.3654977083206177
1772905492088600000,6.42360009765625,0.0657530277967453,0.001485144137404859,0.3934705853462219
1772905492098600000,6.433599853515625,0.06656426936388016,0.0017864315304905176,0.42254745960235596
1772905492108600000,6.44360009765625,0.06701885908842087,0.0020845248363912106,0.44431042671203613
1772905492118600000,6.453599853515625,0.06534208357334137,0.0023985877633094788,0.4614071547985077
1772905492128600000,6.46360009765625,0.06167979538440704,0.002711585722863674,0.4779811501502991
1772905492138600000,6.473599853515625,0.056850679218769073,0.0025518930051475763,0.14645756781101227
1772905492148600000,6.48360009765625,0.048423152416944504,0.0045842514373362064,0.1459423005580902
1772905492158600000,6.493599853515625,0.040930360555648804,0.006384523119777441,0.14398765563964844
1772905492168600000,6.50360009765625,0.029760373756289482,0.008389201946556568,0.1412324160337448
1772905492178600000,6.513599853515625,0.020426854491233826,0.010069170966744423,0.13563039898872375
1772905492188600000,6.52360009765625,0.014903607778251171,0.011818340979516506,0.12842930853366852
1772905492198600000,6.533599853515625,0.01012453157454729,0.012507149949669838,0.12643314898014069
1772905492208600000,6.54360009765625,0.003685712581500411,0.012161148712038994,0.11970900744199753
1772905492218600000,6.553599853515625,-0.0021590483374893665,0.011822598986327648,0.11428476870059967
1772905492228600000,6.56360009765625,-0.008142209611833096,0.010452434420585632,0.11048195511102676
1772905492238600000,6.573599853515625,-0.012412398122251034,0.0106887798756361,0.10593389719724655
1772905492248600000,6.58360009765625,-0.015614774078130722,0.009309032931923866,0.10462441295385361
1772905492258600000,6.593599853515625,-0.018428564071655273,0.00830935500562191,0.10181701183319092
1772905492268600000,6.60360009765625,-0.01856376975774765,0.006839115638285875,0.10065125674009323
1772905492278600000,6.613599853515625,-0.019060947000980377,0.005845825653523207,0.10137838870286942
1772905492288600000,6.62360009765625,-0.018214574083685875,0.004196729976683855,0.1004181057214737
1772905492298600000,6.633599853515625,-0.019266419112682343,0.002774398308247328,0.10050433874130249
1772905492308600000,6.64360009765625,-0.019701847806572914,0.0007697198889218271,0.09811213612556458
1772905492318600000,6.653599853515625,-0.021909868344664574,-0.0021164636127650738,0.09656524658203125
1772905492328600000,6.66360009765625,-0.027961166575551033,-0.004298933316022158,0.09234189987182617
1772905492338600000,6.673599853515625,-0.03441276028752327,-0.005454045720398426,0.08455207943916321
1772905492348600000,6.68360009765625,-0.043601490557193756,-0.0060470388270914555,0.07500138133764267
1772905492358600000,6.693599853515625,-0.05298078805208206,-0.005711683537811041,0.06393785029649734
1772905492368600000,6.70360009765625,-0.0606662780046463,-0.0033216127194464207,0.04896823689341545
1772905492378600000,6.713599853515625,-0.06930673122406006,-0.003202375490218401,0.0375661626458168
1772905492388600000,6.72360009765625,-0.08056933432817459,-0.0017161666182801127,0.019180184230208397
1772905492398600000,6.733599853515625,-0.09199270606040955,-0.0000883634202182293,0.002345356624573469
1772905492408600000,6.74360009765625,-0.10591579973697662,0.002005743095651269,-0.01765458472073078
1772905492418600000,6.753599853515625,-0.11946520954370499,0.003965707495808601,-0.038647815585136414
1772905492428600000,6.76360009765625,-0.1340409219264984,0.006352584343403578,-0.05900866538286209
1772905492438600000,6.773599853515625,-0.14674076437950134,0.010059589520096779,-0.08056188374757767
1772905492448600000,6.78360009765625,-0.1557176262140274,0.012496503069996834,-0.09891486167907715
1772905492458600000,6.793599853515625,-0.1632242649793625,0.015033491887152195,-0.11461693048477173
1772905492468600000,6.80360009765625,-0.1688007414340973,0.017350103706121445,-0.12892009317874908
1772905492478600000,6.813599853515625,-0.17398011684417725,0.018095336854457855,-0.14177431166172028
1772905492488600000,6.82360009765625,-0.17624136805534363,0.017521508038043976,-0.1508384793996811
1772905492498600000,6.833599853515625,-0.1790061891078949,0.04275086149573326,-0.5266374349594116
1772905492508600000,6.84360009765625,-0.18251623213291168,0.037640687078237534,-0.5432327389717102
1772905492518600000,6.853599853515625,-0.1860390603542328,0.03310966491699219,-0.5716633796691895
1772905492528600000,6.86360009765625,-0.18762001395225525,0.02840617671608925,-0.5802293419837952
1772905492538600000,6.873599853515625,-0.18938302993774414,0.026547351852059364,-0.5926044583320618
1772905492548600000,6.88360009765625,-0.19036993384361267,0.027484215795993805,-0.5947124361991882
1772905492558600000,6.893599853515625,-0.19201050698757172,0.028400853276252747,-0.5997448563575745
1772905492568600000,6.90360009765625,-0.19210845232009888,0.03210466355085373,-0.6047986149787903
1772905492578600000,6.913599853515625,-0.19283346831798553,0.03116779960691929,-0.6040395498275757
1772905492588600000,6.92360009765625,-0.19597621262073517,0.03489503264427185,-0.6126767992973328
1772905492598600000,6.933599853515625,-0.19856750965118408,0.0376012958586216,-0.6207423806190491
1772905492608600000,6.94360009765625,-0.20259921252727509,0.0412614569067955,-0.6288462281227112
1772905492618600000,6.953599853515625,-0.20529483258724213,0.04364088177680969,-0.6360675692558289
1772905492628600000,6.96360009765625,-0.20597513020038605,0.04783228784799576,-0.639755368232727
1772905492638600000,6.973599853515625,-0.20435796678066254,0.05139131098985672,-0.628587543964386
1772905492648600000,6.98360009765625,-0.20221169292926788,0.056538745760917664,-0.6164210438728333
1772905492658600000,6.993599853515625,-0.19818530976772308,0.06409116089344025,-0.5938628315925598
1772905492668600000,7.00360009765625,-0.19140580296516418,0.06972512602806091,-0.5620200634002686
1772905492678600000,7.013599853515625,-0.18339134752750397,0.07285723090171814,-0.5228292942047119
1772905492688600000,7.02360009765625,-0.17138351500034332,0.07446906715631485,-0.4772188663482666
1772905492698600000,7.033599853515625,-0.1591574251651764,0.07354817539453506,-0.4248183071613312
1772905492708600000,7.04360009765625,-0.1472294181585312,0.06736486405134201,-0.3661801218986511
1772905492718600000,7.053599853515625,-0.13646292686462402,0.06705399602651596,-0.31855544447898865
1772905492728600000,7.06360009765625,-0.12220340967178345,0.0630158931016922,-0.2567138373851776
1772905492738600000,7.073599853515625,-0.10996241867542267,0.058584947139024734,-0.20126737654209137
1772905492748600000,7.08360009765625,-0.09823030978441238,0.05288390815258026,-0.14897219836711884
1772905492758600000,7.093599853515625,-0.0880940705537796,0.047559745609760284,-0.10689950734376907
1772905492768600000,7.10360009765625,-0.07857317477464676,0.041078343987464905,-0.061012279242277145
1772905492778600000,7.113599853515625,-0.07112935930490494,0.031059209257364273,-0.02620241418480873
1772905492788600000,7.12360009765625,-0.06482255458831787,0.024501152336597443,0.003628223203122616
1772905492798600000,7.133599853515625,-0.05827727168798447,0.017687588930130005,0.03141266107559204
1772905492808600000,7.14360009765625,-0.05463414266705513,0.01148937363177538,0.050225552171468735
1772905492818600000,7.153599853515625,-0.04984761402010918,0.005570088978856802,0.07008177042007446
1772905492828600000,7.16360009765625,-0.047658756375312805,0.001895022694952786,0.087507463991642
1772905492838600000,7.173599853515625,-0.04205566272139549,0.0018971519311890006,0.11036058515310287
1772905492848600000,7.18360009765625,-0.03285735100507736,0.001592670800164342,0.13105465471744537
1772905492858600000,7.193599853515625,-0.020736658945679665,0.0012913834070786834,0.17753061652183533
1772905492868600000,7.20360009765625,-0.010668551549315453,0.0009783853311091661,0.20924563705921173
1772905492878600000,7.213599853515625,0.002351744333282113,-0.002271898090839386,0.07698582857847214
1772905492888600000,7.22360009765625,0.01839555986225605,-0.004465014208108187,0.09037980437278748
1772905492898600000,7.233599853515625,0.03607676178216934,-0.00641752639785409,0.10983572900295258
1772905492908600000,7.24360009765625,0.053757961839437485,-0.009206829592585564,0.12616485357284546
1772905492918600000,7.253599853515625,0.07139338552951813,-0.011722525581717491,0.14378218352794647
1772905492928600000,7.26360009765625,0.08993479609489441,-0.013369491323828697,0.16001124680042267
1772905492938600000,7.273599853515625,0.10625647753477097,-0.014550154097378254,0.17582403123378754
1772905492948600000,7.28360009765625,0.12203945964574814,-0.01480672787874937,0.18968112766742706
1772905492958600000,7.293599853515625,0.13466158509254456,-0.014312744140625,0.1994905322790146
1772905492968600000,7.30360009765625,0.14594975113868713,-0.013847505673766136,0.20577816665172577
1772905492978600000,7.313599853515625,0.1526281088590622,-0.013501504436135292,0.20645952224731445
1772905492988600000,7.32360009765625,0.15501178801059723,-0.012393235228955746,0.20351053774356842
1772905492998600000,7.333599853515625,0.15444114804267883,-0.01004042662680149,0.19283665716648102
1772905493008600000,7.34360009765625,0.15367676317691803,-0.00881185568869114,0.18184764683246613
1772905493018600000,7.353599853515625,0.1502646505832672,-0.006662388797849417,0.16791710257530212
1772905493028600000,7.36360009765625,0.142250195145607,-0.004175437614321709,0.1522246152162552
1772905493038600000,7.373599853515625,0.13410159945487976,-0.0025912837591022253,0.13268353044986725
1772905493048600000,7.38360009765625,0.12545475363731384,-0.000012775433788192458,0.11499381065368652
1772905493058600000,7.393599853515625,0.11874020844697952,0.0031544675584882498,0.09809403866529465
1772905493068600000,7.40360009765625,0.11227370798587799,0.00520492484793067,0.0843072161078453
1772905493078600000,7.413599853515625,0.10740626603364944,0.005845825653523207,0.07195869833230972
1772905493088600000,7.42360009765625,0.10466700047254562,0.007613094057887793,0.061947014182806015
1772905493098600000,7.433599853515625,0.10381743311882019,0.007735525257885456,0.056133124977350235
1772905493108600000,7.44360009765625,0.10510562360286713,0.009300515986979008,0.05062904581427574
1772905493118600000,7.453599853515625,0.10824944078922272,0.01213985588401556,0.04926952347159386
1772905493128600000,7.46360009765625,0.11005184799432755,0.01320873387157917,0.04918116331100464
1772905493138600000,7.473599853515625,0.11080240458250046,0.01541675440967083,0.04610973596572876
1772905493148600000,7.48360009765625,0.11337345838546753,0.016608063131570816,0.04651641845703125
1772905493158600000,7.493599853515625,0.11547501385211945,0.01755238138139248,0.045235682278871536
1772905493168600000,7.50360009765625,0.11986018717288971,0.01867981255054474,0.04439995437860489
1772905493178600000,7.513599853515625,0.12231839448213577,0.021330716088414192,0.04255177453160286
1772905493188600000,7.52360009765625,0.12276233732700348,0.022252677008509636,0.0406343974173069
1772905493198600000,7.533599853515625,0.12066823244094849,0.022338910028338432,0.03485351428389549
1772905493208600000,7.54360009765625,0.11762448400259018,0.02327151782810688,0.02925254963338375
1772905493218600000,7.553599853515625,0.11344797909259796,0.02629610151052475,0.021097565069794655
1772905493228600000,7.56360009765625,0.10801735520362854,0.02886609174311161,0.013355651870369911
1772905493238600000,7.573599853515625,0.1034916564822197,0.03330449014902115,0.00396357849240303
1772905493248600000,7.58360009765625,0.09748188406229019,0.03619493171572685,-0.003541989019140601
1772905493258600000,7.593599853515625,0.09189582616090775,0.03847960755228996,-0.013098013587296009
1772905493268600000,7.60360009765625,0.08737970888614655,0.04080473631620407,-0.020880382508039474
1772905493278600000,7.613599853515625,0.08551236242055893,0.04148183390498161,-0.026065079495310783
1772905493288600000,7.62360009765625,0.08208003640174866,0.04143499210476875,-0.03121890127658844
1772905493298600000,7.633599853515625,0.07991991937160492,0.041946008801460266,-0.034980203956365585
1772905493308600000,7.64360009765625,0.07742445170879364,0.04156274348497391,-0.03575737401843071
1772905493318600000,7.653599853515625,0.07739783823490143,0.03936750069260597,-0.03576163202524185
1772905493328600000,7.66360009765625,0.0809728279709816,0.03739263117313385,-0.0336206816136837
1772905493338600000,7.673599853515625,0.0850556418299675,0.033822961151599884,-0.027371367439627647
1772905493348600000,7.68360009765625,0.08825588971376419,0.03233888000249863,-0.02267320081591606
1772905493358600000,7.693599853515625,0.09220349788665771,0.030085081234574318,-0.015941612422466278
1772905493368600000,7.70360009765625,0.09670790284872055,0.02730323188006878,-0.00899284053593874
1772905493378600000,7.713599853515625,0.10033825784921646,0.02574462816119194,-0.0024102984461933374
1772905493388600000,7.72360009765625,0.10335219651460648,0.02224096469581127,0.004320225678384304
1772905493398600000,7.733599853515625,0.10602651536464691,0.0663641169667244,0.03304898366332054
1772905493408600000,7.74360009765625,0.10989534854888916,0.054116737097501755,0.0521993562579155
1772905493418600000,7.753599853515625,0.11310623586177826,0.013719751499593258,0.02139885164797306
1772905493428600000,7.76360009765625,0.11815998703241348,0.011439336463809013,0.02574782259762287
1772905493438600000,7.773599853515625,0.12336491048336029,0.00919618271291256,0.03195774927735329
1772905493448600000,7.78360009765625,0.12623193860054016,0.005554120056331158,0.03570733591914177
1772905493458600000,7.793599853515625,0.12782353162765503,0.0006313193589448929,0.03659097105264664
1772905493468600000,7.80360009765625,0.13137830793857574,-0.0027413952630013227,0.03640146926045418
1772905493478600000,7.813599853515625,0.13381202518939972,-0.007894153706729412,0.03719248250126839
1772905493488600000,7.82360009765625,0.13401004672050476,-0.010731364600360394,0.03436698019504547
1772905493498600000,7.833599853515625,0.13146667182445526,-0.013133145868778229,0.029193995520472527
1772905493508600000,7.84360009765625,0.1260264664888382,-0.014559736475348473,0.022112146019935608
1772905493518600000,7.853599853515625,0.11737535893917084,-0.01683695800602436,0.01302774902433157
1772905493528600000,7.86360009765625,0.10907452553510666,-0.016028910875320435,0.0015852183569222689
1772905493538600000,7.873599853515625,0.09851669520139694,-0.0435652956366539,-0.03073769435286522
1772905493548600000,7.88360009765625,0.0845307856798172,-0.04573392495512962,-0.08120065927505493
1772905493558600000,7.893599853515625,0.07033621519804001,-0.04659413546323776,-0.13663433492183685
1772905493568600000,7.90360009765625,0.05240482836961746,-0.0474490262567997,-0.19084900617599487
1772905493578600000,7.913599853515625,0.03272853046655655,-0.05386868119239807,-0.2606550455093384
1772905493588600000,7.92360009765625,0.01613537222146988,-0.05391978472471237,-0.3279549777507782
1772905493598600000,7.933599853515625,0.00043755859951488674,-0.052820030599832535,-0.3772926330566406
1772905493608600000,7.94360009765625,-0.01899387687444687,-0.054476577788591385,-0.43506526947021484
1772905493618600000,7.953599853515625,-0.03676982596516609,-0.05307873338460922,-0.49364063143730164
1772905493628600000,7.96360009765625,-0.052050311118364334,-0.051954496651887894,-0.5406797528266907
1772905493638600000,7.973599853515625,-0.0637962594628334,-0.05430304631590843,-0.5797534584999084
1772905493648600000,7.98360009765625,-0.07159033417701721,-0.05426791310310364,-0.6112629771232605
1772905493658600000,7.993599853515625,-0.07718916982412338,-0.04929400980472565,-0.6247836351394653
1772905493668600000,8.00360009765625,-0.083287313580513,-0.046796415001153946,-0.6341001391410828
1772905493678600000,8.013599853515625,-0.08628953993320465,-0.04344818741083145,-0.6384725570678711
1772905493688600000,8.02360009765625,-0.08451268821954727,-0.04285944998264313,-0.6236594319343567
1772905493698600000,8.033599853515625,-0.08106864243745804,-0.04272637516260147,-0.5970003008842468
1772905493708600000,8.04360009765625,-0.07431789487600327,-0.04211528226733208,-0.5718113780021667
1772905493718600000,8.053599853515625,-0.06654936075210571,-0.042282428592443466,-0.5299601554870605
1772905493728600000,8.06360009765625,-0.05874144285917282,-0.0402926541864872,-0.49419423937797546
1772905493738600000,8.073599853515624,-0.052582621574401855,-0.018147503957152367,-0.13993039727210999
1772905493748600000,8.08360009765625,-0.04855729639530182,-0.01906414143741131,-0.13173814117908478
1772905493758600000,8.093599853515625,-0.04637163132429123,-0.02046198584139347,-0.12728802859783173
1772905493768600000,8.10360009765625,-0.047224391251802444,-0.020831409841775894,-0.12358741462230682
1772905493778600000,8.113599853515625,-0.05149032175540924,-0.05045444518327713,-0.4168208837509155
1772905493788600000,8.12360009765625,-0.05590317025780678,-0.04483112692832947,-0.42939722537994385
1772905493798600000,8.133599853515625,-0.062183357775211334,-0.03909921646118164,-0.44555601477622986
1772905493808600000,8.14360009765625,-0.070212721824646,-0.032794538885354996,-0.4673573076725006
1772905493818600000,8.153599853515624,-0.07868815213441849,-0.02475879155099392,-0.49136340618133545
1772905493828600000,8.16360009765625,-0.08782684803009033,-0.020307617262005806,-0.5184377431869507
1772905493848600000,8.18360009765625,-0.10207358747720718,0.000517405045684427,-0.16959601640701294
1772905493858600000,8.193599853515625,-0.1059136688709259,0.0023432273883372545,-0.1758197844028473
1772905493868600000,8.20360009765625,-0.10903513431549072,0.0033375821076333523,-0.17894336581230164
1772905493878600000,8.213599853515625,-0.10886585712432861,0.006055555772036314,-0.18121100962162018
1772905493888600000,8.22360009765625,-0.10475003719329834,0.008082590997219086,-0.177964985370636
1772905493898600000,8.233599853515624,-0.09887972474098206,0.009888186119496822,-0.17182958126068115
1772905493908600000,8.24360009765625,-0.08778107166290283,0.010990066453814507,-0.16372570395469666
1772905493918600000,8.253599853515626,-0.07404002547264099,0.01032574474811554,-0.14875289797782898
1772905493938600000,8.273599853515625,-0.05281683802604675,0.010197989642620087,-0.12255899608135223
1772905493948600000,8.28360009765625,-0.03904704749584198,0.006690068636089563,-0.10754892230033875
1772905493958600000,8.293599853515625,-0.025469956919550896,0.004813144449144602,-0.09387069195508957
1772905493968600000,8.30360009765625,-0.01134777907282114,0.00025018557789735496,-0.08009451627731323
1772905493978600000,8.313599853515624,0.00036303524393588305,-0.004521438851952553,-0.06666646897792816
1772905493988600000,8.32360009765625,0.008540377952158451,-0.00919724814593792,-0.054838549345731735
1772905493998600000,8.333599853515626,0.0160863995552063,-0.012364490889012814,-0.04430839791893959
1772905494008600000,8.34360009765625,0.025138860568404198,-0.015938417986035347,-0.03266465663909912
1772905494018600000,8.353599853515625,0.031927939504384995,-0.017593901604413986,-0.021679911762475967
1772905494028600000,8.36360009765625,0.03642595559358597,-0.018525443971157074,-0.010437529534101486
1772905494038600000,8.373599853515625,0.03864462301135063,-0.020305488258600235,-0.003283286467194557
1772905494048600000,8.38360009765625,0.037617266178131104,-0.02346101962029934,0.004006163217127323
1772905494058600000,8.393599853515624,0.03660694137215614,-0.02643769606947899,0.00763651542365551
1772905494068600000,8.40360009765625,0.03823793679475784,-0.029832767322659492,0.011643743142485619
1772905494078600000,8.413599853515626,0.04031394422054291,-0.028883125633001328,0.01863935776054859
1772905494088600000,8.42360009765625,0.041197579354047775,-0.023528089746832848,0.023713333532214165
1772905494098600000,8.433599853515625,0.04279131442308426,-0.019943516701459885,0.03083989769220352
1772905494108600000,8.44360009765625,0.04149248078465462,-0.014412818476557732,0.03403162583708763
1772905494118600000,8.453599853515625,0.040670592337846756,-0.010538668371737003,0.038725532591342926
1772905494128600000,8.46360009765625,0.039469704031944275,-0.002875537145882845,0.040648236870765686
1772905494138600000,8.473599853515625,0.03756829351186752,0.0033886837773025036,0.04408589377999306
1772905494148600000,8.48360009765625,0.031950294971466064,0.012382589280605316,0.0436621755361557
1772905494158600000,8.493599853515626,0.026495184749364853,0.019291969016194344,0.042759377509355545
1772905494168600000,8.50360009765625,0.021741658449172974,0.026951907202601433,0.03847428411245346
1772905494178600000,8.513599853515625,0.017452307045459747,0.031425438821315765,0.03834546357393265
1772905494188600000,8.52360009765625,0.012826535850763321,0.037787605077028275,0.03624603524804115
1772905494198600000,8.533599853515625,0.007509825751185417,0.04428178444504738,0.037430956959724426
1772905494208600000,8.54360009765625,0.0005695714498870075,0.050039246678352356,0.038409341126680374
1772905494218600000,8.553599853515625,-0.006909380666911602,0.05314580351114273,0.03746183216571808
1772905494228600000,8.56360009765625,-0.009715717285871506,0.054592620581388474,0.03803885355591774
1772905494238600000,8.573599853515624,-0.013537701219320297,0.05686132609844208,0.04142434522509575
1772905494248600000,8.58360009765625,-0.015739334747195244,0.05664627254009247,0.047509707510471344
1772905494258600000,8.593599853515625,-0.019123759120702744,0.05773644521832466,0.05194278433918953
1772905494268600000,8.60360009765625,-0.017404399812221527,0.05512280389666557,0.060119062662124634
1772905494278600000,8.613599853515625,-0.015864958986639977,0.05190020054578781,0.06949516385793686
1772905494288600000,8.62360009765625,-0.010162857361137867,0.04973689466714859,0.08041922748088837
1772905494298600000,8.633599853515625,-0.005710619036108255,0.044439345598220825,0.0932106301188469
1772905494308600000,8.64360009765625,-0.002329387469217181,0.04048002511262894,0.10587747395038605
1772905494318600000,8.653599853515624,0.001981256762519479,0.03690610080957413,0.1167653352022171
1772905494328600000,8.66360009765625,0.009140823036432266,0.03417854383587837,0.12918305397033691
1772905494338600000,8.673599853515626,0.014478825032711029,0.029579387977719307,0.14140808582305908
1772905494348600000,8.68360009765625,0.01733732782304287,0.02725745178759098,0.14958329498767853
1772905494358600000,8.693599853515625,0.018664909526705742,0.022302713245153427,0.15596036612987518
1772905494368600000,8.70360009765625,0.014770531095564365,0.017403334379196167,0.15325303375720978
1772905494378600000,8.713599853515625,0.010245897807180882,0.012639162130653858,0.14763398468494415
1772905494388600000,8.72360009765625,0.003920993767678738,0.00952195655554533,0.13715386390686035
1772905494398600000,8.733599853515624,-0.003919928800314665,0.004800369031727314,0.12484047561883926
1772905494408600000,8.74360009765625,-0.016538864001631737,0.0013903930084779859,0.1066216379404068
1772905494418600000,8.753599853515626,-0.030707884579896927,-0.00501861609518528,0.08443070948123932
1772905494428600000,8.76360009765625,-0.04774286225438118,-0.013153373263776302,0.05984652042388916
1772905494438600000,8.773599853515625,-0.06464369595050812,-0.01695193536579609,0.034765150398015976
1772905494448600000,8.78360009765625,-0.07652272284030914,-0.024891868233680725,0.013537701219320297
1772905494458600000,8.793599853515625,-0.08741377294063568,-0.032073792070150375,-0.005357165355235338
1772905494468600000,8.80360009765625,-0.09813236445188522,-0.042948879301548004,-0.022825442254543304
1772905494478600000,8.813599853515624,-0.10565602779388428,-0.05313835293054581,-0.04036824032664299
1772905494488600000,8.82360009765625,-0.10631290078163147,-0.06768850982189178,-0.05027878284454346
1772905494498600000,8.833599853515626,-0.10310094803571701,-0.07932479679584503,-0.05608309060335159
1772905494508600000,8.84360009765625,-0.09686653316020966,-0.09426353871822357,-0.051983240991830826
1772905494518600000,8.853599853515625,-0.08722107857465744,-0.10839210450649261,-0.04796004295349121
1772905494528600000,8.86360009765625,-0.07261130958795547,-0.12206607311964035,-0.03370052948594093
1772905494538600000,8.873599853515625,-0.055584847927093506,-0.1302253156900406,-0.014796081930398941
1772905494548600000,8.88360009765625,-0.03493761643767357,-0.13620954751968384,0.010558895766735077
1772905494558600000,8.893599853515624,-0.01281269546598196,-0.1358688622713089,0.04219832271337509
1772905494568600000,8.90360009765625,0.004463949706405401,-0.13334998488426208,0.0778588131070137
1772905494578600000,8.913599853515626,0.021099694073200226,-0.13000601530075073,0.10911178588867188
1772905494588600000,8.92360009765625,0.03177037462592125,-0.12322970479726791,0.13861346244812012
1772905494598600000,8.933599853515625,0.03941647335886955,-0.11566558480262756,0.16174763441085815
1772905494608600000,8.94360009765625,0.04215254262089729,-0.10461696237325668,0.1793638914823532
1772905494618600000,8.953599853515625,0.039522934705019,-0.09041281044483185,0.19017723202705383
1772905494628600000,8.96360009765625,0.029172703623771667,-0.07270286232233047,0.19227027893066406
1772905494638600000,8.973599853515625,0.012705168686807156,-0.052944593131542206,0.18505215644836426
1772905494648600000,8.98360009765625,-0.009561347775161266,-0.028880996629595757,0.16908712685108185
1772905494658600000,8.993599853515626,-0.03794090822339058,-0.005528568755835295,0.14779900014400482
1772905494668600000,9.00360009765625,-0.07281358540058136,0.01746188849210739,0.11566558480262756
1772905494678600000,9.013599853515625,-0.11021898686885834,0.03789406642317772,0.07793227583169937
1772905494688600000,9.02360009765625,-0.15218202769756317,0.056235332041978836,0.035382628440856934
1772905494698600000,9.033599853515625,-0.19253110885620117,0.07289023697376251,-0.00793780293315649
1772905494708600000,9.04360009765625,-0.22569294273853302,0.07520684599876404,-0.0573020800948143
1772905494718600000,9.053599853515625,-0.25240638852119446,0.0685252994298935,-0.10006571561098099
1772905494728600000,9.06360009765625,-0.27597492933273315,0.06321923434734344,-0.14624571800231934
1772905494738600000,9.073599853515624,-0.2933867871761322,0.05993594601750374,-0.1810055375099182
1772905494748600000,9.08360009765625,-0.30363374948501587,0.052625205367803574,-0.20749327540397644
1772905494758600000,9.093599853515625,-0.30611324310302734,0.04471614584326744,-0.22272798418998718
1772905494768600000,9.10360009765625,-0.2986023426055908,0.031191222369670868,-0.22715359926223755
1772905494778600000,9.113599853515625,-0.2829928994178772,0.016266321763396263,-0.2193659096956253
1772905494788600000,9.12360009765625,-0.25997689366340637,-0.0030458762776106596,-0.2025694102048874
1772905494798600000,9.133599853515625,-0.23139610886573792,-0.022872284054756165,-0.17771054804325104
1772905494808600000,9.14360009765625,-0.19893799722194672,-0.04600965976715088,-0.14442308247089386
1772905494818600000,9.153599853515624,-0.16508841514587402,-0.06947600096464157,-0.11136771738529205
1772905494828600000,9.16360009765625,-0.12977072596549988,-0.09154237061738968,-0.0783432200551033
1772905494838600000,9.173599853515626,-0.10004229098558426,-0.1150268092751503,-0.049965787678956985
1772905494848600000,9.18360009765625,-0.07544106245040894,-0.12073104083538055,-0.02190135233104229
1772905494858600000,9.193599853515625,-0.06066947057843208,-0.11905639618635178,-0.004327678121626377
1772905494868600000,9.20360009765625,-0.05215144902467728,-0.1185038611292839,0.005759591236710548
1772905494878600000,9.213599853515625,-0.05016699805855751,-0.12348734587430954,0.002378359902650118
1772905494888600000,9.22360009765625,-0.055605076253414154,-0.12565064430236816,-0.011412721127271652
1772905494898600000,9.233599853515624,-0.06675483286380768,-0.12622235715389252,-0.03535175323486328
1772905494908600000,9.24360009765625,-0.08103670924901962,-0.12124951183795929,-0.06594359874725342
1772905494918600000,9.253599853515626,-0.09943226724863052,-0.11771710216999054,-0.10146994888782501
1772905494928600000,9.26360009765625,-0.11981866508722305,-0.11086734384298325,-0.14288683235645294
1772905494938600000,9.273599853515625,-0.13918834924697876,-0.1044253334403038,-0.18281538784503937
1772905494948600000,9.28360009765625,-0.15912121534347534,-0.09727002680301666,-0.22532564401626587
1772905494958600000,9.293599853515625,-0.1739332675933838,-0.09207255393266678,-0.26155146956443787
1772905494968600000,9.30360009765625,-0.18503086268901825,-0.08847626298666,-0.2894796133041382
1772905494978600000,9.313599853515624,-0.1870887726545334,-0.08387710899114609,-0.3070692718029022
1772905494988600000,9.32360009765625,-0.19359679520130157,-0.05324481427669525,-0.28772085905075073
1772905494998600000,9.333599853515626,-0.18742945790290833,-0.050993144512176514,-0.2903813421726227
1772905495008600000,9.34360009765625,-0.17541202902793884,-0.05372282862663269,-0.28232964873313904
1772905495018600000,9.353599853515625,-0.15538547933101654,-0.056901782751083374,-0.2657971680164337
1772905495028600000,9.36360009765625,-0.12909363210201263,-0.06342577189207077,-0.2356918454170227
1772905495038600000,9.373599853515625,-0.09848368912935257,-0.07134547829627991,-0.20073826611042023
1772905495048600000,9.38360009765625,-0.06248251721262932,-0.0811101645231247,-0.1591382622718811
1772905495058600000,9.393599853515624,-0.025831926614046097,-0.08942271023988724,-0.11441358923912048
1772905495068600000,9.40360009765625,0.006091752555221319,-0.08469793200492859,-0.06328098475933075
1772905495078600000,9.413599853515626,0.03337901458144188,-0.0707130879163742,-0.020539702847599983
1772905495088600000,9.42360009765625,0.0597081184387207,-0.05879254639148712,0.025231482461094856
1772905495098600000,9.433599853515625,0.0811314582824707,-0.04941537603735924,0.06381009519100189
1772905495108600000,9.44360009765625,0.09613513946533203,-0.03758106753230095,0.09747868776321411
1772905495118600000,9.453599853515625,0.1055208221077919,-0.026180056855082512,0.12463180720806122
1772905495128600000,9.46360009765625,0.10747866332530975,-0.011460628360509872,0.14368955790996552
1772905495138600000,9.473599853515625,0.10402077436447144,0.0030022270511835814,0.15441986918449402
1772905495148600000,9.48360009765625,0.09435615688562393,0.021030493080615997,0.15776489675045013
1772905495158600000,9.493599853515626,0.08113997429609299,0.03958042338490486,0.15570592880249023
1772905495168600000,9.50360009765625,0.0633682832121849,0.06137850880622864,0.14597423374652863
1772905495178600000,9.513599853515625,0.04436269402503967,0.08479481190443039,0.13607433438301086
1772905495188600000,9.52360009765625,0.023144828155636787,0.1083143875002861,0.12322331964969635
1772905495198600000,9.533599853515625,0.005141047295182943,0.13381308317184448,0.11374607682228088
1772905495208600000,9.54360009765625,-0.010233122855424881,0.14218206703662872,0.09983149915933609
1772905495218600000,9.553599853515625,-0.020371492952108383,0.14336059987545013,0.09060125052928925
1772905495228600000,9.56360009765625,-0.02574462816119194,0.1435958743095398,0.08188414573669434
1772905495238600000,9.573599853515624,-0.028210287913680077,0.1446722000837326,0.08119852840900421
1772905495248600000,9.58360009765625,-0.027180800214409828,0.14132823050022125,0.0840676799416542
1772905495258600000,9.593599853515625,-0.023959262296557426,0.13419102132320404,0.08807916194200516
1772905495268600000,9.60360009765625,-0.01803571917116642,0.11992619186639786,0.09575400501489639
1772905495278600000,9.613599853515625,-0.009186601266264915,0.10540584474802017,0.10498744994401932
1772905495288600000,9.62360009765625,0.004287222865968943,0.08856462687253952,0.11738068610429764
1772905495298600000,9.633599853515625,0.017922868952155113,0.0718543604016304,0.13205645978450775
1772905495308600000,9.64360009765625,0.035263389348983765,0.05350670963525772,0.1470324695110321
1772905495318600000,9.653599853515624,0.05123161897063255,0.032958488911390305,0.16255994141101837
1772905495328600000,9.66360009765625,0.06754584610462189,0.013191699981689453,0.17346270382404327
1772905495338600000,9.673599853515626,0.08028402179479599,-0.009048201143741608,0.18341903388500214
1772905495358600000,9.693599853515625,0.10095573961734772,-0.04723503813147545,0.19076064229011536
1772905495368600000,9.70360009765625,0.10445833206176758,-0.06506528705358505,0.1869567632675171
1772905495378600000,9.713599853515625,0.10590621829032898,-0.08162224292755127,0.18017619848251343
1772905495388600000,9.72360009765625,0.10972180962562561,-0.09655459970235825,0.17133879661560059
1772905495398600000,9.733599853515624,0.11197029054164886,-0.10793963819742203,0.16725598275661469
1772905495408600000,9.74360009765625,0.11670784652233124,-0.11393983662128448,0.16035085916519165
1772905495418600000,9.753599853515626,0.11834203451871872,-0.1189563199877739,0.15548767149448395
1772905495428600000,9.76360009765625,0.12112069129943848,-0.12308704853057861,0.14731672406196594
1772905495438600000,9.773599853515625,0.12247808277606964,-0.42107829451560974,0.46624264121055603
1772905495448600000,9.78360009765625,0.1230497807264328,-0.42245805263519287,0.4485177993774414
1772905495458600000,9.793599853515625,0.12166258692741394,-0.4144957661628723,0.42503228783607483
1772905495468600000,9.80360009765625,0.11959828436374664,-0.31696170568466187,0.41187891364097595
1772905495478600000,9.813599853515624,0.11686114966869354,-0.30812960863113403,0.38228994607925415
1772905495488600000,9.82360009765625,0.11480430513620377,-0.3002546429634094,0.3655126094818115
1772905495498600000,9.833599853515626,0.11126551032066345,-0.29274800419807434,0.336444228887558
1772905495508600000,9.84360009765625,0.11077259480953217,-0.2836987376213074,0.31583109498023987
1772905495518600000,9.853599853515625,0.10791302472352982,-0.27421829104423523,0.2913384437561035
1772905495528600000,9.86360009765625,0.10272939503192902,-0.26583442091941833,0.2685800790786743
1772905495538600000,9.873599853515625,0.09743610769510269,-0.2593168318271637,0.22998230159282684
1772905495548600000,9.88360009765625,0.08971867710351944,-0.25295040011405945,0.20710788667201996
1772905495558600000,9.893599853515624,0.08315849304199219,-0.24983425438404083,0.1738065779209137
1772905495568600000,9.90360009765625,0.07582007348537445,-0.24073708057403564,0.153521329164505
1772905495578600000,9.913599853515626,0.0714561939239502,-0.23522767424583435,0.1365874856710434
1772905495588600000,9.92360009765625,0.06463836878538132,-0.22818201780319214,0.12674614787101746
1772905495598600000,9.933599853515625,0.062143970280885696,-0.2226896584033966,0.11610952764749527
1772905495608600000,9.94360009765625,0.061465807259082794,-0.21731971204280853,0.11378440260887146
1772905495618600000,9.953599853515625,0.06495669484138489,-0.2143036425113678,0.13089922070503235
1772905495628600000,9.96360009765625,0.06953348964452744,-0.20598576962947845,0.14467327296733856
1772905495638600000,9.973599853515625,0.07715936005115509,-0.19664160907268524,0.18031354248523712
1772905495648600000,9.98360009765625,0.08064918220043182,-0.1887272298336029,0.20900076627731323
1772905495658600000,9.993599853515626,0.08604361116886139,-0.18020175397396088,0.23712483048439026
1772905495668600000,10.00360009765625,0.09291999042034149,-0.1688411980867386,0.2623903751373291
1772905495678600000,10.013599853515625,0.09758727997541428,-0.1533573716878891,0.29075929522514343
1772905495688600000,10.02360009765625,0.09423159807920456,-0.13724222779273987,0.2939680516719818
1772905495698600000,10.033599853515625,0.0891331359744072,-0.045854225754737854,0.08301902562379837
1772905495708600000,10.04360009765625,0.08467450737953186,-0.0405779704451561,0.07290088385343552
1772905495718600000,10.053599853515625,0.0749736949801445,-0.032937198877334595,0.059764545410871506
1772905495728600000,10.06360009765625,0.07170425355434418,-0.026699591428041458,0.039373885840177536
1772905495738600000,10.073599853515624,0.06244099885225296,-0.025690332055091858,0.019508088007569313
1772905495748600000,10.08360009765625,0.04766407981514931,-0.022988328710198402,-0.008353004232048988
1772905495758600000,10.093599853515625,0.02975398488342762,-0.017703557386994362,-0.04186190292239189
1772905495768600000,10.10360009765625,0.009359070099890232,-0.014895090833306313,-0.07566889375448227
1772905495778600000,10.113599853515625,-0.01311185397207737,-0.011629903689026833,-0.11647149920463562
1772905495788600000,10.12360009765625,-0.034951455891132355,-0.008419010788202286,-0.154086634516716
1772905495798600000,10.133599853515625,-0.054666079580783844,-0.0021217865869402885,-0.19378097355365753
1772905495808600000,10.14360009765625,-0.07460320740938187,0.0003843276354018599,-0.22977575659751892
1772905495818600000,10.153599853515624,-0.08923427760601044,0.0015405043959617615,-0.26473572850227356
1772905495828600000,10.16360009765625,-0.09107713401317596,0.002354938304051757,-0.2924712002277374
1772905495838600000,10.173599853515626,-0.08949191123247147,0.0010571671882644296,-0.30417031049728394
1772905495848600000,10.18360009765625,-0.09149233251810074,-0.0009762560366652906,-0.3133547902107239
1772905495858600000,10.193599853515625,-0.08702944964170456,-0.004644935019314289,-0.31994688510894775
1772905495868600000,10.20360009765625,-0.08552833646535873,-0.006370683200657368,-0.31643152236938477
1772905495878600000,10.213599853515625,-0.07739996910095215,-0.00464706402271986,-0.3093571364879608
1772905495888600000,10.22360009765625,-0.06411032378673553,-0.00276162289083004,-0.29467177391052246
1772905495898600000,10.233599853515624,-0.04973902180790901,-0.000453527900390327,-0.2756512761116028
1772905495908600000,10.24360009765625,-0.032482605427503586,0.000561054446734488,-0.25983208417892456
1772905495918600000,10.253599853515626,-0.01568184420466423,0.0014372363220900297,-0.24138756096363068
1772905495928600000,10.26360009765625,0.0026200285647064447,0.002345356624573469,-0.22880269587039948
1772905495938600000,10.273599853515625,0.015810664743185043,0.0014170085778459907,-0.21672245860099792
1772905495948600000,10.28360009765625,0.02641427330672741,0.0007026488310657442,-0.21163570880889893
1772905495958600000,10.293599853515625,0.03260929509997368,0.00571594201028347,-0.20830132067203522
1772905495968600000,10.30360009765625,0.034715112298727036,0.011256221681833267,-0.20557695627212524
1772905495978600000,10.313599853515624,0.03216215595602989,0.01877669431269169,-0.21319112181663513
1772905495988600000,10.32360009765625,0.030008429661393166,0.026375947520136833,-0.22206684947013855
1772905495998600000,10.333599853515626,0.02350999228656292,0.03325658291578293,-0.23661062121391296
1772905496008600000,10.34360009765625,0.017012618482112885,0.04163833335042,-0.25303342938423157
1772905496018600000,10.353599853515625,0.008690488524734974,0.04894481599330902,-0.2718473970890045
1772905496028600000,10.36360009765625,-0.000860212545376271,0.05805050581693649,-0.2887982726097107
1772905496038600000,10.373599853515625,-0.008573380298912525,0.0643211156129837,-0.3065018057823181
1772905496048600000,10.38360009765625,-0.011154018342494965,0.07261556386947632,-0.31723636388778687
1772905496058600000,10.393599853515624,-0.010193731635808945,0.08273903280496597,-0.31966158747673035
1772905496068600000,10.40360009765625,-0.011560702696442604,0.09045539796352386,-0.3143044114112854
1772905496078600000,10.413599853515626,-0.00461193174123764,0.09798012673854828,-0.3081029951572418
1772905496088600000,10.42360009765625,0.0024752402678132057,0.10559960454702377,-0.2874791920185089
1772905496098600000,10.433599853515625,0.016132179647684097,0.11204162240028381,-0.2624489367008209
1772905496108600000,10.44360009765625,0.03278495743870735,0.11740516871213913,-0.23037514090538025
1772905496118600000,10.453599853515625,0.05374731495976448,0.11959616094827652,-0.19311559200286865
1772905496128600000,10.46360009765625,0.07416246086359024,0.12207991629838943,-0.15331585705280304
1772905496138600000,10.473599853515625,0.09892763942480087,0.12548883259296417,-0.1105671226978302
1772905496148600000,10.48360009765625,0.1230657547712326,0.12690795958042145,-0.06746387481689453
1772905496158600000,10.493599853515626,0.14785754680633545,0.12749670445919037,-0.025924548506736755
1772905496168600000,10.50360009765625,0.1710800975561142,0.12560273706912994,0.012483728118240833
1772905496178600000,10.513599853515625,0.19353611767292023,0.12606371939182281,0.050320304930210114
1772905496188600000,10.52360009765625,0.2069833129644394,0.1255069226026535,0.08612771332263947
1772905496198600000,10.533599853515625,0.2181309461593628,0.12682917714118958,0.1137726902961731
1772905496208600000,10.54360009765625,0.23558752238750458,0.1310919225215912,0.13696861267089844
1772905496218600000,10.553599853515625,0.24498917162418365,0.132932648062706,0.16479244828224182
1772905496228600000,10.56360009765625,0.25156211853027344,0.13563571870326996,0.17877089977264404
1772905496238600000,10.573599853515624,0.2509606182575226,0.134396493434906,0.18713241815567017
1772905496248600000,10.58360009765625,0.24608679115772247,0.13211821019649506,0.18729956448078156
1772905496258600000,10.593599853515625,0.24016112089157104,0.12959718704223633,0.18561214208602905
1772905496268600000,10.60360009765625,0.2339426726102829,0.12701761722564697,0.18052859604358673
1772905496278600000,10.613599853515625,0.22660745680332184,0.12418360263109207,0.1750500649213791
1772905496288600000,10.62360009765625,0.2186259925365448,0.12123461067676544,0.16904135048389435
1772905496298600000,10.633599853515625,0.2119731903076172,0.11903829872608185,0.16478818655014038
1772905496308600000,10.64360009765625,0.2106296420097351,0.11861883848905563,0.1626994013786316
1772905496318600000,10.653599853515624,0.20858770608901978,0.11125167459249496,0.16504263877868652
1772905496328600000,10.66360009765625,0.2093403935432434,0.10470106452703476,0.16345742344856262
1772905496338600000,10.673599853515626,0.2106136679649353,0.09746059030294418,0.16878584027290344
1772905496348600000,10.68360009765625,0.21090218424797058,0.08793650567531586,0.17495104670524597
1772905496358600000,10.693599853515625,0.21212436258792877,0.08140293508768082,0.18088524043560028
1772905496368600000,10.70360009765625,0.2155386060476303,0.07243883609771729,0.19075745344161987
1772905496378600000,10.713599853515625,0.21965867280960083,0.06406453996896744,0.20071910321712494
1772905496388600000,10.72360009765625,0.2223127782344818,0.05481938645243645,0.21186140179634094
1772905496398600000,10.733599853515624,0.22367443144321442,0.04735853150486946,0.2214035838842392
1772905496408600000,10.74360009765625,0.22858338057994843,0.04056626185774803,0.23261083662509918
1772905496418600000,10.753599853515626,0.23130029439926147,0.032116375863552094,0.24511905014514923
1772905496428600000,10.76360009765625,0.23353706300258636,0.026567578315734863,0.2532027065753937
1772905496438600000,10.773599853515625,0.2317410409450531,0.019917966797947884,0.2614971697330475
1772905496448600000,10.78360009765625,0.22611773014068604,0.01482908520847559,0.26519352197647095
1772905496458600000,10.793599853515625,0.21940317749977112,0.014798210933804512,0.2661633789539337
1772905496468600000,10.80360009765625,0.2127854973077774,0.014539508149027824,0.26631349325180054
1772905496478600000,10.813599853515624,0.20480617880821228,0.012769046239554882,0.2645377218723297
1772905496488600000,10.82360009765625,0.1947103887796402,0.012742430903017521,0.2577454447746277
1772905496498600000,10.833599853515626,0.1856675148010254,0.011807695031166077,0.25015363097190857
1772905496508600000,10.84360009765625,0.17742203176021576,0.010107497684657574,0.240232452750206
1772905496518600000,10.853599853515625,0.16781915724277496,0.007619481533765793,0.23084038496017456
1772905496528600000,10.86360009765625,0.16142292320728302,0.005674421787261963,0.21955540776252747
1772905496538600000,10.873599853515625,0.15156136453151703,0.004233991727232933,0.20852914452552795
1772905496548600000,10.88360009765625,0.13967913389205933,0.0015362459234893322,0.19378310441970825
1772905496558600000,10.893599853515624,0.12627558410167694,0.000012775433788192458,0.17493614554405212
1772905496568600000,10.90360009765625,0.11098019033670425,-0.0050324564799666405,0.15776702761650085
1772905496578600000,10.913599853515626,0.09646730124950409,-0.005916090682148933,0.13486918807029724
1772905496588600000,10.92360009765625,0.08313187956809998,-0.00944849755614996,0.11391641199588776
1772905496598600000,10.933599853515625,0.07037986814975739,-0.012804178521037102,0.09225140511989594
1772905496608600000,10.94360009765625,0.056181035935878754,-0.016271643340587616,0.07241648435592651
1772905496618600000,10.953599853515625,0.041728824377059937,-0.017211703583598137,0.05034053325653076
1772905496628600000,10.96360009765625,0.024657651782035828,-0.020155375823378563,0.0328105092048645
1772905496638600000,10.973599853515625,0.0062312176451087,-0.022938290610909462,0.012134532444179058
1772905496648600000,10.98360009765625,-0.008905542083084583,-0.024269064888358116,-0.0062077962793409824
1772905496658600000,10.993599853515626,-0.019652875140309334,-0.02692529186606407,-0.02031506970524788
1772905496668600000,11.00360009765625,-0.036030981689691544,-0.029266389086842537,-0.03544757142663002
1772905496678600000,11.013599853515625,-0.04868292063474655,-0.07425294816493988,-0.17222349345684052
1772905496688600000,11.02360009765625,-0.06012864410877228,-0.07317555695772171,-0.2118252068758011
1772905496698600000,11.033599853515625,-0.06923646479845047,-0.07551559060811996,-0.2460729479789734
1772905496708600000,11.04360009765625,-0.08159776031970978,-0.07209177315235138,-0.2807827293872833
1772905496718600000,11.053599853515625,-0.0927581638097763,-0.02475985512137413,-0.09644494205713272
1772905496728600000,11.06360009765625,-0.10373333096504211,-0.02404017187654972,-0.10493741184473038
1772905496738600000,11.073599853515624,-0.11604885011911392,-0.01971249468624592,-0.11323931813240051
1772905496748600000,11.08360009765625,-0.12944814562797546,-0.016243964433670044,-0.12118350714445114
1772905496758600000,11.093599853515625,-0.14273034036159515,-0.011408462189137936,-0.1319340318441391
1772905496768600000,11.10360009765625,-0.15639899671077728,-0.006980709731578827,-0.1415262520313263
1772905496778600000,11.113599853515625,-0.1697855144739151,-0.0008154985262081027,-0.15335097908973694
1772905496788600000,11.12360009765625,-0.18612529337406158,-0.0017768499674275517,-0.16724853217601776
1772905496798600000,11.133599853515625,-0.20305806398391724,-0.004307450260967016,-0.18711432814598083
1772905496808600000,11.14360009765625,-0.21726009249687195,-0.00809536688029766,-0.20570151507854462
1772905496818600000,11.153599853515624,-0.23162713646888733,-0.014235027134418488,-0.22330500185489655
1772905496828600000,11.16360009765625,-0.2483629435300827,-0.01837320253252983,-0.2407924383878708
1772905496838600000,11.173599853515626,-0.2623797357082367,-0.02149040810763836,-0.26041871309280396
1772905496848600000,11.18360009765625,-0.27060073614120483,-0.029068369418382645,-0.27212101221084595
1772905496858600000,11.193599853515625,-0.2761952877044678,-0.03818577155470848,-0.2812894880771637
1772905496868600000,11.20360009765625,-0.28169724345207214,-0.04632159322500229,-0.28871840238571167
1772905496878600000,11.213599853515625,-0.28422999382019043,-0.05801963433623314,-0.2941224277019501
1772905496888600000,11.22360009765625,-0.2848879098892212,-0.06769702583551407,-0.29677438735961914
1772905496898600000,11.233599853515624,-0.28267669677734375,-0.08078226447105408,-0.2947537302970886
1772905496908600000,11.24360009765625,-0.27880042791366577,-0.09065873920917511,-0.2909668982028961
1772905496918600000,11.253599853515626,-0.27357420325279236,-0.10013385117053986,-0.283369779586792
1772905496928600000,11.26360009765625,-0.26827558875083923,-0.10407719761133194,-0.2718122601509094
1772905496938600000,11.273599853515625,-0.2636987864971161,-0.1040271669626236,-0.2593253254890442
1772905496948600000,11.28360009765625,-0.25912198424339294,-0.10416769236326218,-0.2436264604330063
1772905496958600000,11.293599853515625,-0.25355082750320435,-0.1022588312625885,-0.2284119874238968
1772905496968600000,11.30360009765625,-0.2438766360282898,-0.10107497125864029,-0.21146003901958466
1772905496978600000,11.313599853515624,-0.23580150306224823,-0.10091528296470642,-0.19052430987358093
1772905496988600000,11.32360009765625,-0.2279030978679657,-0.09758621454238892,-0.17423242330551147
1772905496998600000,11.333599853515626,-0.21914872527122498,-0.08839961141347885,-0.1526068150997162
1772905497008600000,11.34360009765625,-0.2115878015756607,-0.07601063698530197,-0.12817485630512238
1772905497018600000,11.353599853515625,-0.20652872323989868,-0.0596623420715332,-0.10718056559562683
1772905497028600000,11.36360009765625,-0.19824279844760895,-0.04427752271294594,-0.0825740173459053
1772905497038600000,11.373599853515625,-0.19054879248142242,-0.03109860047698021,-0.058275140821933746
1772905497048600000,11.38360009765625,-0.18236292898654938,-0.019364364445209503,-0.036203451454639435
1772905497058600000,11.393599853515624,-0.17277923226356506,-0.008433915674686432,-0.014336165972054005
1772905497068600000,11.40360009765625,-0.16026142239570618,0.002348550595343113,0.008162437938153744
1772905497078600000,11.413599853515626,-0.1474636346101761,0.009537925943732262,0.03275834023952484
1772905497088600000,11.42360009765625,-0.13278360664844513,0.019898802042007446,0.0548960380256176
1772905497098600000,11.433599853515625,-0.11669187992811203,0.02634613774716854,0.07968038320541382
1772905497108600000,11.44360009765625,-0.10163283348083496,0.03437230363488197,0.10218004882335663
1772905497118600000,11.453599853515625,-0.08603083342313766,0.040523674339056015,0.1261499524116516
1772905497128600000,11.46360009765625,-0.07083019614219666,0.04440101981163025,0.1459933966398239
1772905497138600000,11.473599853515625,-0.0552377812564373,0.03953251615166664,0.16323703527450562
1772905497148600000,11.48360009765625,-0.0391002781689167,0.03624390438199043,0.17649687826633453
1772905497158600000,11.493599853515626,-0.022156860679388046,0.032602906227111816,0.192610964179039
1772905497168600000,11.50360009765625,-0.009146145544946194,0.028978941962122917,0.2043856531381607
1772905497178600000,11.513599853515625,0.003242830978706479,0.026890158653259277,0.213227316737175
1772905497188600000,11.52360009765625,0.014998359605669975,0.02353767305612564,0.22121302783489227
1772905497198600000,11.533599853515625,0.024054013192653656,0.021006006747484207,0.22798293828964233
1772905497208600000,11.54360009765625,0.030417243018746376,0.021101823076605797,0.22973529994487762
1772905497218600000,11.553599853515625,0.03371117636561394,0.021725689992308617,0.2303740680217743
1772905497228600000,11.56360009765625,0.03641318157315254,0.022756241261959076,0.22856315970420837
1772905497238600000,11.573599853515624,0.036703821271657944,0.025677558034658432,0.2249051183462143
1772905497248600000,11.58360009765625,0.03628010302782059,0.02749805711209774,0.21969062089920044
1772905497258600000,11.593599853515625,0.034571386873722076,0.03147973492741585,0.21191783249378204
1772905497268600000,11.60360009765625,0.03381124883890152,0.037572551518678665,0.2079893797636032
1772905497278600000,11.613599853515625,0.03152551129460335,0.04464801028370857,0.20486579835414886
1772905497288600000,11.62360009765625,0.02970394864678383,0.04915880411863327,0.20082662999629974
1772905497298600000,11.633599853515625,0.029477184638381004,0.04978160560131073,0.19711536169052124
1772905497308600000,11.64360009765625,0.03146057203412056,0.050054147839546204,0.19389276206493378
1772905497318600000,11.653599853515624,0.03363558650016785,0.048089925199747086,0.19330401718616486
1772905497328600000,11.66360009765625,0.03503023833036423,0.04774179682135582,0.1919572800397873
1772905497338600000,11.673599853515626,0.037978172302246094,0.04665375500917435,0.18967686593532562
1772905497348600000,11.68360009765625,0.042231325060129166,0.04560936242341995,0.18888798356056213
1772905497358600000,11.693599853515625,0.047198839485645294,0.04013615474104881,0.18525762856006622
1772905497368600000,11.70360009765625,0.05033520981669426,0.030322492122650146,0.1774560958147049
1772905497378600000,11.713599853515625,0.05302869528532028,0.01887357421219349,0.16839192807674408
1772905497388600000,11.72360009765625,0.05515474081039429,0.00779833784326911,0.15625952184200287
1772905497398600000,11.733599853515624,0.056186359375715256,-0.005443399306386709,0.14385351538658142
1772905497408600000,11.74360009765625,0.05434350296854973,-0.016153471544384956,0.12787996232509613
1772905497418600000,11.753599853515626,0.050104185938835144,-0.026133215054869652,0.11060544848442078
1772905497428600000,11.76360009765625,0.044773638248443604,-0.03633972257375717,0.09100580215454102
1772905497438600000,11.773599853515625,0.03868614137172699,-0.14786820113658905,0.23619434237480164
1772905497448600000,11.78360009765625,0.03150422126054764,-0.17971841990947723,0.17367030680179596
1772905497458600000,11.793599853515625,0.02368352562189102,-0.2079819291830063,0.10909262299537659
1772905497468600000,11.80360009765625,0.01938352733850479,-0.23923596739768982,0.050687599927186966
1772905497478600000,11.813599853515624,0.015698878094553947,-0.26771560311317444,0.003043747041374445
1772905497488600000,11.82360009765625,0.011590512469410896,-0.29772189259529114,-0.03726594150066376
1772905497498600000,11.833599853515626,0.007394846994429827,-0.2971757650375366,-0.06919920444488525
1772905497508600000,11.84360009765625,0.006564443930983543,-0.28758564591407776,-0.07701990008354187
1772905497518600000,11.853599853515625,0.0063110641203820705,-0.2693614959716797,-0.0809270516037941
1772905497528600000,11.86360009765625,0.007142532151192427,-0.251234233379364,-0.07145406305789948
1772905497538600000,11.873599853515625,0.008622352965176105,-0.22741656005382538,-0.061682987958192825
1772905497548600000,11.88360009765625,0.013017102144658566,-0.20901674032211304,-0.041675593703985214
1772905497568600000,11.90360009765625,0.024743886664509773,-0.13739553093910217,0.00781856570392847
1772905497578600000,11.913599853515626,0.030896322801709175,-0.12039142847061157,0.03477047383785248
1772905497588600000,11.92360009765625,0.037735436111688614,-0.10204377770423889,0.06186078116297722
1772905497598600000,11.933599853515625,0.0446256548166275,-0.08317232877016068,0.09284120798110962
1772905497608600000,11.94360009765625,0.051763929426670074,-0.061033569276332855,0.12011250108480453
1772905497618600000,11.953599853515625,0.05802815034985542,-0.04137217625975609,0.15486061573028564
1772905497628600000,11.96360009765625,0.06342044472694397,-0.0262503232806921,0.17704622447490692
1772905497638600000,11.973599853515625,0.07039690017700195,-0.017039235681295395,0.20375539362430573
1772905497648600000,11.98360009765625,0.07526753097772598,-0.010316162370145321,0.22337739169597626
1772905497658600000,11.993599853515626,0.0805853083729744,-0.0043841032311320305,0.2441183179616928
1772905497668600000,12.00360009765625,0.08715507388114929,0.0027201026678085327,0.26625069975852966
1772905497678600000,12.013599853515625,0.09401867538690567,0.010141565464437008,0.29385626316070557
1772905497688600000,12.02360009765625,0.09831015765666962,0.017477858811616898,0.31418943405151367
1772905497698600000,12.033599853515625,0.10202035307884216,0.02190135233104229,0.3299309015274048
1772905497708600000,12.04360009765625,0.10553891956806183,0.027409693226218224,0.3480805456638336
1772905497718600000,12.053599853515625,0.10787469893693924,0.030445987358689308,0.3554306626319885
1772905497728600000,12.06360009765625,0.11054369807243347,0.03306282311677933,0.35437455773353577
1772905497738600000,12.073599853515624,0.11054689437150955,0.03651964291930199,0.34808477759361267
1772905497748600000,12.08360009765625,0.10626179724931717,0.035722240805625916,0.32990962266921997
1772905497758600000,12.093599853515625,0.09941523522138596,0.037472475320100784,0.28823187947273254
1772905497768600000,12.10360009765625,0.09251543134450912,0.035193126648664474,0.2523967921733856
1772905497778600000,12.113599853515625,0.08238770812749863,0.032722145318984985,0.20082449913024902
1772905497788600000,12.12360009765625,0.072419673204422,0.030635491013526917,0.15065856277942657
1772905497798600000,12.133599853515625,0.06112086772918701,0.026266291737556458,0.09772355109453201
1772905497808600000,12.14360009765625,0.04758103936910629,0.02245069481432438,0.03584999591112137
1772905497818600000,12.153599853515624,0.03427435830235481,0.018307195976376534,-0.023928387090563774
1772905497828600000,12.16360009765625,0.019346265122294426,0.012450724840164185,-0.08626611530780792
1772905497838600000,12.173599853515626,0.005562637001276016,0.008617030456662178,-0.14706121385097504
1772905497848600000,12.18360009765625,-0.006834857165813446,0.00616521155461669,-0.20915088057518005
1772905497858600000,12.193599853515625,-0.017637550830841064,0.002694551832973957,-0.25623369216918945
1772905497868600000,12.20360009765625,-0.030965521931648254,0.001435107085853815,-0.3055489957332611
1772905497878600000,12.213599853515625,-0.04032246395945549,-0.00016075753956101835,-0.34960508346557617
1772905497888600000,12.22360009765625,-0.046648431569337845,-0.0007612029439769685,-0.385765939950943
1772905497898600000,12.233599853515624,-0.049799706786870956,-0.003219409380108118,-0.4055635929107666
1772905497908600000,12.24360009765625,-0.04992107301950455,-0.0030852672643959522,-0.4275895059108734
1772905497918600000,12.253599853515626,-0.04798239842057228,-0.00031832122476771474,-0.4302457273006439
1772905497928600000,12.26360009765625,-0.04395068436861038,-0.00002022776970989071,-0.436804860830307
1772905497938600000,12.273599853515625,-0.03900446370244026,0.0002672194968909025,-0.4347214102745056
1772905497948600000,12.28360009765625,-0.032602906227111816,0.00026296102441847324,-0.42982202768325806
1772905497958600000,12.293599853515625,-0.025821281597018242,0.0005536021199077368,-0.4248577058315277
1772905497968600000,12.30360009765625,-0.018015490844845772,0.000557860592380166,-0.41194385290145874
1772905497978600000,12.313599853515624,-0.011101852171123028,0.0005706360680051148,-0.4110112488269806
1772905497988600000,12.32360009765625,-0.0039060888811945915,0.0002863826521206647,-0.4033268392086029
1772905497998600000,12.333599853515626,0.0011178504209965467,0.00028105953242629766,-0.40850940346717834
1772905498008600000,12.34360009765625,0.007304354105144739,0.0002917057427112013,-0.4030872881412506
1772905498018600000,12.353599853515625,0.01140526868402958,0.0003034165420103818,-0.40658456087112427
1772905498028600000,12.36360009765625,0.012898929417133331,0.0003119335160590708,-0.4094420075416565
1772905498038600000,12.373599853515625,0.013346069492399693,0.0003215150791220367,-0.42162975668907166
1772905498048600000,12.38360009765625,0.012656196020543575,0.0003172566066496074,-0.42862963676452637
1772905498058600000,12.393599853515624,0.011861990205943584,0.0003161919885315001,-0.4420512914657593
1772905498068600000,12.40360009765625,0.011187021620571613,0.0003279027878306806,-0.453104168176651
1772905498078600000,12.413599853515626,0.01049395464360714,0.00031938584288582206,-0.4581345021724701
1772905498088600000,12.42360009765625,0.0075587984174489975,0.000601509993430227,-0.46032974123954773
1772905498098600000,12.433599853515625,0.005991678219288588,0.0005993807571940124,-0.46278584003448486
1772905498108600000,12.44360009765625,0.006529311183840036,0.0008815049077384174,-0.45687294006347656
1772905498118600000,12.453599853515625,0.009744462557137012,0.0008772464352659881,-0.4322674572467804
1772905498128600000,12.46360009765625,0.014094497077167034,0.0011668229708448052,-0.4082624018192291
1772905498138600000,12.473599853515625,0.02228887379169464,0.001162564498372376,-0.3673778176307678
1772905498148600000,12.48360009765625,0.030392756685614586,0.0011614998802542686,-0.3311583995819092
1772905498158600000,12.493599853515626,0.040427859872579575,0.0011497890809550881,-0.2862005829811096
1772905498168600000,12.50360009765625,0.053903814405202866,0.0011412721360102296,-0.2330867201089859
1772905498178600000,12.513599853515625,0.06802067160606384,0.0011465952266007662,-0.1749042123556137
