time,seconds_elapsed,z,y,x
1772905486092399900,0.42739990234375,9.53360366821289,1.2897313833236694,0.06311069428920746
1772905486102387500,0.437387451171875,9.495318412780762,1.277767300605774,-0.08045866340398788
1772905486112326100,0.447326171875,9.351449966430664,1.2658032178878784,-0.20009979605674744
1772905486122279700,0.45727978515625,9.13848876953125,1.2705888748168945,-0.24556341767311096
1772905486132273400,0.4672734375,8.956634521484375,1.2945170402526855,-0.19292132556438446
1772905486142245000,0.4772451171875,8.85344409942627,1.337587833404541,-0.07806584239006042
1772905486152425000,0.487425048828125,8.80798053741455,1.3926228284835815,0.022432712838053703
1772905486162573000,0.497572998046875,8.755337715148926,1.4500504732131958,0.05832505226135254
1772905486172479000,0.50747900390625,8.669196128845215,1.4835500717163086,0.0032901312224566936
1772905486182488000,0.517488037109375,8.57348346710205,1.4811571836471558,-0.12352947145700455
1772905486192409600,0.52740966796875,8.528019905090332,1.466800332069397,-0.267397940158844
1772905486202379800,0.5373798828125,8.58066177368164,1.459621787071228,-0.3607180118560791
1772905486212355000,0.54735498046875,8.621339797973633,1.4189438819885254,-0.389431893825531
1772905486222327600,0.55732763671875,8.652446746826172,1.3710874319076538,-0.389431893825531
1772905486232328200,0.567328125,8.745766639709473,1.3567304611206055,-0.38225340843200684
1772905486242313200,0.577313232421875,8.930013656616211,1.3399807214736938,-0.3487538993358612
1772905486252299500,0.587299560546875,9.157630920410156,1.2849457263946533,-0.25752753019332886
1772905486262285300,0.597285400390625,9.329915046691895,1.210768222808838,-0.14027923345565796
1772905486272105200,0.607105224609375,9.365806579589844,1.155434250831604,-0.06131608039140701
1772905486281920300,0.616920166015625,9.286844253540039,1.150648593902588,-0.0445663221180439
1772905486291982800,0.62698291015625,9.186345100402832,1.1940184831619263,-0.03978067636489868
1772905486301946600,0.636946533203125,9.13131046295166,1.2538390159606934,0.022432712838053703
1772905486311977000,0.64697705078125,9.155238151550293,1.306481122970581,0.16121642291545868
1772905486321970700,0.656970703125,9.236594200134277,1.3423734903335571,0.3194418251514435
1772905486331985400,0.6669853515625,9.301200866699219,1.368694543838501,0.4127618968486786
1772905486341988600,0.676988525390625,9.301200866699219,1.3902299404144287,0.4007977843284607
1772905486351982300,0.686982421875,9.24855899810791,1.4117653369903564,0.30508488416671753
1772905486361981400,0.6969814453125,9.198308944702148,1.435693621635437,0.1899302899837494
1772905486371978500,0.706978515625,9.195916175842285,1.4644074440002441,0.10618150234222412
1772905486381976600,0.7169765625,9.289237022399902,1.4979069232940674,0.0726819857954979
1772905486391992000,0.726991943359375,9.442377090454102,1.5170495510101318,0.07746763527393341
1772905486401998000,0.736998046875,9.528818130493164,1.5050854682922363,0.06550352275371552
1772905486411818200,0.746818359375,9.492925643920898,1.4787644147872925,-0.0062811593525111675
1772905486421638100,0.75663818359375,9.36341381072998,1.4620146751403809,-0.1091725304722786
1772905486431818200,0.766818359375,9.210273742675781,1.4715858697891235,-0.1737787425518036
1772905486441962500,0.77696240234375,9.097810745239258,1.4979069232940674,-0.15702898800373077
1772905486451895000,0.78689501953125,9.073882102966309,1.5361921787261963,-0.07806584239006042
1772905486462006500,0.797006591796875,9.112167358398438,1.5792629718780518,0.012861421331763268
1772905486471951400,0.806951416015625,9.171988487243652,1.5912270545959473,0.09182456880807877
1772905486481896200,0.816896240234375,9.267701148986816,1.552941918373108,0.14685949683189392
1772905486492054000,0.827053955078125,9.4088773727417,1.4859428405761719,0.1779661774635315
1772905486502013400,0.837013427734375,9.56471061706543,1.4213366508483887,0.18514464795589447
1772905486511973000,0.84697314453125,9.65085220336914,1.3615161180496216,0.20189441740512848
1772905486521990000,0.856989990234375,9.612566947937012,1.3160524368286133,0.24257239699363708
1772905486531953200,0.866953125,9.430413246154785,1.301695466041565,0.2593221664428711
1772905486541916700,0.876916748046875,9.14566707611084,1.3040883541107178,0.23300109803676605
1772905486551736800,0.88673681640625,8.863015174865723,1.2849457263946533,0.19232311844825745
1772905486561556700,0.896556640625,8.70508861541748,1.2394821643829346,0.14925231039524078
1772905486571690000,0.90668994140625,8.748159408569336,1.1820544004440308,0.12293126434087753
1772905486581654000,0.916654052734375,8.970991134643555,1.1219347715377808,0.125324085354805
1772905486591617800,0.92661767578125,9.260522842407227,1.0621141195297241,0.15164513885974884
1772905486601477000,0.93647705078125,9.488140106201172,1.0118649005889893,0.17318053543567657
1772905486611433200,0.94643310546875,9.54796028137207,0.9783653616905212,0.15164513885974884
1772905486621521700,0.956521728515625,9.420842170715332,0.9640084505081177,0.07507480680942535
1772905486631491600,0.96649169921875,9.181559562683105,0.9640084505081177,-0.032602209597826004
1772905486641518000,0.97651806640625,8.93958568572998,0.9759725332260132,-0.12113664299249649
1772905486651493600,0.98649365234375,8.788837432861328,1.002293586730957,-0.1498505175113678
1772905486661313800,0.996313720703125,8.779266357421875,1.0405787229537964,-0.0972084179520607
1772905486671147800,1.006147705078125,8.877371788024902,1.0788638591766357,0.012861421331763268
1772905486681160000,1.016159912109375,8.99970531463623,1.1099705696105957,0.12053844332695007
1772905486691114500,1.026114501953125,9.064311027526855,1.1458629369735718,0.1827518343925476
1772905486701219600,1.036219482421875,9.02841854095459,1.1892328262329102,0.17318053543567657
1772905486711189800,1.046189697265625,8.925228118896484,1.2394821643829346,0.0894317477941513
1772905486721122300,1.056122314453125,8.834300994873047,1.2897313833236694,-0.032602209597826004
1772905486731088600,1.066088623046875,8.82233715057373,1.3280165195465088,-0.1498505175113678
1772905486741085400,1.07608544921875,8.898907661437988,1.3615161180496216,-0.21206390857696533
1772905486751054800,1.086054931640625,9.026025772094727,1.3950155973434448,-0.2072782665491104
1772905486761061400,1.096061279296875,9.148059844970703,1.428515076637268,-0.13070793449878693
1772905486771034600,1.10603466796875,9.222237586975098,1.454836130142212,-0.0014955141814425588
1772905486781041400,1.11604150390625,9.219844818115234,1.4739787578582764,0.13968102633953094
1772905486791018200,1.126018310546875,9.160024642944336,1.4835500717163086,0.2306082844734192
1772905486800989000,1.135989013671875,9.104989051818848,1.4835500717163086,0.24496522545814514
1772905486810965000,1.145965087890625,9.102596282958984,1.4644074440002441,0.2066800594329834
1772905486820921900,1.155921875,9.200701713562012,1.4213366508483887,0.1707877218723297
1772905486830896000,1.165896240234375,9.406484603881836,1.368694543838501,0.18514464795589447
1772905486840843500,1.175843505859375,9.65803050994873,1.3088740110397339,0.24257239699363708
1772905486850815000,1.18581494140625,9.832706451416016,1.2490534782409668,0.29312077164649963
1772905486860775000,1.19577490234375,9.818349838256836,1.215553879737854,0.2835494875907898
1772905486870745000,1.2057451171875,9.581459999084473,1.2275179624557495,0.2066800594329834
1772905486880727000,1.21572705078125,9.222237586975098,1.2801600694656372,0.0894317477941513
1772905486890698500,1.225698486328125,8.908478736877441,1.3471591472625732,-0.034995030611753464
1772905486900683000,1.23568310546875,8.762516975402832,1.4069796800613403,-0.12831512093544006
1772905486910656000,1.245656005859375,8.784051895141602,1.4524433612823486,-0.17617157101631165
1772905486920640800,1.255640869140625,8.846264839172363,1.4811571836471558,-0.18813568353652954
1772905486930614800,1.26561474609375,8.85344409942627,1.4644074440002441,-0.1378864049911499
1772905486940581400,1.275581298828125,8.81515884399414,1.423729419708252,-0.03978067636489868
1772905486950554600,1.2855546875,8.772088050842285,1.397408366203308,0.0726819857954979
1772905486960540200,1.2955400390625,8.764909744262695,1.3782658576965332,0.1947159469127655
1772905486970514700,1.3055146484375,8.839086532592773,1.34476637840271,0.2883351147174835
1772905486980463600,1.315463623046875,8.99970531463623,1.31365966796875,0.2907279431819916
1772905486990435300,1.325435302734375,9.181559562683105,1.2873386144638062,0.1899302899837494
1772905487000408600,1.33540869140625,9.301200866699219,1.2705888748168945,0.03918246924877167
1772905487010380500,1.345380615234375,9.332307815551758,1.2729816436767578,-0.09960123896598816
1772905487020372500,1.35537255859375,9.289237022399902,1.3040883541107178,-0.17138592898845673
1772905487030346500,1.365346435546875,9.203095436096191,1.3591232299804688,-0.1618146300315857
1772905487040373200,1.375373291015625,9.083454132080078,1.423729419708252,-0.0972084179520607
1772905487050352600,1.3853525390625,8.93958568572998,1.4811571836471558,-0.030209386721253395
1772905487060297200,1.395297119140625,8.786444664001465,1.521835207939148,-0.00867398176342249
1772905487070273000,1.40527294921875,8.642875671386719,1.545763373374939,-0.0445663221180439
1772905487080224800,1.415224853515625,8.539983749389648,1.5625132322311401,-0.11395817995071411
1772905487090198000,1.425197998046875,8.525627136230469,1.5672988891601562,-0.17617157101631165
1772905487100181800,1.435181640625,8.61894702911377,1.557727575302124,-0.21684955060482025
1772905487110156300,1.44515625,8.800801277160645,1.5337992906570435,-0.23838496208190918
1772905487120117500,1.455117431640625,9.011669158935547,1.490728497505188,-0.24795624613761902
1772905487140082700,1.475082763671875,9.203095436096191,1.399801254272461,-0.24077777564525604
1772905487150057700,1.4850576171875,9.126524925231934,1.3950155973434448,-0.21206390857696533
1772905487160026400,1.4950263671875,9.009276390075684,1.4117653369903564,-0.15702898800373077
1772905487170001000,1.5050009765625,8.913264274597168,1.4452649354934692,-0.06849455088376999
1772905487179975700,1.5149755859375,8.85344409942627,1.4787644147872925,0.03200400248169899
1772905487189950200,1.5249501953125,8.839086532592773,1.4883357286453247,0.09421738982200623
1772905487199920600,1.534920654296875,8.879764556884766,1.4715858697891235,0.09182456880807877
1772905487209894700,1.544894775390625,8.94676399230957,1.4428720474243164,0.012861421331763268
1772905487219872500,1.55487255859375,9.00688362121582,1.4117653369903564,-0.11635100096464157
1772905487229847000,1.564846923828125,9.052347183227539,1.3854442834854126,-0.24556341767311096
1772905487239824600,1.57482470703125,9.088239669799805,1.3663017749786377,-0.32721850275993347
1772905487249799400,1.58479931640625,9.126524925231934,1.3471591472625732,-0.3439682424068451
1772905487259784000,1.594783935546875,9.157630920410156,1.3304094076156616,-0.3152543902397156
1772905487269759700,1.604759765625,9.164810180664062,1.3184453248977661,-0.27696922421455383
1772905487279747800,1.614747802734375,9.13848876953125,1.31365966796875,-0.26979073882102966
1772905487289725000,1.624724853515625,9.083454132080078,1.3160524368286133,-0.3080759048461914
1772905487299691000,1.63469091796875,9.021240234375,1.3256237506866455,-0.38225340843200684
1772905487309667000,1.6446669921875,8.973383903503418,1.337587833404541,-0.4540380835533142
1772905487319648500,1.6546484375,8.93958568572998,1.34476637840271,-0.49232324957847595
1772905487329624800,1.664624755859375,8.898907661437988,1.3519448041915894,-0.4827519655227661
1772905487339583200,1.674583251953125,8.82951545715332,1.368694543838501,-0.4420739710330963
1772905487349558000,1.68455810546875,8.72183895111084,1.3950155973434448,-0.39182472229003906
1772905487359555600,1.6945556640625,8.609375953674316,1.4141582250595093,-0.355932354927063
1772905487369532400,1.704532470703125,8.520841598510742,1.423729419708252,-0.34636107087135315
1772905487379502300,1.71450244140625,8.484949111938477,1.435693621635437,-0.3487538993358612
1772905487389478700,1.724478759765625,8.513663291931152,1.4500504732131958,-0.34636107087135315
1772905487399440600,1.734440673828125,8.61894702911377,1.459621787071228,-0.3248256742954254
1772905487409415400,1.74441552734375,8.786444664001465,1.4644074440002441,-0.28654050827026367
1772905487419370200,1.754370361328125,8.99252700805664,1.466800332069397,-0.2503490746021271
1772905487429343200,1.76434326171875,9.205488204956055,1.4644074440002441,-0.2192423790693283
1772905487439332400,1.774332275390625,9.38016414642334,1.4452649354934692,-0.18813568353652954
1772905487449306600,1.784306640625,9.478569030761719,1.4189438819885254,-0.1378864049911499
1772905487459285000,1.794284912109375,9.485747337341309,1.4069796800613403,-0.05174478888511658
1772905487469259800,1.804259765625,9.423234939575195,1.428515076637268,0.06789634376764297
1772905487479237400,1.8142373046875,9.351449966430664,1.4691931009292603,0.16839489340782166
1772905487489212400,1.82421240234375,9.332307815551758,1.5194423198699951,0.2066800594329834
1772905487499181800,1.834181884765625,9.368199348449707,1.5744773149490356,0.18753747642040253
1772905487509156400,1.84415625,9.432806015014648,1.6175481081008911,0.14446666836738586
1772905487519136800,1.85413671875,9.514460563659668,1.6414763927459717,0.11814561486244202
1772905487529111800,1.86411181640625,9.588638305664062,1.6558332443237305,0.13968102633953094
1772905487539099100,1.87409912109375,9.622138023376465,1.6773686408996582,0.1947159469127655
1772905487549075500,1.884075439453125,9.593423843383789,1.7135601043701172,0.26201409101486206
1772905487559055600,1.8940556640625,9.490532875061035,1.7614165544509888,0.3194418251514435
1772905487569032400,1.904032470703125,9.351449966430664,1.8116658926010132,0.33858439326286316
1772905487579012900,1.914012939453125,9.219844818115234,1.8595223426818848,0.3242274820804596
1772905487588990200,1.923990234375,9.136096000671387,1.9025931358337402,0.2883351147174835
1772905487598965200,1.93396533203125,9.104989051818848,1.9336998462677002,0.26201409101486206
1772905487608942000,1.943942138671875,9.11695384979248,1.948056697845459,0.254536509513855
1772905487619122200,1.9541220703125,9.140881538391113,1.9384855031967163,0.247358039021492
1772905487629216500,1.964216552734375,9.157630920410156,1.9193428754806519,0.2234298139810562
1772905487639036400,1.974036376953125,9.167202949523926,1.8954145908355713,0.16839489340782166
1772905487648839000,1.9838388671875,9.193523406982422,1.8762720823287964,0.09900303930044174
1772905487658843000,1.9938427734375,9.241379737854004,1.8643079996109009,0.05114658549427986
1772905487668817400,2.0038173828125,9.274879455566406,1.8547366857528687,0.0487537607550621
1772905487678795000,2.013794921875,9.26291561126709,1.8451653718948364,0.08225327730178833
1772905487688769800,2.023769775390625,9.207880973815918,1.833201289176941,0.11096715182065964
1772905487698760000,2.033760009765625,9.136096000671387,1.8427724838256836,0.0894317477941513
1772905487708736300,2.043736328125,9.076275825500488,1.893021821975708,0.012861421331763268
1772905487718734800,2.05373486328125,9.035597801208496,1.952842354774475,-0.08045866340398788
1772905487728713500,2.06371337890625,9.021240234375,1.9887347221374512,-0.1378864049911499
1772905487738710800,2.073710693359375,9.069096565246582,2.0318055152893066,-0.13070793449878693
1772905487748691200,2.083691162109375,9.234201431274414,2.0868403911590576,-0.027816563844680786
1772905487758669300,2.09366943359375,9.516854286193848,2.098804473876953,0.1827518343925476
1772905487768649700,2.103649658203125,9.830313682556152,2.010270118713379,0.43190449476242065
1772905487778633500,2.113633544921875,10.079465866088867,1.826022744178772,0.6017948985099792
1772905487788614100,2.1236142578125,10.194321632385254,1.5840486288070679,0.6185446381568909
1772905487798601000,2.13360107421875,10.175179481506348,1.3399807214736938,0.47976094484329224
1772905487808582100,2.14358203125,10.060323715209961,1.119541883468628,0.24017956852912903
1772905487818762200,2.15376220703125,9.892526626586914,0.9400802254676819,-0.023030918091535568
1772905487828833300,2.163833251953125,9.715457916259766,0.8132606148719788,-0.25274190306663513
1772905487838653200,2.173653076171875,9.54078197479248,0.7606185078620911,-0.46360939741134644
1772905487848480800,2.183480712890625,9.339486122131348,0.7486543655395508,-0.6478567123413086
1772905487858463500,2.19346337890625,9.167202949523926,0.7151548862457275,-0.7674978375434875
1772905487868438800,2.203438720703125,9.100203514099121,0.667298436164856,-0.8324031829833984
1772905487878619000,2.213618896484375,9.128917694091797,0.6263213157653809,-0.846760094165802
1772905487888713700,2.223713623046875,9.193523406982422,0.5928218364715576,-0.7794619798660278
1772905487898534000,2.233533935546875,9.227023124694824,0.5784648656845093,-0.6287141442298889
1772905487908351500,2.2433515625,9.169595718383789,0.597607433795929,-0.4181457459926605
1772905487918338800,2.2533388671875,9.009276390075684,0.6358926296234131,-0.14267204701900482
1772905487928312000,2.26331201171875,8.788837432861328,0.6768696904182434,0.1707877218723297
1772905487938288000,2.2732880859375,8.575876235961914,0.7055835723876953,0.4749752879142761
1772905487948261600,2.28326171875,8.422436714172363,0.7151548862457275,0.7286145091056824
1772905487958249200,2.293249267578125,8.355437278747559,0.7007979154586792,0.905982494354248
1772905487968224300,2.303224365234375,8.365009307861328,0.6720840334892273,1.0136594772338867
1772905487978187500,2.3131875,8.429615020751953,0.631106972694397,1.0734800100326538
1772905487988161300,2.323161376953125,8.506484031677246,0.5808576941490173,1.1045867204666138
1772905487998120000,2.333119873046875,8.537590980529785,0.5258227586746216,1.1021939516067505
1772905488008092200,2.343092041015625,8.48734188079834,0.46839502453804016,1.0615159273147583
1772905488018092500,2.353092529296875,8.379365921020508,0.42293140292167664,0.9873384237289429
1772905488028067600,2.363067626953125,8.254939079284668,0.39182472229003906,0.90358966588974
1772905488038025700,2.373025634765625,8.17119026184082,0.3655036687850952,0.8270193338394165
1772905488047999000,2.3829990234375,8.19272518157959,0.3367897868156433,0.7525427341461182
1772905488058029300,2.393029296875,8.321938514709473,0.3080759048461914,0.6616154313087463
1772905488068008400,2.403008544921875,8.518448829650879,0.2841476798057556,0.5395814776420593
1772905488077954800,2.412954833984375,8.709874153137207,0.2793620526790619,0.39840495586395264
1772905488087930600,2.4229306640625,8.827122688293457,0.3008974492549896,0.2763710021972656
1772905488097900000,2.432900146484375,8.834300994873047,0.372682124376297,0.2066800594329834
1772905488107875300,2.442875244140625,8.707481384277344,0.49710890650749207,0.19710876047611237
1772905488117897200,2.452897216796875,8.453842163085938,0.6625127792358398,0.23778675496578217
1772905488127877000,2.462877197265625,8.168797492980957,0.8419744968414307,0.3122633695602417
1772905488137848300,2.472848388671875,8.027621269226074,1.002293586730957,0.4127618968486786
1772905488147827500,2.482827392578125,8.168797492980957,1.1219347715377808,0.5276173949241638
1772905488157801700,2.4928017578125,8.585447311401367,1.1892328262329102,0.6400800347328186
1772905488167780000,2.502780029296875,9.1624174118042,1.196411371231079,0.7094719409942627
1772905488177777400,2.51277734375,9.751350402832031,1.1482558250427246,0.6903293132781982
1772905488187757800,2.5227578125,10.251749038696289,1.0668997764587402,0.5659025311470032
1772905488197721000,2.53272119140625,10.63250732421875,0.9855438470840454,0.36251261830329895
1772905488207699700,2.54269970703125,10.893324851989746,0.9305089116096497,0.12771691381931305
1772905488217671000,2.5526708984375,11.003395080566406,0.9185447692871094,-0.0972084179520607
1772905488227649000,2.56264892578125,10.910075187683105,0.9711868762969971,-0.29850462079048157
1772905488237648000,2.57264794921875,10.601400375366211,1.088435173034668,-0.4492524564266205
1772905488247627800,2.582627685546875,10.132108688354492,1.2634103298187256,-0.5162515044212341
1772905488257590000,2.592590087890625,9.619745254516602,1.4572290182113647,-0.4707878530025482
1772905488267568000,2.602568115234375,9.183952331542969,1.6151553392410278,-0.31764721870422363
1772905488277555700,2.6125556640625,8.858229637145996,1.7231314182281494,-0.10677970945835114
1772905488287535000,2.62253515625,8.590232849121094,1.7877376079559326,0.06311069428920746
1772905488297507600,2.632507568359375,8.312366485595703,1.833201289176941,0.1372881978750229
1772905488307486000,2.64248583984375,7.989335536956787,1.8667007684707642,0.11814561486244202
1772905488317450000,2.652449951171875,7.675576686859131,1.8954145908355713,0.05353940650820732
1772905488327426800,2.6624267578125,7.479365348815918,1.9648064374923706,-0.03738785535097122
1772905488337396200,2.672396240234375,7.5080790519714355,2.0246269702911377,-0.07806584239006042
1772905488347372300,2.682372314453125,7.754539966583252,2.012662887573242,-0.030209386721253395
1772905488357351000,2.692350830078125,8.130512237548828,1.9432710409164429,0.06789634376764297
1772905488367327200,2.7023271484375,8.50169849395752,1.8427724838256836,0.1899302899837494
1772905488377317400,2.7123173828125,8.760123252868652,1.7494524717330933,0.3290131092071533
1772905488387295200,2.722295166015625,8.922835350036621,1.6773686408996582,0.4486542344093323
1772905488397249300,2.732249267578125,9.126524925231934,1.6199408769607544,0.4773681163787842
1772905488407224800,2.742224853515625,9.531210899353027,1.5361921787261963,0.39122650027275085
1772905488417213400,2.75221337890625,10.168001174926758,1.4069796800613403,0.24496522545814514
1772905488427190300,2.762190185546875,10.859825134277344,1.2658032178878784,0.08703892678022385
1772905488437187300,2.772187255859375,11.317153930664062,1.1530413627624512,-0.056530434638261795
1772905488447166200,2.782166259765625,11.300403594970703,1.1003992557525635,-0.14267204701900482
1772905488457147100,2.792147216796875,10.785648345947266,1.1362916231155396,-0.14027923345565796
1772905488467126300,2.802126220703125,9.957133293151855,1.2658032178878784,-0.05892325937747955
1772905488477078300,2.812078369140625,9.100203514099121,1.4500504732131958,0.08703892678022385
1772905488487054600,2.8220546875,8.4562349319458,1.6366907358169556,0.27397820353507996
1772905488497035000,2.832034912109375,8.140083312988281,1.7805591821670532,0.46061834692955017
1772905488507011600,2.842011474609375,8.116155624389648,1.8667007684707642,0.589830756187439
1772905488516982300,2.851982177734375,8.254939079284668,1.9145572185516357,0.6209374666213989
1772905488526958300,2.861958251953125,8.446663856506348,1.948056697845459,0.5491527915000916
1772905488536969500,2.871969482421875,8.63330364227295,1.979163408279419,0.40319061279296875
1772905488546949000,2.88194921875,8.781659126281738,2.0006988048553467,0.2353939265012741
1772905488556899600,2.891899658203125,8.886942863464355,1.9983060359954834,0.09182456880807877
1772905488566876200,2.901876220703125,8.968598365783691,1.983949065208435,0.0032901312224566936
1772905488576857900,2.91185791015625,9.026025772094727,1.960020899772644,0.0032901312224566936
1772905488586835200,2.921835205078125,9.026025772094727,1.9336998462677002,0.09421738982200623
1772905488596816000,2.93181591796875,8.973383903503418,1.924128532409668,0.2353939265012741
1772905488606793500,2.94179345703125,8.949156761169434,1.9313069581985474,0.381655216217041
1772905488616771000,2.95177099609375,9.009276390075684,1.928914189338684,0.4941178858280182
1772905488626748700,2.961748779296875,9.140881538391113,1.9073787927627563,0.5611169338226318
1772905488636708400,2.971708251953125,9.308379173278809,1.8690935373306274,0.5970092415809631
1772905488646684200,2.98168408203125,9.454340934753418,1.8188443183898926,0.6496513485908508
1772905488656659000,2.991658935546875,9.5264253616333,1.770987868309021,0.7381857633590698
1772905488666634500,3.001634521484375,9.514460563659668,1.739881157875061,0.8246265053749084
1772905488676615000,3.011614990234375,9.442377090454102,1.7255241870880127,0.8653044700622559
1772905488686591200,3.02159130859375,9.365806579589844,1.71595299243927,0.836590588092804
1772905488696571600,3.031571533203125,9.315557479858398,1.708774447441101,0.7645068168640137
1772905488706548200,3.04154833984375,9.289237022399902,1.7183457612991333,0.6951149702072144
1772905488716522200,3.051522216796875,9.272486686706543,1.7470595836639404,0.6520441770553589
1772905488726498600,3.06149853515625,9.2557373046875,1.794916033744812,0.6544370055198669
1772905488736460800,3.071460693359375,9.243772506713867,1.8690935373306274,0.6975077986717224
1772905488746435800,3.081435791015625,9.260522842407227,1.9624136686325073,0.7381857633590698
1772905488756419300,3.09141943359375,9.298808097839355,2.072483539581299,0.7262216806411743
1772905488766395000,3.101394775390625,9.286844253540039,2.2040886878967285,0.656829833984375
1772905488776383700,3.1113837890625,9.133703231811523,2.3407788276672363,0.5730810165405273
1772905488786360800,3.12136083984375,8.851051330566406,2.455634355545044,0.5132604837417603
1772905488796345600,3.131345703125,8.566305160522461,2.551347255706787,0.5204389095306396
1772905488806323500,3.141323486328125,8.429615020751953,2.6350958347320557,0.5970092415809631
1772905488816434000,3.151433837890625,8.516056060791016,2.668595552444458,0.7190431952476501
1772905488826425300,3.16142529296875,8.772088050842285,2.630310297012329,0.8174480199813843
1772905488836311800,3.171311767578125,9.112167358398438,2.5082762241363525,0.8437690734863281
1772905488846292500,3.18129248046875,9.483354568481445,2.3024935722351074,0.7935197949409485
1772905488856232400,3.191232421875,9.916455268859863,2.02701997756958,0.6999006271362305
1772905488866209000,3.201208984375,10.46231746673584,1.7063816785812378,0.5946164131164551
1772905488876207900,3.211207763671875,11.077871322631836,1.3758729696273804,0.46779683232307434
1772905488886186500,3.2211865234375,11.647662162780762,1.064507007598877,0.3194418251514435
1772905488896168200,3.231168212890625,12.025728225708008,0.7989036440849304,0.1779661774635315
1772905488906147300,3.241147216796875,12.068799018859863,0.5952146053314209,0.08703892678022385
1772905488916104400,3.2511044921875,11.695518493652344,0.4731806814670563,0.05114658549427986
1772905488926081000,3.2610810546875,10.934002876281738,0.44446679949760437,0.041575293987989426
1772905488936014000,3.27101416015625,9.945169448852539,0.511465847492218,0.03918246924877167
1772905488945986300,3.280986328125,8.961420059204102,0.6358926296234131,0.05114658549427986
1772905488955977000,3.29097705078125,8.16401195526123,0.758225679397583,0.08225327730178833
1772905488965951000,3.300950927734375,7.632505893707275,0.846760094165802,0.11575279384851456
1772905488975937800,3.310937744140625,7.366603374481201,0.8970093727111816,0.14925231039524078
1772905488985913000,3.3209130859375,7.299604415893555,0.91136634349823,0.1899302899837494
1772905488995894000,3.33089404296875,7.345067977905273,0.8970093727111816,0.23300109803676605
1772905489005870000,3.3408701171875,7.4362945556640625,0.8635098934173584,0.2521436810493469
1772905489015856400,3.3508564453125,7.543971538543701,0.8180462121963501,0.24017956852912903
1772905489025833500,3.36083349609375,7.6636128425598145,0.7630113363265991,0.20189441740512848
1772905489035827700,3.37082763671875,7.797610759735107,0.6960122585296631,0.15882360935211182
1772905489045806300,3.380806396484375,7.941479206085205,0.6287141442298889,0.11814561486244202
1772905489055782400,3.390782470703125,8.097012519836426,0.5712863802909851,0.09661021083593369
1772905489065761000,3.400760986328125,8.269295692443848,0.5282155871391296,0.09182456880807877
1772905489075735000,3.410735107421875,8.43440055847168,0.49710890650749207,0.0894317477941513
1772905489085713200,3.420713134765625,8.585447311401367,0.48035913705825806,0.07028916478157043
1772905489095893200,3.430893310546875,8.755337715148926,0.48035913705825806,0.03678964823484421
1772905489105985500,3.440985595703125,8.975776672363281,0.48514479398727417,0.010468599386513233
1772905489115931000,3.450930908203125,9.215059280395508,0.48514479398727417,-0.00867398176342249
1772905489125932300,3.460932373046875,9.396913528442383,0.4899304509162903,-0.04695914313197136
1772905489135752400,3.47075244140625,9.447162628173828,0.5138586759567261,-0.1091725304722786
1772905489145561900,3.480561767578125,9.332307815551758,0.5593222975730896,-0.18095721304416656
1772905489155557400,3.490557373046875,9.102596282958984,0.6239284873008728,-0.24556341767311096
1772905489165527300,3.50052734375,8.839086532592773,0.6960122585296631,-0.29850462079048157
1772905489175535600,3.51053564453125,8.61894702911377,0.7654041647911072,-0.3415754437446594
1772905489185509600,3.520509521484375,8.484949111938477,0.8347960114479065,-0.37028929591178894
1772905489195515400,3.530515380859375,8.441878318786621,0.91136634349823,-0.372682124376297
1772905489205492500,3.540492431640625,8.451449394226074,0.9855438470840454,-0.3487538993358612
1772905489215672600,3.550672607421875,8.482556343078613,1.0453643798828125,-0.31764721870422363
1772905489225718000,3.560718017578125,8.530412673950195,1.0836495161056519,-0.2745763957500458
1772905489235538200,3.5705380859375,8.609375953674316,1.095613718032837,-0.19770696759223938
1772905489245358000,3.580358154296875,8.740981101989746,1.0860424041748047,-0.08285148441791534
1772905489255538200,3.5905380859375,8.961420059204102,1.0668997764587402,0.03918246924877167
1772905489265609000,3.60060888671875,9.298808097839355,1.0286146402359009,0.11814561486244202
1772905489275428900,3.610428955078125,9.732208251953125,0.966401219367981,0.1133599728345871
1772905489285249000,3.6202490234375,10.203892707824707,0.8922237157821655,0.015254244208335876
1772905489295203800,3.630203857421875,10.62532901763916,0.8228318691253662,-0.11874382197856903
1772905489305169700,3.640169677734375,10.922039031982422,0.7773682475090027,-0.21684955060482025
1772905489315144000,3.65014404296875,11.049158096313477,0.758225679397583,-0.25274190306663513
1772905489325110500,3.660110595703125,10.99143123626709,0.7701897621154785,-0.2431706041097641
1772905489335084800,3.670084716796875,10.776076316833496,0.8180462121963501,-0.22881366312503815
1772905489345052200,3.68005224609375,10.44796085357666,0.8970093727111816,-0.22163519263267517
1772905489355035000,3.690034912109375,10.053145408630371,0.999900758266449,-0.2312064915895462
1772905489365004000,3.700004150390625,9.641280174255371,1.1099705696105957,-0.24556341767311096
1772905489375184100,3.71018408203125,9.27009391784668,1.222732424736023,-0.24795624613761902
1772905489385282300,3.7202822265625,8.973383903503418,1.3256237506866455,-0.22402802109718323
1772905489395228200,3.730228271484375,8.738588333129883,1.404586911201477,-0.18095721304416656
1772905489405223700,3.7402236328125,8.547162055969238,1.4644074440002441,-0.14267204701900482
1772905489415043600,3.750043701171875,8.386544227600098,1.5122638940811157,-0.11156535893678665
1772905489424863700,3.75986376953125,8.242975234985352,1.557727575302124,-0.09242277592420578
1772905489434836500,3.76983642578125,8.101798057556152,1.5936198234558105,-0.08763712644577026
1772905489444801000,3.779801025390625,7.9606218338012695,1.6175481081008911,-0.10677970945835114
1772905489454790000,3.789789794921875,7.859824180603027,1.6390835046768188,-0.14506487548351288
1772905489464757000,3.799757080078125,7.857431411743164,1.6534404754638672,-0.18335004150867462
1772905489474751500,3.80975146484375,7.982157230377197,1.6510475873947144,-0.2072782665491104
1772905489484721700,3.8197216796875,8.216653823852539,1.6295121908187866,-0.2072782665491104
1772905489494901500,3.829901611328125,8.499305725097656,1.5864413976669312,-0.18095721304416656
1772905489505016000,3.84001611328125,8.760123252868652,1.5337992906570435,-0.14267204701900482
1772905489514836000,3.8498359375,9.01406192779541,1.4787644147872925,-0.09960123896598816
1772905489524656000,3.85965625,9.24855899810791,1.423729419708252,-0.04695914313197136
1772905489534612000,3.869612060546875,9.389735221862793,1.3878371715545654,-0.025423740968108177
1772905489544580600,3.87958056640625,9.40169906616211,1.3830515146255493,-0.07806584239006042
1772905489554567200,3.889567138671875,9.329915046691895,1.399801254272461,-0.18813568353652954
1772905489564537900,3.899537841796875,9.241379737854004,1.4333007335662842,-0.3080759048461914
1772905489574531600,3.909531494140625,9.215059280395508,1.466800332069397,-0.3678964674472809
1772905489584504600,3.919504638671875,9.272486686706543,1.490728497505188,-0.3367897868156433
1772905489594477600,3.9294775390625,9.344271659851074,1.5170495510101318,-0.24795624613761902
1772905489604450600,3.939450439453125,9.361021041870117,1.5553346872329712,-0.14267204701900482
1772905489614422300,3.94942236328125,9.282057762145996,1.5960127115249634,-0.05892325937747955
1772905489624395000,3.95939501953125,9.133703231811523,1.6366907358169556,-0.01585244946181774
1772905489644346400,3.979346435546875,8.951549530029297,1.7015960216522217,-0.03738785535097122
1772905489654323700,3.98932373046875,9.002098083496094,1.703988790512085,-0.06610172241926193
1772905489664297500,3.99929736328125,9.107381820678711,1.6992031335830688,-0.09242277592420578
1772905489674296800,4.009296875,9.193523406982422,1.7063816785812378,-0.10677970945835114
1772905489684273200,4.019273193359375,9.205488204956055,1.7255241870880127,-0.0972084179520607
1772905489694263300,4.02926318359375,9.150452613830566,1.7590237855911255,-0.056530434638261795
1772905489704241200,4.0392412109375,9.078668594360352,1.806880235671997,0.017647067084908485
1772905489714209000,4.049208984375,8.997312545776367,1.8595223426818848,0.11096715182065964
1772905489724185900,4.059185791015625,8.941978454589844,1.9049859046936035,0.1707877218723297
1772905489734156800,4.06915673828125,8.93240737915039,1.9408782720565796,0.1707877218723297
1772905489744132900,4.0791328125,8.930013656616211,1.9648064374923706,0.10618150234222412
1772905489754104300,4.089104248046875,8.886942863464355,1.9887347221374512,0.005682953633368015
1772905489764080000,4.099080078125,8.791230201721191,2.02701997756958,-0.10677970945835114
1772905489774260000,4.109260009765625,8.669196128845215,2.048555374145508,-0.1666002720594406
1772905489784364500,4.119364501953125,8.575876235961914,2.0389840602874756,-0.1498505175113678
1772905489794314800,4.129314697265625,8.559126853942871,2.019841432571411,-0.09002995491027832
1772905489804316000,4.13931591796875,8.628518104553223,1.9935203790664673,-0.032602209597826004
1772905489814269400,4.14926953125,8.7505521774292,1.9624136686325073,-0.00867398176342249
1772905489824266000,4.159265869140625,8.877371788024902,1.928914189338684,-0.030209386721253395
1772905489834086000,4.1690859375,8.961420059204102,1.9097715616226196,-0.08045866340398788
1772905489843894000,4.17889404296875,8.990134239196777,1.9073787927627563,-0.12352947145700455
1772905489853887700,4.1888876953125,8.987740516662598,1.9336998462677002,-0.11395817995071411
1772905489863853800,4.198853759765625,8.982954978942871,1.9815562963485718,-0.04935196787118912
1772905489873834800,4.208834716796875,8.982954978942871,2.03419828414917,0.043968115001916885
1772905489883802400,4.21880224609375,8.994919776916504,2.0796620845794678,0.12771691381931305
1772905489893783600,4.228783447265625,9.047561645507812,2.1179471015930176,0.17557336390018463
1772905489903752400,4.23875244140625,9.176774024963379,2.1394824981689453,0.18514464795589447
1772905489913723600,4.2487236328125,9.353842735290527,2.1490538120269775,0.1779661774635315
1772905489923692800,4.25869287109375,9.502496719360352,2.1705892086029053,0.17318053543567657
1772905489933665500,4.26866552734375,9.559925079345703,2.2331018447875977,0.17557336390018463
1772905489943635000,4.278635009765625,9.497711181640625,2.3336002826690674,0.19710876047611237
1772905489953622000,4.2886220703125,9.317950248718262,2.4269204139709473,0.24496522545814514
1772905489963593500,4.298593505859375,9.085846900939941,2.4939193725585938,0.3002992272377014
1772905489973773300,4.308773193359375,8.925228118896484,2.558525562286377,0.3481557071208954
1772905489983881200,4.318881103515625,8.980562210083008,2.6327030658721924,0.39601215720176697
1772905489993701000,4.328701171875,9.320343017578125,2.6470601558685303,0.5060819983482361
1772905490003508000,4.338508056640625,9.878170013427734,2.520240545272827,0.6999006271362305
1772905490013497900,4.348497802734375,10.486246109008789,2.242672920227051,0.8964111804962158
1772905490023468800,4.35846875,10.96032428741455,1.888236165046692,0.994516909122467
1772905490033455000,4.368455078125,11.178370475769043,1.5337992906570435,0.9897312521934509
1772905490043427600,4.378427490234375,11.130513191223145,1.2275179624557495,0.9442676305770874
1772905490053410300,4.388410400390625,10.919646263122559,1.0046863555908203,0.8820542693138123
1772905490063384000,4.398384033203125,10.673185348510742,0.8587242364883423,0.781555712223053
1772905490073357600,4.408357666015625,10.457531929016113,0.7725825905799866,0.625723123550415
1772905490083331000,4.4183310546875,10.280463218688965,0.7199404835700989,0.4247260093688965
1772905490093308700,4.42830859375,10.096216201782227,0.6864410042762756,0.20428723096847534
1772905490103282700,4.43828271484375,9.832706451416016,0.6505486369132996,0.015254244208335876
1772905490113462500,4.448462646484375,9.461520195007324,0.6239284873008728,-0.09002995491027832
1772905490123586600,4.458586669921875,9.002098083496094,0.6215356588363647,-0.07806584239006042
1772905490133406500,4.468406494140625,8.504091262817383,0.6601199507713318,0.041575293987989426
1772905490143223300,4.478223388671875,8.0324068069458,0.7319046258926392,0.22821545600891113
1772905490153214000,4.4882138671875,7.65164852142334,0.8228318691253662,0.40319061279296875
1772905490163188500,4.4981884765625,7.3761749267578125,0.9185447692871094,0.5180460810661316
1772905490173368600,4.50836865234375,7.230212688446045,0.9975079298019409,0.5682953596115112
1772905490183475500,4.518475341796875,7.239784240722656,1.038185954093933,0.5850451588630676
1772905490193295400,4.52829541015625,7.398009300231934,1.0357930660247803,0.623330295085907
1772905490203115300,4.538115234375,7.634898662567139,1.0070792436599731,0.7286145091056824
1772905490213075200,4.5480751953125,7.857431411743164,0.9831510186195374,0.8916255235671997
1772905490223046700,4.558046630859375,8.008478164672852,0.9855438470840454,1.051944613456726
1772905490233034200,4.5680341796875,8.106583595275879,0.9951151013374329,1.1213364601135254
1772905490243007500,4.578007568359375,8.221439361572266,0.9783653616905212,1.0399805307388306
1772905490252991200,4.5879912109375,8.405686378479004,0.9233304262161255,0.8198408484458923
1772905490262965500,4.597965576171875,8.652446746826172,0.8347960114479065,0.5276173949241638
1772905490272948700,4.60794873046875,8.93958568572998,0.7438687682151794,0.2593221664428711
1772905490282924000,4.617924072265625,9.229415893554688,0.6840481758117676,0.08464609831571579
1772905490292905000,4.627905029296875,9.439984321594238,0.669691264629364,0.005682953633368015
1772905490302880800,4.637880859375,9.521639823913574,0.7055835723876953,-0.0038883367087692022
1772905490313060900,4.648060791015625,9.471091270446777,0.7797610759735107,0.024825535714626312
1772905490323168000,4.65816796875,9.341878890991211,0.8754739761352539,0.0894317477941513
1772905490332988000,4.66798779296875,9.174381256103516,0.9592227935791016,0.1827518343925476
1772905490342793500,4.67779345703125,9.011669158935547,1.0405787229537964,0.28115665912628174
1772905490352973600,4.6879736328125,8.908478736877441,1.1338988542556763,0.3696911036968231
1772905490363071500,4.698071533203125,8.956634521484375,1.2275179624557495,0.42711883783340454
1772905490372891400,4.707891357421875,9.23180866241455,1.2945170402526855,0.4582255482673645
1772905490382711600,4.717711669921875,9.677172660827637,1.3304094076156616,0.45104706287384033
1772905490392891400,4.727891357421875,10.124930381774902,1.3471591472625732,0.3840480446815491
1772905490402971600,4.7379716796875,10.404890060424805,1.3663017749786377,0.2593221664428711
1772905490412791600,4.74779150390625,10.44078254699707,1.3926228284835815,0.12771691381931305
1772905490422594000,4.757593994140625,10.299606323242188,1.4380863904953003,0.05353940650820732
1772905490432591000,4.767591064453125,10.093823432922363,1.4979069232940674,0.07986045628786087
1772905490442560000,4.77756005859375,9.856635093688965,1.557727575302124,0.18753747642040253
1772905490452554000,4.787553955078125,9.57188892364502,1.6223337650299072,0.3122633695602417
1772905490462525400,4.797525390625,9.217452049255371,1.6920247077941895,0.3888336718082428
1772905490472505600,4.807505615234375,8.800801277160645,1.7638094425201416,0.40797626972198486
1772905490482477800,4.817477783203125,8.386544227600098,1.8451653718948364,0.3936193287372589
1772905490492658000,4.827657958984375,8.04676342010498,1.9384855031967163,0.37926238775253296
1772905490502763000,4.837762939453125,7.847859859466553,2.0365912914276123,0.3936193287372589
1772905490512583200,4.847583251953125,7.807182312011719,2.120339870452881,0.43190449476242065
1772905490522393900,4.857393798828125,7.89332389831543,2.177767753601074,0.46061834692955017
1772905490532388600,4.867388671875,8.058727264404297,2.2040886878967285,0.4749752879142761
1772905490542360800,4.87736083984375,8.235795974731445,2.199303150177002,0.4821537733078003
1772905490552352500,4.8873525390625,8.388936996459961,2.1729819774627686,0.47976094484329224
1772905490562326800,4.897326904296875,8.523234367370605,2.1323041915893555,0.4654040038585663
1772905490572507000,4.9075068359375,8.664410591125488,2.0796620845794678,0.4366901218891144
1772905490582625000,4.917625,8.819944381713867,2.010270118713379,0.3888336718082428
1772905490592445000,4.92744482421875,8.941978454589844,1.9265213012695312,0.3122633695602417
1772905490602250800,4.937250732421875,9.004490852355957,1.8523437976837158,0.2066800594329834
1772905490612430600,4.9474306640625,9.026025772094727,1.8044873476028442,0.09661021083593369
1772905490622521300,4.957521240234375,9.040383338928223,1.7877376079559326,0.005682953633368015
1772905490632476400,4.967476318359375,9.054739952087402,1.7877376079559326,-0.04695914313197136
1772905490642474200,4.97747412109375,9.078668594360352,1.794916033744812,-0.07088737189769745
1772905490652294100,4.987294189453125,9.119346618652344,1.7973089218139648,-0.07806584239006042
1772905490662138600,4.997138671875,9.207880973815918,1.7877376079559326,-0.06610172241926193
1772905490672318500,5.007318359375,9.346664428710938,1.7638094425201416,-0.0445663221180439
1772905490682334200,5.017334228515625,9.46630573272705,1.7327027320861816,-0.03978067636489868
1772905490692356600,5.027356689453125,9.46630573272705,1.7183457612991333,-0.06610172241926193
1772905490702351600,5.0373515625,9.274879455566406,1.7422740459442139,-0.11874382197856903
1772905490712321500,5.047321533203125,8.951549530029297,1.7997016906738281,-0.17617157101631165
1772905490722314000,5.05731396484375,8.635697364807129,1.888236165046692,-0.21206390857696533
1772905490732134000,5.0671337890625,8.446663856506348,1.979163408279419,-0.20009979605674744
1772905490741994200,5.076994140625,8.398508071899414,2.05812668800354,-0.15463615953922272
1772905490752023000,5.08702294921875,8.446663856506348,2.120339870452881,-0.10677970945835114
1772905490761994000,5.096993896484375,8.523234367370605,2.1705892086029053,-0.06849455088376999
1772905490772023600,5.1070234375,8.58784008026123,2.2163519859313965,-0.03738785535097122
1772905490782000400,5.11700048828125,8.638090133666992,2.2570300102233887,0.012861421331763268
1772905490792017700,5.127017578125,8.683553695678711,2.297708034515381,0.10857433080673218
1772905490801998800,5.136998779296875,8.762516975402832,2.3599212169647217,0.24017956852912903
1772905490812018000,5.147017822265625,8.894122123718262,2.424527645111084,0.3601198196411133
1772905490822003000,5.1570029296875,9.04516887664795,2.4580271244049072,0.4414757788181305
1772905490832019000,5.16701904296875,9.148059844970703,2.4580271244049072,0.46779683232307434
1772905490842007300,5.17700732421875,9.164810180664062,2.441277265548706,0.45104706287384033
1772905490852010500,5.187010498046875,9.119346618652344,2.4197418689727783,0.4534398913383484
1772905490862000400,5.19700048828125,9.064311027526855,2.4029922485351562,0.5132604837417603
1772905490871820500,5.206820556640625,9.042776107788086,2.3886351585388184,0.6065805554389954
1772905490881657000,5.216656982421875,9.088239669799805,2.3718855381011963,0.6664010882377625
1772905490891692000,5.226692138671875,9.195916175842285,2.338385820388794,0.625723123550415
1772905490901660000,5.236659912109375,9.315557479858398,2.2857437133789062,0.4654040038585663
1772905490911839700,5.24683984375,9.38016414642334,2.2259232997894287,0.2234298139810562
1772905490921996300,5.256996337890625,9.341878890991211,2.1873390674591064,-0.027816563844680786
1772905490931998200,5.266998291015625,9.210273742675781,2.182553291320801,-0.20488543808460236
1772905490941811000,5.27681103515625,9.023633003234863,2.211566209793091,-0.25274190306663513
1772905490951798800,5.286798828125,8.824729919433594,2.2713868618011475,-0.18813568353652954
1772905490961961200,5.296961181640625,8.666803359985352,2.3407788276672363,-0.10438688844442368
1772905490971964700,5.306964599609375,8.609375953674316,2.3886351585388184,-0.08045866340398788
1772905490981968100,5.316968017578125,8.659625053405762,2.400599241256714,-0.14745768904685974
1772905490991788300,5.326788330078125,8.760123252868652,2.393420934677124,-0.2913261651992798
1772905491001608200,5.336608154296875,8.83669376373291,2.3886351585388184,-0.4731806814670563
1772905491011468300,5.34646826171875,8.851051330566406,2.3886351585388184,-0.631106972694397
1772905491021436700,5.356436767578125,8.800801277160645,2.400599241256714,-0.719641387462616
1772905491031616500,5.366616455078125,8.70508861541748,2.4604198932647705,-0.7363911867141724
1772905491041685200,5.376685302734375,8.58066177368164,2.575275421142578,-0.6909275650978088
1772905491051679500,5.386679443359375,8.449056625366211,2.6901309490203857,-0.6023930907249451
1772905491061499600,5.396499755859375,8.30997371673584,2.7717859745025635,-0.5282155871391296
1772905491071448300,5.4064482421875,8.166404724121094,2.824428081512451,-0.49710890650749207
1772905491081479000,5.41647900390625,8.037192344665527,2.8674988746643066,-0.4707878530025482
1772905491091463200,5.426463134765625,7.974978923797607,2.8962128162384033,-0.4205385744571686
1772905491101283000,5.436282958984375,8.051548957824707,2.893819808959961,-0.36311084032058716
1772905491111178800,5.4461787109375,8.31715202331543,2.831606388092041,-0.31764721870422363
1772905491121222700,5.45622265625,8.788837432861328,2.68534517288208,-0.26979073882102966
1772905491131191800,5.46619189453125,9.437591552734375,2.455634355545044,-0.23838496208190918
1772905491141232600,5.476232666015625,10.220643043518066,2.1586251258850098,-0.2503490746021271
1772905491151209000,5.486208984375,11.068300247192383,1.830808401107788,-0.28893333673477173
1772905491161194800,5.49619482421875,11.807981491088867,1.5074782371520996,-0.3248256742954254
1772905491171172000,5.506172119140625,12.23659610748291,1.2131611108779907,-0.36311084032058716
1772905491181138700,5.516138671875,12.193525314331055,0.9783653616905212,-0.4181457459926605
1772905491191115000,5.526114990234375,11.659626960754395,0.844367265701294,-0.4588237404823303
1772905491201088500,5.536088623046875,10.766505241394043,0.8395816683769226,-0.4468596279621124
1772905491211064600,5.546064697265625,9.751350402832031,0.9520443081855774,-0.36311084032058716
1772905491221027000,5.556027099609375,8.858229637145996,1.1219347715377808,-0.22881366312503815
1772905491231001600,5.566001708984375,8.235795974731445,1.2729816436767578,-0.07088737189769745
1772905491240970200,5.57597021484375,7.910073280334473,1.373480200767517,0.06071787327528
1772905491250944300,5.5859443359375,7.826324462890625,1.423729419708252,0.13489536941051483
1772905491260887800,5.5958876953125,7.8765740394592285,1.4404792785644531,0.16121642291545868
1772905491270858800,5.605858642578125,7.941479206085205,1.423729419708252,0.1707877218723297
1772905491280838700,5.615838623046875,7.941479206085205,1.3878371715545654,0.1899302899837494
1772905491290810400,5.625810302734375,7.886145114898682,1.3495519161224365,0.22821545600891113
1772905491300808000,5.635807861328125,7.843074321746826,1.3160524368286133,0.26919254660606384
1772905491310782500,5.645782470703125,7.878966808319092,1.2801600694656372,0.29312077164649963
1772905491320753400,5.65575341796875,7.989335536956787,1.246660590171814,0.2883351147174835
1772905491330727400,5.6657275390625,8.108976364135742,1.2275179624557495,0.25692933797836304
1772905491340733400,5.6757333984375,8.204689979553223,1.2323036193847656,0.2234298139810562
1772905491350710800,5.685710693359375,8.28126049041748,1.2442678213119507,0.21146570146083832
1772905491360676400,5.69567626953125,8.367402076721191,1.25144624710083,0.22582264244556427
1772905491370652700,5.705652587890625,8.513663291931152,1.2538390159606934,0.23300109803676605
1772905491380638500,5.715638427734375,8.7505521774292,1.246660590171814,0.21146570146083832
1772905491390615600,5.725615478515625,9.02841854095459,1.1988041400909424,0.1779661774635315
1772905491400608300,5.735608154296875,9.28445053100586,1.1123634576797485,0.14446666836738586
1772905491410587000,5.7455869140625,9.459127426147461,1.0094720125198364,0.12053844332695007
1772905491420553700,5.7555537109375,9.535996437072754,0.9041878581047058,0.10618150234222412
1772905491430531000,5.765531005859375,9.53360366821289,0.8180462121963501,0.0726819857954979
1772905491440482300,5.775482421875,9.463912963867188,0.7725825905799866,0.008075776509940624
1772905491450457000,5.78545703125,9.358628273010254,0.7725825905799866,-0.09002995491027832
1772905491460450300,5.7954501953125,9.224630355834961,0.8108677864074707,-0.18574285507202148
1772905491470427000,5.805427001953125,9.071489334106445,0.88025963306427,-0.25274190306663513
1772905491480409900,5.815409912109375,8.903693199157715,0.968794047832489,-0.26979073882102966
1772905491490387200,5.82538720703125,8.731410026550293,1.0668997764587402,-0.22881366312503815
1772905491500393500,5.8353935546875,8.571090698242188,1.1626126766204834,-0.14506487548351288
1772905491510374000,5.845373779296875,8.46341323852539,1.246660590171814,-0.04935196787118912
1772905491520368600,5.85536865234375,8.444271087646484,1.306481122970581,0.05114658549427986
1772905491530350600,5.8653505859375,8.525627136230469,1.3399807214736938,0.15164513885974884
1772905491540379400,5.87537939453125,8.700303077697754,1.3615161180496216,0.2306082844734192
1772905491550366000,5.885365966796875,8.944371223449707,1.3782658576965332,0.27397820353507996
1772905491560341000,5.895341064453125,9.246166229248047,1.3902299404144287,0.24975086748600006
1772905491570326500,5.905326416015625,9.588638305664062,1.397408366203308,0.14925231039524078
1772905491580290300,5.915290283203125,9.954740524291992,1.3926228284835815,0.0008973084622994065
1772905491590273500,5.9252734375,10.318748474121094,1.3806586265563965,-0.16899310052394867
1772905491600235300,5.9352353515625,10.63250732421875,1.3758729696273804,-0.3320041298866272
1772905491610216400,5.945216552734375,10.831111907958984,1.3782658576965332,-0.4731806814670563
1772905491620188000,5.95518798828125,10.859825134277344,1.4021940231323242,-0.5784648656845093
1772905491630167800,5.965167724609375,10.697113990783691,1.459621787071228,-0.6167500615119934
1772905491640147500,5.9751474609375,10.392926216125488,1.5553346872329712,-0.5760720372200012
1772905491650127400,5.98512744140625,10.024431228637695,1.672582983970642,-0.4731806814670563
1772905491660108800,5.99510888671875,9.64367389678955,1.7853448390960693,-0.33918261528015137
1772905491670089000,6.0050888671875,9.272486686706543,1.8762720823287964,-0.21206390857696533
1772905491680064800,6.015064697265625,8.93240737915039,1.948056697845459,-0.12113664299249649
1772905491690044400,6.02504443359375,8.650053977966309,1.9959131479263306,-0.07328019291162491
1772905491700028200,6.035028076171875,8.449056625366211,2.0246269702911377,-0.054137613624334335
1772905491710008300,6.04500830078125,8.345866203308105,2.0389840602874756,-0.030209386721253395
1772905491719997700,6.054997802734375,8.348258972167969,2.041376829147339,0.020039889961481094
1772905491729979000,6.064978759765625,8.422436714172363,2.0318055152893066,0.10378868132829666
1772905491739965000,6.07496484375,8.48734188079834,2.010270118713379,0.18514464795589447
1772905491749946600,6.084946533203125,8.453842163085938,1.9767706394195557,0.20907287299633026
1772905491759914500,6.09491455078125,8.30997371673584,1.9336998462677002,0.1372881978750229
1772905491769894700,6.104894775390625,8.120941162109375,1.8810577392578125,-0.011066804639995098
1772905491779853800,6.114853759765625,7.99172830581665,1.826022744178772,-0.1737787425518036
1772905491789832000,6.12483203125,7.996514320373535,1.7781662940979004,-0.2961117923259735
1772905491799791000,6.134791015625,8.142476081848145,1.7446668148040771,-0.3487538993358612
1772905491809767200,6.14476708984375,8.360222816467285,1.7207385301589966,-0.3415754437446594
1772905491819741200,6.1547412109375,8.575876235961914,1.708774447441101,-0.31764721870422363
1772905491829717000,6.164717041015625,8.745766639709473,1.7015960216522217,-0.3320041298866272
1772905491839702500,6.17470263671875,8.884550094604492,1.6869399547576904,-0.39900317788124084
1772905491849679400,6.184679443359375,8.985347747802734,1.6606189012527466,-0.49232324957847595
1772905491859669200,6.194669189453125,9.009276390075684,1.6342978477478027,-0.5904290080070496
1772905491869647600,6.204647705078125,8.93240737915039,1.6319050788879395,-0.6717849373817444
1772905491879625700,6.214625732421875,8.788837432861328,1.674975872039795,-0.7148557901382446
1772905491889604000,6.22460400390625,8.659625053405762,1.7590237855911255,-0.6861419081687927
1772905491899585300,6.234585205078125,8.62612533569336,1.857129454612732,-0.5832505226135254
1772905491909563600,6.244563720703125,8.748159408569336,1.9456639289855957,-0.45164528489112854
1772905491919555000,6.25455517578125,8.985347747802734,1.9983060359954834,-0.32961133122444153
1772905491929535000,6.264534912109375,9.23898696899414,2.0246269702911377,-0.22642084956169128
1772905491939524900,6.27452490234375,9.411270141601562,2.0557336807250977,-0.14506487548351288
1772905491949505800,6.284505859375,9.444769859313965,2.1083757877349854,-0.07567301392555237
1772905491959462000,6.2944619140625,9.35623550415039,2.1801605224609375,-0.0014955141814425588
1772905491969440300,6.304440185546875,9.217452049255371,2.259422779083252,0.07986045628786087
1772905491979418400,6.31441845703125,9.11695384979248,2.3336002826690674,0.1707877218723297
1772905491989396700,6.324396728515625,9.107381820678711,2.3910279273986816,0.28115665912628174
1772905491999366400,6.334366455078125,9.167202949523926,2.4269204139709473,0.40797626972198486
1772905492009343700,6.34434375,9.241379737854004,2.4532413482666016,0.5515456199645996
1772905492019324400,6.354324462890625,9.272486686706543,2.4771697521209717,0.6999006271362305
1772905492029302300,6.36430224609375,9.23180866241455,2.496312141418457,0.8198408484458923
1772905492039292000,6.3742919921875,9.121739387512207,2.503490686416626,0.8796614408493042
1772905492049270800,6.384270751953125,8.985347747802734,2.4987051486968994,0.8509475588798523
1772905492059237400,6.3942373046875,8.86780071258545,2.4699912071228027,0.745364248752594
1772905492069215000,6.404215087890625,8.798408508300781,2.4269204139709473,0.5994020700454712
1772905492079191000,6.41419091796875,8.788837432861328,2.376671075820923,0.4582255482673645
1772905492089168400,6.42416845703125,8.824729919433594,2.331207513809204,0.3601198196411133
1772905492099151400,6.4341513671875,8.872586250305176,2.300100803375244,0.3122633695602417
1772905492109129500,6.44412939453125,8.901300430297852,2.283350944519043,0.29790642857551575
1772905492119104800,6.454104736328125,8.896514892578125,2.2737796306610107,0.28594231605529785
1772905492129082400,6.464082275390625,8.879764556884766,2.2618155479431152,0.26201409101486206
1772905492139061200,6.474061279296875,8.898907661437988,2.228316068649292,0.23778675496578217
1772905492149039000,6.4840390625,8.987740516662598,2.1729819774627686,0.22821545600891113
1772905492159025200,6.494025146484375,9.121739387512207,2.1155543327331543,0.21385852992534637
1772905492169003800,6.504003662109375,9.2557373046875,2.0916261672973633,0.1779661774635315
1772905492178990000,6.513989990234375,9.38734245300293,2.1155543327331543,0.14925231039524078
1772905492188969700,6.5239697265625,9.574281692504883,2.1873390674591064,0.18753747642040253
1772905492198952200,6.5339521484375,9.873384475708008,2.307279348373413,0.29312077164649963
1772905492208932000,6.54393212890625,10.287641525268555,2.4269204139709473,0.45583271980285645
1772905492218905000,6.553905029296875,10.704292297363281,2.510669231414795,0.6640082597732544
1772905492228884500,6.563884521484375,11.010573387145996,2.5465614795684814,0.8748757839202881
1772905492238868000,6.573867919921875,11.168798446655273,2.5226333141326904,1.0328021049499512
1772905492248847600,6.58384765625,11.17597770690918,2.4269204139709473,1.0998010635375977
1772905492258828800,6.593828857421875,11.070693016052246,2.2785654067993164,1.0734800100326538
1772905492268808700,6.60380859375,10.890932083129883,2.0916261672973633,0.9849455952644348
1772905492278787300,6.613787353515625,10.661221504211426,1.888236165046692,0.8676972985267639
1772905492288767000,6.62376708984375,10.421640396118164,1.6869399547576904,0.7190431952476501
1772905492298747600,6.63374755859375,10.182357788085938,1.5170495510101318,0.5204389095306396
1772905492308727600,6.6437275390625,9.90688419342041,1.373480200767517,0.28594231605529785
1772905492318702600,6.65370263671875,9.569496154785156,1.25144624710083,0.046360939741134644
1772905492328682000,6.663681884765625,9.186345100402832,1.1602199077606201,-0.16420745849609375
1772905492338675500,6.673675537109375,8.798408508300781,1.1027921438217163,-0.3487538993358612
1772905492348656000,6.68365625,8.451449394226074,1.0836495161056519,-0.4995017349720001
1772905492358609200,6.693609130859375,8.166404724121094,1.093220829963684,-0.600000262260437
1772905492368587000,6.7035869140625,7.914859294891357,1.1003992557525635,-0.633499801158905
1772905492378577400,6.713577392578125,7.642077445983887,1.1051849126815796,-0.5952146053314209
1772905492388556500,6.723556640625,7.325925827026367,1.1123634576797485,-0.48514479398727417
1772905492398736400,6.733736328125,7.010073184967041,1.1147562265396118,-0.28654050827026367
1772905492408840200,6.743840087890625,6.787241458892822,1.0980064868927002,0.0032901312224566936
1772905492418660000,6.75366015625,6.698707103729248,1.057328462600708,0.3433700501918793
1772905492428482300,6.763482421875,6.7345991134643555,0.9879366755485535,0.6352944374084473
1772905492438460700,6.773460693359375,6.87099027633667,0.8922237157821655,0.7911269664764404
1772905492448436200,6.783436279296875,7.074679374694824,0.7749754190444946,0.7716853022575378
1772905492458414000,6.7934140625,7.323532581329346,0.6454638838768005,0.5850451588630676
1772905492468390000,6.803389892578125,7.608577728271484,0.5234299302101135,0.29312077164649963
1772905492478372900,6.813372802734375,7.924729347229004,0.43489551544189453,-0.0062811593525111675
1772905492488349400,6.823349365234375,8.290831565856934,0.39182472229003906,-0.22881366312503815
1772905492498529300,6.833529296875,8.717052459716797,0.38225340843200684,-0.35114672780036926
1772905492508626000,6.8436259765625,9.157630920410156,0.389431893825531,-0.40378883481025696
1772905492518569000,6.85356884765625,9.507282257080078,0.41096729040145874,-0.4253242313861847
1772905492528569600,6.863569580078125,9.646066665649414,0.44446679949760437,-0.4468596279621124
1772905492538389500,6.873389404296875,9.55513858795166,0.5018945336341858,-0.46360939741134644
1772905492548189700,6.883189697265625,9.322735786437988,0.597607433795929,-0.4468596279621124
1772905492558188000,6.89318798828125,9.078668594360352,0.727118968963623,-0.3535395562648773
1772905492568157000,6.903156982421875,8.915657043457031,0.8682954907417297,-0.17138592898845673
1772905492578163200,6.9131630859375,8.834300994873047,1.0118649005889893,0.06789634376764297
1772905492588136000,6.923135986328125,8.779266357421875,1.1410772800445557,0.2883351147174835
1772905492598106000,6.933106201171875,8.685946464538574,1.2490534782409668,0.4175475537776947
1772905492608078600,6.94307861328125,8.559126853942871,1.3232308626174927,0.4223332107067108
1772905492618070000,6.953070068359375,8.444271087646484,1.368694543838501,0.34576287865638733
1772905492628044500,6.96304443359375,8.42722225189209,1.3950155973434448,0.2763710021972656
1772905492638036500,6.973036376953125,8.61176872253418,1.4141582250595093,0.28594231605529785
1772905492648012800,6.9830126953125,9.059525489807129,1.4117653369903564,0.3888336718082428
1772905492657991700,6.99299169921875,9.701101303100586,1.3758729696273804,0.5276173949241638
1772905492667968300,7.00296826171875,10.35464096069336,1.3184453248977661,0.6185446381568909
1772905492677954300,7.012954345703125,10.816754341125488,1.2634103298187256,0.5970092415809631
1772905492687932000,7.022931884765625,10.96750259399414,1.210768222808838,0.4582255482673645
1772905492697912800,7.032912841796875,10.831111907958984,1.1673983335494995,0.25692933797836304
1772905492707890400,7.042890380859375,10.53200912475586,1.150648593902588,0.05832505226135254
1772905492717875700,7.052875732421875,10.218250274658203,1.179661512374878,-0.09481559693813324
1772905492727854300,7.062854248046875,9.993025779724121,1.2610175609588623,-0.17138592898845673
1772905492737855700,7.072855712890625,9.875777244567871,1.3830515146255493,-0.1618146300315857
1772905492747836700,7.082836669921875,9.823135375976562,1.5146567821502686,-0.08285148441791534
1772905492757810400,7.092810546875,9.753743171691895,1.6247265338897705,0.03918246924877167
1772905492767790600,7.10279052734375,9.583852767944336,1.7015960216522217,0.18035900592803955
1772905492777781800,7.11278173828125,9.274879455566406,1.7542381286621094,0.3409772217273712
1772905492787763200,7.12276318359375,8.882157325744629,1.8092730045318604,0.5228317379951477
1772905492797726000,7.132725830078125,8.520841598510742,1.8690935373306274,0.7334001660346985
1772905492807705300,7.142705322265625,8.28126049041748,1.9145572185516357,0.9658030271530151
1772905492817697000,7.152697021484375,8.199904441833496,1.9456639289855957,1.1859427690505981
1772905492827678000,7.162677978515625,8.266902923583984,1.9719849824905396,1.3561322689056396
1772905492837654300,7.172654296875,8.439485549926758,1.983949065208435,1.4590235948562622
1772905492847634400,7.182634521484375,8.664410591125488,1.9767706394195557,1.4997016191482544
1772905492857632500,7.192632568359375,8.903693199157715,1.9456639289855957,1.4949159622192383
1772905492867614700,7.20261474609375,9.097810745239258,1.8906289339065552,1.4422738552093506
1772905492877612300,7.2126123046875,9.164810180664062,1.8116658926010132,1.3250255584716797
1772905492887596000,7.222595947265625,9.102596282958984,1.7327027320861816,1.1476575136184692
1772905492897577200,7.2325771484375,8.994919776916504,1.674975872039795,0.9658030271530151
1772905492907560700,7.242560791015625,8.927620887756348,1.6342978477478027,0.8270193338394165
1772905492917540000,7.2525400390625,8.910871505737305,1.5936198234558105,0.714257538318634
1772905492927523000,7.262523193359375,8.920442581176758,1.552941918373108,0.5682953596115112
1772905492937503200,7.272503173828125,8.93958568572998,1.526620864868164,0.35054850578308105
1772905492947486000,7.28248583984375,8.949156761169434,1.5146567821502686,0.09421738982200623
1772905492957467400,7.29246728515625,8.934800148010254,1.5122638940811157,-0.14027923345565796
1772905492967449900,7.302449951171875,8.886942863464355,1.5122638940811157,-0.29850462079048157
1772905492977422000,7.312422119140625,8.812766075134277,1.5122638940811157,-0.35114672780036926
1772905492987403500,7.322403564453125,8.695517539978027,1.5290136337280273,-0.3128615617752075
1772905492997368000,7.3323681640625,8.525627136230469,1.5720844268798828,-0.21684955060482025
1772905493007348000,7.342347900390625,8.350651741027832,1.6271194219589233,-0.09960123896598816
1772905493017329400,7.352329345703125,8.211868286132812,1.6701902151107788,0.0008973084622994065
1772905493027309600,7.3623095703125,8.137690544128418,1.6845471858978271,0.06311069428920746
1772905493037318100,7.372318115234375,8.128119468688965,1.672582983970642,0.08225327730178833
1772905493047300900,7.38230078125,8.173583030700684,1.6462619304656982,0.08464609831571579
1772905493057263000,7.39226318359375,8.250153541564941,1.6007983684539795,0.09661021083593369
1772905493067244000,7.402244140625,8.345866203308105,1.545763373374939,0.13968102633953094
1772905493077222000,7.412221923828125,8.47298526763916,1.4883357286453247,0.21385852992534637
1772905493087202300,7.422202392578125,8.650053977966309,1.4572290182113647,0.2835494875907898
1772905493097182500,7.432182373046875,8.865407943725586,1.4715858697891235,0.3074777126312256
1772905493107163100,7.4421630859375,9.078668594360352,1.495514154434204,0.3242274820804596
1772905493117115100,7.452115234375,9.241379737854004,1.5074782371520996,0.37926238775253296
1772905493127092700,7.4620927734375,9.3490571975708,1.5146567821502686,0.4773681163787842
1772905493137064400,7.472064453125,9.420842170715332,1.5361921787261963,0.5874379873275757
1772905493147041500,7.48204150390625,9.418449401855469,1.5744773149490356,0.6711867451667786
1772905493157025300,7.492025390625,9.279664993286133,1.6247265338897705,0.7046862840652466
1772905493167003000,7.5020029296875,9.033205032348633,1.6845471858978271,0.6759724020957947
1772905493176972300,7.51197216796875,8.788837432861328,1.7542381286621094,0.6041877269744873
1772905493186949000,7.52194921875,8.688339233398438,1.802094578742981,0.5395814776420593
1772905493196927200,7.53192724609375,8.810373306274414,1.8188443183898926,0.49172505736351013
1772905493206904300,7.541904296875,9.088239669799805,1.8236299753189087,0.4366901218891144
1772905493216886500,7.551886474609375,9.384949684143066,1.802094578742981,0.4103690981864929
1772905493226863900,7.56186376953125,9.602995872497559,1.6920247077941895,0.45583271980285645
1772905493236841000,7.571841064453125,9.610174179077148,1.5385849475860596,0.4701896607875824
1772905493246818300,7.581818359375,9.40169906616211,1.552941918373108,0.3026920557022095
1772905493266785000,7.601784912109375,8.963812828063965,2.1155543327331543,-0.4085744619369507
1772905493276748500,7.61174853515625,8.879764556884766,2.383849620819092,-0.6813562512397766
1772905493286725600,7.6217255859375,8.886942863464355,2.4771697521209717,-0.7316055297851562
1772905493296696800,7.63169677734375,8.970991134643555,2.3958137035369873,-0.5641079545021057
1772905493306673400,7.64167333984375,9.11695384979248,2.2331018447875977,-0.3032902777194977
1772905493316650200,7.651650146484375,9.243772506713867,2.098804473876953,-0.13070793449878693
1772905493326626800,7.661626708984375,9.27727222442627,2.0054845809936523,-0.08045866340398788
1772905493336616700,7.67161669921875,9.155238151550293,1.9049859046936035,-0.06849455088376999
1772905493346594600,7.681594482421875,8.896514892578125,1.8547366857528687,-0.09242277592420578
1772905493356566500,7.69156640625,8.628518104553223,1.9336998462677002,-0.1737787425518036
1772905493366544000,7.7015439453125,8.47298526763916,2.1705892086029053,-0.3248256742954254
1772905493376524800,7.71152490234375,8.449056625366211,2.510669231414795,-0.5066801905632019
1772905493386502400,7.72150244140625,8.528019905090332,2.845963478088379,-0.6574280261993408
1772905493396485000,7.731485107421875,8.671588897705078,3.075674295425415,-0.7363911867141724
1772905493406463200,7.741463134765625,8.86780071258545,3.0948169231414795,-0.6263213157653809
1772905493416446500,7.751446533203125,9.148059844970703,2.8962128162384033,-0.31046873331069946
1772905493426425300,7.76142529296875,9.576674461364746,2.589632272720337,0.06311069428920746
1772905493436605200,7.771605224609375,10.172786712646484,2.268994092941284,0.2835494875907898
1772905493446720000,7.781719970703125,10.859825134277344,1.9360926151275635,0.2715853750705719
1772905493456540200,7.7915400390625,11.477473258972168,1.5553346872329712,0.07507480680942535
1772905493466343200,7.80134326171875,11.865408897399902,1.1362916231155396,-0.21206390857696533
1772905493476357400,7.811357421875,11.930015563964844,0.7510471940040588,-0.5186443328857422
1772905493486335500,7.82133544921875,11.652447700500488,0.4540380835533142,-0.7869395613670349
1772905493496364000,7.831364013671875,11.106585502624512,0.26979073882102966,-0.9640084505081177
1772905493506347300,7.84134716796875,10.443175315856934,0.2027917206287384,-1.0094720125198364
1772905493516329500,7.85132958984375,9.825528144836426,0.23629122972488403,-0.9209375977516174
1772905493526312400,7.8613125,9.344271659851074,0.32961133122444153,-0.7603194117546082
1772905493536309800,7.871309814453125,8.987740516662598,0.4372883439064026,-0.6239284873008728
1772905493546294300,7.881294189453125,8.70508861541748,0.5234299302101135,-0.5712863802909851
1772905493556271400,7.891271240234375,8.451449394226074,0.5952146053314209,-0.5928218364715576
1772905493566255000,7.901255126953125,8.247760772705078,0.6478567123413086,-0.631106972694397
1772905493576232700,7.911232666015625,8.15683364868164,0.6720840334892273,-0.6287141442298889
1772905493586216000,7.9212158203125,8.20947551727295,0.6382854580879211,-0.5258227586746216
1772905493596236800,7.93123681640625,8.341080665588379,0.4612165689468384,-0.26979073882102966
1772905493606224000,7.941223876953125,8.424829483032227,0.23629122972488403,0.046360939741134644
1772905493616197000,7.951197021484375,8.441878318786621,0.11635100096464157,0.3026920557022095
1772905493626182700,7.9611826171875,8.436793327331543,0.16450655460357666,0.4582255482673645
1772905493636155100,7.971155029296875,8.357830047607422,0.3535395562648773,0.5228317379951477
1772905493646139600,7.9811396484375,8.16401195526123,0.6119644045829773,0.5611169338226318
1772905493656115000,7.991114990234375,7.922336578369141,0.88025963306427,0.6496513485908508
1772905493666098200,8.00109814453125,7.764111042022705,1.1171491146087646,0.8413762450218201
1772905493676044000,8.0110439453125,7.821538925170898,1.2203395366668701,1.1333006620407104
1772905493686023400,8.0210234375,8.07787036895752,1.0908280611038208,1.4590235948562622
1772905493696002000,8.031001953125,8.360222816467285,0.8156534433364868,1.6289139986038208
1772905493705981400,8.0409814453125,8.496912956237793,0.5234299302101135,1.4709876775741577
1772905493715966500,8.050966552734375,8.429615020751953,0.25304099917411804,0.9586246013641357
1772905493725946600,8.060946533203126,8.28126049041748,0.00867398176342249,0.22582264244556427
1772905493735921400,8.07092138671875,8.28126049041748,-0.14925231039524078,-0.5018945336341858
1772905493745900800,8.08090087890625,8.492127418518066,-0.23778675496578217,-1.0070792436599731
1772905493755877000,8.090877197265625,8.769695281982422,-0.27846473455429077,-1.2032907009124756
1772905493765856500,8.1008564453125,9.035597801208496,-0.22103698551654816,-1.1602199077606201
1772905493775836700,8.110836669921875,9.286844253540039,-0.010468599386513233,-1.0716854333877563
1772905493785815800,8.12081591796875,9.507282257080078,0.28893333673477173,-1.0716854333877563
1772905493795803400,8.130803466796875,9.674779891967773,0.5808576941490173,-1.210469126701355
1772905493805783300,8.140783203125,9.830313682556152,0.7869395613670349,-1.4069796800613403
1772905493815773200,8.150773193359376,9.966704368591309,0.8132606148719788,-1.5026925802230835
1772905493825754000,8.160754150390625,10.024431228637695,0.6960122585296631,-1.4476577043533325
1772905493845705200,8.180705322265625,9.78245735168457,0.41575294733047485,-1.2248260974884033
1772905493855676400,8.190676513671875,9.64367389678955,0.3128615617752075,-1.2032907009124756
1772905493865655600,8.200655517578125,9.595816612243652,0.26979073882102966,-1.2439687252044678
1772905493875627000,8.210626953125,9.576674461364746,0.2913261651992798,-1.3232308626174927
1772905493885605400,8.22060546875,9.507282257080078,0.37507495284080505,-1.430907964706421
1772905493895785200,8.23078515625,9.382556915283203,0.544965386390686,-1.5744773149490356
1772905493905921300,8.24092138671875,9.267701148986816,0.791725218296051,-1.7467604875564575
1772905493925561300,8.260561279296875,9.224630355834961,1.1602199077606201,-1.8236299753189087
1772905493935741200,8.2707412109375,9.258130073547363,1.2658032178878784,-1.6319050788879395
1772905493945852200,8.28085205078125,9.303593635559082,1.397408366203308,-1.2559328079223633
1772905493955672300,8.29067236328125,9.37298583984375,1.5672988891601562,-0.6693921089172363
1772905493965520100,8.30052001953125,9.524032592773438,1.7470595836639404,0.08225327730178833
1772905493975509500,8.310509521484375,9.81356430053711,1.8786648511886597,0.8461619019508362
1772905493985488000,8.32048779296875,10.258928298950195,1.9073787927627563,1.4374881982803345
1772905493995411700,8.33041162109375,10.788041114807129,1.830808401107788,1.7174484729766846
1772905494005384400,8.340384521484374,11.226226806640625,1.6773686408996582,1.6456637382507324
1772905494015378000,8.3503779296875,11.355439186096191,1.4644074440002441,1.2960125207901
1772905494025352700,8.360352783203124,11.049158096313477,1.2394821643829346,0.8006982803344727
1772905494035532800,8.37053271484375,10.349855422973633,1.0764710903167725,0.2667997181415558
1772905494045644500,8.38064453125,9.439984321594238,1.002293586730957,-0.23838496208190918
1772905494055464700,8.390464599609375,8.549555778503418,0.968794047832489,-0.666999340057373
1772905494065281800,8.40028173828125,7.878966808319092,0.9305089116096497,-1.0357930660247803
1772905494075268000,8.41026806640625,7.587042331695557,0.8730811476707458,-1.3639088869094849
1772905494085241900,8.420241943359375,7.689933776855469,0.7845467329025269,-1.612762451171875
1772905494095232800,8.430232666015625,8.010870933532715,0.6649056077003479,-1.7515461444854736
1772905494105208300,8.440208251953125,8.314759254455566,0.544965386390686,-1.7754744291305542
1772905494115388400,8.450388427734374,8.436793327331543,0.4540380835533142,-1.6917256116867065
1772905494125487400,8.4604873046875,8.338687896728516,0.4085744619369507,-1.5242279767990112
1772905494135307300,8.470307373046875,8.123333930969238,0.42293140292167664,-1.3232308626174927
1772905494145110000,8.480110107421876,7.890930652618408,0.46839502453804016,-1.1315059661865234
1772905494155117800,8.490117919921875,7.685148239135742,0.49710890650749207,-0.9975079298019409
1772905494165092400,8.50009228515625,7.5535430908203125,0.5401797294616699,-0.9759725332260132
1772905494175090200,8.510090087890624,7.572685241699219,0.6047859191894531,-1.0405787229537964
1772905494185067000,8.52006689453125,7.819146156311035,0.6888338327407837,-1.119541883468628
1772905494195054600,8.5300546875,8.269295692443848,0.7989036440849304,-1.1410772800445557
1772905494205032700,8.54003271484375,8.793622970581055,0.9472586512565613,-1.0477572679519653
1772905494215022300,8.550022216796876,9.241379737854004,1.1410772800445557,-0.7989036440849304
1772905494225001700,8.560001708984375,9.516854286193848,1.3710874319076538,-0.39900317788124084
1772905494234968600,8.569968505859375,9.614959716796875,1.6151553392410278,0.09900303930044174
1772905494244946700,8.57994677734375,9.612566947937012,1.8427724838256836,0.6137589812278748
1772905494254922200,8.589922119140626,9.595816612243652,2.02701997756958,1.028016448020935
1772905494264899800,8.59989990234375,9.595816612243652,2.1394824981689453,1.2696914672851562
1772905494274887200,8.60988720703125,9.605388641357422,2.151446580886841,1.3154542446136475
1772905494284865800,8.61986572265625,9.631709098815918,2.0868403911590576,1.181157112121582
1772905494294827000,8.629826904296875,9.669994354248047,1.9911274909973145,0.9251250624656677
1772905494304803800,8.639803955078126,9.653244972229004,1.8738791942596436,0.6089733839035034
1772905494314794200,8.649794189453125,9.574281692504883,1.770987868309021,0.25692933797836304
1772905494324772600,8.659772705078124,9.502496719360352,1.6944174766540527,-0.11156535893678665
1772905494334761500,8.669761474609375,9.512067794799805,1.6151553392410278,-0.4540380835533142
1772905494344740900,8.679740966796874,9.57188892364502,1.521835207939148,-0.7435696125030518
1772905494354722300,8.689722412109376,9.581459999084473,1.4165509939193726,-0.9855438470840454
1772905494364701700,8.69970166015625,9.449555397033691,1.2945170402526855,-1.186540961265564
1772905494374688800,8.709688720703125,9.195916175842285,1.1626126766204834,-1.368694543838501
1772905494384669200,8.719669189453125,8.927620887756348,1.0501500368118286,-1.557727575302124
1772905494394651000,8.72965087890625,8.784051895141602,0.9472586512565613,-1.7635103464126587
1772905494404631300,8.73963134765625,8.810373306274414,0.8563314080238342,-1.9336998462677002
1772905494414609200,8.749609130859374,8.961420059204102,0.8060821294784546,-1.9648064374923706
1772905494424589300,8.75958935546875,9.148059844970703,0.8491529226303101,-1.8041882514953613
1772905494434558700,8.769558837890624,9.279664993286133,0.9903294444084167,-1.466800332069397
1772905494444537900,8.779537841796875,9.301200866699219,1.2059825658798218,-0.9903294444084167
1772905494454513200,8.78951318359375,9.210273742675781,1.4524433612823486,-0.43489551544189453
1772905494464491800,8.79949169921875,9.078668594360352,1.7063816785812378,0.1420738399028778
1772905494474462700,8.809462646484375,9.004490852355957,1.9384855031967163,0.7070791125297546
1772905494494418400,8.82941845703125,9.38016414642334,2.2857437133789062,1.7270197868347168
1772905494504396300,8.839396240234375,9.818349838256836,2.3982064723968506,2.1317057609558105
1772905494514361900,8.84936181640625,10.160821914672852,2.4364917278289795,2.4358935356140137
1772905494524338400,8.85933837890625,10.117751121520996,2.4221346378326416,2.63449764251709
1772905494534314800,8.869314697265626,9.751350402832031,2.314457654953003,2.6536402702331543
1772905494544291300,8.879291259765624,9.444769859313965,2.0629122257232666,2.3641088008880615
1772905494554276000,8.889276123046875,9.535996437072754,1.739881157875061,1.7940187454223633
1772905494564253700,8.899253662109375,10.050752639770508,1.3926228284835815,1.1237293481826782
1772905494574243800,8.909243896484375,10.788041114807129,1.002293586730957,0.4821537733078003
1772905494584222700,8.91922265625,11.424830436706543,0.5784648656845093,-0.17138592898845673
1772905494594206500,8.92920654296875,11.705090522766113,0.16929219663143158,-0.9831510186195374
1772905494604185600,8.939185546875,11.580663681030273,-0.21385852992534637,-1.9504495859146118
1772905494614167800,8.949167724609374,11.16640567779541,-0.5467599630355835,-2.8746774196624756
1772905494624147500,8.9591474609375,10.642078399658203,-0.7645068168640137,-3.5234313011169434
1772905494634112500,8.969112548828125,10.163214683532715,-0.7980063557624817,-3.7674992084503174
1772905494644090600,8.979090576171876,9.780064582824707,-0.6520441770553589,-3.597608804702759
1772905494654070800,8.98907080078125,9.463912963867188,-0.3936193287372589,-3.1259236335754395
1772905494664049200,8.999049072265626,9.155238151550293,-0.11096715182065964,-2.5178475379943848
1772905494674027500,9.009027587890625,8.805587768554688,0.125922292470932,-1.9025931358337402
1772905494684006000,9.019005859375,8.400900840759277,0.3080759048461914,-1.3495519161224365
1772905494693991000,9.028990966796876,7.99172830581665,0.45164528489112854,-0.8730811476707458
1772905494703970000,9.038969970703125,7.654041290283203,0.5760720372200012,-0.4301098585128784
1772905494713967400,9.04896728515625,7.431509017944336,0.7151548862457275,0.046360939741134644
1772905494723948300,9.0589482421875,7.285247802734375,0.8730811476707458,0.5946164131164551
1772905494733931300,9.06893115234375,7.191927433013916,1.0310074090957642,1.1787642240524292
1772905494743912400,9.078912353515625,7.153642177581787,1.155434250831604,1.7150555849075317
1772905494753901800,9.08890185546875,7.191927433013916,1.1868400573730469,2.1245274543762207
1772905494763883800,9.0988837890625,7.357032299041748,1.0836495161056519,2.376072883605957
1772905494773863400,9.108863525390625,7.64447021484375,0.8946165442466736,2.5076780319213867
1772905494783845400,9.118845458984374,7.989335536956787,0.727118968963623,2.383251428604126
1772905494793827800,9.128827880859374,8.321938514709473,0.49710890650749207,2.000100612640381
1772905494803809800,9.138809814453126,8.614161491394043,0.16689938306808472,1.3968101739883423
1772905494813800000,9.148800048828125,8.894122123718262,-0.19232311844825745,0.625723123550415
1772905494823782700,9.15878271484375,9.171988487243652,-0.503689169883728,-0.18574285507202148
1772905494833772300,9.168772216796874,9.442377090454102,-0.7405785918235779,-0.88025963306427
1772905494843755500,9.178755615234374,9.705886840820312,-0.8865407705307007,-1.34476637840271
1772905494853935600,9.188935546875,9.966704368591309,-0.9394819736480713,-1.5649060010910034
1772905494864048400,9.19904833984375,10.168001174926758,-0.9056833982467651,-1.5696916580200195
1772905494873868300,9.208868408203125,10.1847505569458,-0.8267202377319336,-1.3710874319076538
1772905494883674000,9.218674072265625,9.957133293151855,-0.711864709854126,-1.002293586730957
1772905494893657000,9.228656982421874,9.550353050231934,-0.534795880317688,-0.5353940725326538
1772905494913620500,9.248620361328125,8.93958568572998,-0.07507480680942535,0.2593221664428711
1772905494923598800,9.258598876953124,9.021240234375,0.15972091257572174,0.4462614357471466
1772905494933588700,9.268588623046876,9.320343017578125,0.3846462368965149,0.5108676552772522
1772905494943568400,9.278568359375,9.729815483093262,0.5880361795425415,0.49172505736351013
1772905494953559000,9.28855908203125,10.132108688354492,0.7438687682151794,0.4295116662979126
1772905494963539700,9.298539794921876,10.45513916015625,0.8300103545188904,0.34576287865638733
1772905494973517000,9.30851708984375,10.694721221923828,0.8635098934173584,0.247358039021492
1772905494983497500,9.31849755859375,10.85743236541748,0.8706883192062378,0.13250255584716797
1772905494993469000,9.328468994140625,10.953145980834961,0.8682954907417297,0.015254244208335876
1772905495003448300,9.3384482421875,10.99143123626709,0.8682954907417297,-0.09002995491027832
1772905495013628400,9.34862841796875,10.957931518554688,0.8659027218818665,-0.1785643845796585
1772905495023738600,9.358738525390624,10.790433883666992,0.8611170649528503,-0.22881366312503815
1772905495033558800,9.368558837890625,10.44796085357666,0.8659027218818665,-0.21684955060482025
1772905495043367400,9.378367431640624,9.978668212890625,0.8850452899932861,-0.13310076296329498
1772905495053357800,9.38835791015625,9.492925643920898,0.9209375977516174,0.027218356728553772
1772905495063334100,9.398334228515624,9.042776107788086,0.9711868762969971,0.23300109803676605
1772905495073514200,9.40851416015625,8.61894702911377,1.0238289833068848,0.4486542344093323
1772905495083626500,9.41862646484375,8.207082748413086,1.0621141195297241,0.6376872062683105
1772905495093446700,9.42844677734375,7.826324462890625,1.0788638591766357,0.783948540687561
1772905495103257300,9.43825732421875,7.524828910827637,1.0740783214569092,0.8748757839202881
1772905495113437200,9.448437255859375,7.383353233337402,1.0501500368118286,0.9083753228187561
1772905495123560000,9.458559814453125,7.429116249084473,1.0214362144470215,0.8844470977783203
1772905495133521700,9.468521728515626,7.591827869415283,0.9927222728729248,0.8270193338394165
1772905495143523600,9.478523681640626,7.766504287719727,0.968794047832489,0.7621139883995056
1772905495153343500,9.488343505859374,7.9005022048950195,0.9711868762969971,0.7094719409942627
1772905495163145000,9.49814501953125,7.998907089233398,1.0046863555908203,0.6783652305603027
1772905495173324800,9.50832470703125,8.08504867553711,1.052542805671692,0.6592226624488831
1772905495183449300,9.518449462890626,8.207082748413086,1.095613718032837,0.625723123550415
1772905495193269200,9.528269287109374,8.422436714172363,1.1171491146087646,0.5443671345710754
1772905495203095600,9.538095458984374,8.760123252868652,1.1267203092575073,0.39601215720176697
1772905495213275600,9.548275634765625,9.126524925231934,1.155434250831604,0.2234298139810562
1772905495223392000,9.55839208984375,9.377771377563477,1.2203395366668701,0.09900303930044174
1772905495233212200,9.568212158203124,9.47348403930664,1.332802176475525,0.05593222752213478
1772905495243018800,9.578018798828126,9.46630573272705,1.4763715267181396,0.06550352275371552
1772905495253020400,9.5880205078125,9.416056632995605,1.6319050788879395,0.06789634376764297
1772905495262992000,9.597991943359375,9.344271659851074,1.7662022113800049,0.02961117960512638
1772905495273172000,9.608171875,9.253344535827637,1.8690935373306274,-0.054137613624334335
1772905495283293200,9.618293212890626,9.169595718383789,1.960020899772644,-0.1785643845796585
1772905495293113000,9.628113037109374,9.11695384979248,2.0389840602874756,-0.32243284583091736
1772905495302930200,9.63793017578125,9.069096565246582,2.120339870452881,-0.43489551544189453
1772905495312908800,9.64790869140625,8.985347747802734,2.2259232997894287,-0.494716078042984
1772905495322880500,9.657880615234374,8.848658561706543,2.3599212169647217,-0.4827519655227661
1772905495333060600,9.668060546875,8.695517539978027,2.4843480587005615,-0.37507495284080505
1772905495343185200,9.67818505859375,8.551948547363281,2.568096876144409,-0.15942180156707764
1772905495353156400,9.68815625,8.453842163085938,2.599203586578369,0.12771691381931305
1772905495363158500,9.698158447265625,8.415258407592773,2.568096876144409,0.4247260093688965
1772905495373127000,9.708126953125,8.410472869873047,2.465205430984497,0.6616154313087463
1772905495383125500,9.71812548828125,8.384151458740234,2.2881367206573486,0.778863787651062
1772905495393110800,9.72811083984375,8.324331283569336,2.0557336807250977,0.7334001660346985
1772905495403108000,9.738108154296874,8.286046028137207,1.794916033744812,0.5611169338226318
1772905495412928300,9.74792822265625,8.331509590148926,1.5433706045150757,0.3577269911766052
1772905495422740500,9.757740478515625,8.4562349319458,1.332802176475525,0.23300109803676605
1772905495432920300,9.76792041015625,8.568697929382324,1.1820544004440308,0.24496522545814514
1772905495443017000,9.778016845703124,8.58784008026123,1.0980064868927002,0.3840480446815491
1772905495452837000,9.787837158203125,8.535198211669922,1.093220829963684,0.5802595019340515
1772905495462665200,9.797665283203125,8.496912956237793,1.1458629369735718,0.7573283910751343
1772905495472674600,9.807674560546875,8.556734085083008,1.2203395366668701,0.8557332158088684
1772905495482644200,9.817644287109376,8.752944946289062,1.3040883541107178,0.8461619019508362
1772905495492824000,9.827823974609375,9.076275825500488,1.4069796800613403,0.7501499056816101
1772905495502950700,9.83795068359375,9.451948165893555,1.5385849475860596,0.6089733839035034
1772905495512917500,9.84791748046875,9.78963565826416,1.711167335510254,0.4630111753940582
1772905495522918100,9.857918212890626,10.017252922058105,1.9360926151275635,0.3409772217273712
1772905495532885200,9.86788525390625,10.117751121520996,2.2016959190368652,0.2763710021972656
1772905495542882300,9.87788232421875,10.110572814941406,2.4843480587005615,0.2883351147174835
1772905495552702500,9.887702392578126,10.045967102050781,2.7502505779266357,0.3720839321613312
1772905495562514400,9.897514404296874,9.990633010864258,2.9297122955322266,0.4941178858280182
1772905495572505900,9.907505859375,10.000503540039062,2.9823544025421143,0.6448656916618347
1772905495582472400,9.917472412109374,10.043574333190918,3.0397820472717285,0.7094719409942627
1772905495592469200,9.92746923828125,10.022038459777832,3.1570303440093994,0.6664010882377625
1772905495602439000,9.93743896484375,9.8207426071167,3.2650065422058105,0.6352944374084473
1772905495612433400,9.947433349609375,9.337093353271484,3.291327476501465,0.6951149702072144
1772905495622405600,9.957405517578126,8.642875671386719,3.1642088890075684,0.781555712223053
1772905495632405500,9.967405517578126,8.056334495544434,2.872284412384033,0.6927221417427063
1772905495642380500,9.977380615234376,7.914859294891357,2.4532413482666016,0.23778675496578217
1772905495652560600,9.987560546875,8.286046028137207,1.979163408279419,-0.5952146053314209
1772905495662680600,9.9976806640625,8.877371788024902,1.5553346872329712,-1.6342978477478027
1772905495672500700,10.007500732421875,9.358628273010254,1.1748759746551514,-2.568096876144409
1772905495682309000,10.01730908203125,9.662816047668457,0.7677969932556152,-3.121138095855713
1772905495692302600,10.027302490234375,9.851848602294922,0.3846462368965149,-3.2359936237335205
1772905495702277000,10.037277099609375,10.026823997497559,0.11874382197856903,-3.0373892784118652
1772905495712457200,10.047457275390625,10.22303581237793,-0.0008973084622994065,-2.682952404022217
1772905495722582000,10.05758203125,10.400104522705078,-0.024825535714626312,-2.311765670776367
1772905495732521200,10.067521240234376,10.46471118927002,-0.03678964823484421,-2.00309157371521
1772905495742522400,10.0775224609375,10.333105087280273,-0.07028916478157043,-1.7778671979904175
1772905495752496000,10.08749609375,9.983454704284668,-0.11096715182065964,-1.6103696823120117
1772905495762494500,10.097494384765625,9.483354568481445,-0.1420738399028778,-1.4452649354934692
1772905495772457200,10.107457275390624,8.949156761169434,-0.1372881978750229,-1.241575837135315
1772905495782452000,10.117451904296875,8.506484031677246,-0.0726819857954979,-0.9807581901550293
1772905495792386800,10.12738671875,8.190332412719727,0.03978067636489868,-0.6263213157653809
1772905495802375200,10.137375244140625,7.963014602661133,0.19561325013637543,-0.19292132556438446
1772905495812328000,10.147327880859375,7.752147197723389,0.3774677813053131,0.23778675496578217
1772905495822312700,10.157312744140626,7.541578769683838,0.5401797294616699,0.5706881880760193
1772905495832300300,10.16730029296875,7.357032299041748,0.633499801158905,0.747757077217102
1772905495842285300,10.177285400390625,7.282855033874512,0.6358926296234131,0.7549355626106262
1772905495852282400,10.187282470703124,7.417151927947998,0.5617151260375977,0.6161518096923828
1772905495862268700,10.1972685546875,7.823931694030762,0.4420739710330963,0.3936193287372589
1772905495872088600,10.207088623046875,8.468199729919434,0.31046873331069946,0.15164513885974884
1772905495881955600,10.21695556640625,9.207880973815918,0.18843477964401245,-0.054137613624334335
1772905495891996700,10.22699658203125,9.799206733703613,0.07806584239006042,-0.2072782665491104
1772905495901965000,10.236965087890624,10.065109252929688,-0.020039889961481094,-0.3248256742954254
1772905495911995100,10.2469951171875,10.014860153198242,-0.10618150234222412,-0.4492524564266205
1772905495921970000,10.256969970703125,9.825528144836426,-0.18753747642040253,-0.6119644045829773
1772905495931995400,10.266995361328124,9.667601585388184,-0.2665006220340729,-0.8276175260543823
1772905495941975300,10.276975341796875,9.648459434509277,-0.3478565812110901,-1.088435173034668
1772905495951988000,10.286988037109374,9.792028427124023,-0.41994038224220276,-1.3543375730514526
1772905495961971200,10.29697119140625,10.014860153198242,-0.4654040038585663,-1.5744773149490356
1772905495971989200,10.3069892578125,10.182357788085938,-0.48454657196998596,-1.7084753513336182
1772905495981976000,10.31697607421875,10.158429145812988,-0.4821537733078003,-1.7443677186965942
1772905495992002600,10.32700244140625,9.909276962280273,-0.4582255482673645,-1.6917256116867065
1772905496001993500,10.336993408203124,9.545567512512207,-0.40319061279296875,-1.5744773149490356
1772905496011813600,10.346813720703125,9.24855899810791,-0.3119642436504364,-1.404586911201477
1772905496021658400,10.356658447265625,9.167202949523926,-0.20907287299633026,-1.1769696474075317
1772905496031838500,10.36683837890625,9.291629791259766,-0.1133599728345871,-0.8563314080238342
1772905496041987300,10.3769873046875,9.495318412780762,-0.024825535714626312,-0.45643091201782227
1772905496051984000,10.38698388671875,9.619745254516602,0.06610172241926193,-0.04217349737882614
1772905496061821400,10.396821533203125,9.622138023376465,0.1333998590707779,0.3194418251514435
1772905496071805700,10.4068056640625,9.602995872497559,0.17647066712379456,0.5730810165405273
1772905496081959700,10.416959716796875,9.6795654296875,0.19561325013637543,0.6975077986717224
1772905496091959300,10.426959228515624,9.897313117980957,0.18125630915164948,0.7094719409942627
1772905496101959200,10.436959228515626,10.136894226074219,0.17168502509593964,0.6424728631973267
1772905496111779000,10.446779052734374,10.196714401245117,0.2027917206287384,0.5754738450050354
1772905496121599200,10.45659912109375,9.976275444030762,0.2913261651992798,0.5802595019340515
1772905496131779000,10.466779052734376,9.545567512512207,0.41096729040145874,0.6855437159538269
1772905496141943600,10.476943603515625,9.059525489807129,0.5330012440681458,0.8581260442733765
1772905496151906800,10.48690673828125,8.676374435424805,0.6478567123413086,1.0088738203048706
1772905496161727000,10.49672705078125,8.458627700805664,0.7342974543571472,1.0710872411727905
1772905496171547000,10.506546875,8.388936996459961,0.7821539044380188,1.0088738203048706
1772905496181470700,10.516470703125,8.408080101013184,0.789332389831543,0.838983416557312
1772905496191443500,10.526443359375,8.43440055847168,0.7677969932556152,0.623330295085907
1772905496201523700,10.536523681640626,8.415258407592773,0.7438687682151794,0.42711883783340454
1772905496211507700,10.5465078125,8.379365921020508,0.7366902828216553,0.30508488416671753
1772905496221494000,10.556493896484374,8.398508071899414,0.7606185078620911,0.26919254660606384
1772905496231478300,10.566478271484375,8.525627136230469,0.8084749579429626,0.3122633695602417
1772905496241298200,10.576298095703125,8.72901725769043,0.8611170649528503,0.4342973232269287
1772905496251164700,10.58616455078125,8.891729354858398,0.9185447692871094,0.6113662123680115
1772905496261170200,10.596170166015625,8.927620887756348,0.9855438470840454,0.8006982803344727
1772905496271133200,10.60613330078125,8.83669376373291,1.0477572679519653,0.9323035478591919
1772905496281202700,10.61620263671875,8.717052459716797,1.0740783214569092,0.9801599979400635
1772905496291177000,10.626177001953126,8.693124771118164,1.0621141195297241,0.9538389444351196
1772905496301146600,10.636146728515625,8.803194046020508,1.064507007598877,0.8126623630523682
1772905496311120400,10.646120361328125,8.994919776916504,1.0453643798828125,0.6185446381568909
1772905496321107700,10.656107666015625,9.212666511535645,0.9735797047615051,0.4701896607875824
1772905496331082800,10.666082763671875,9.416056632995605,0.9185447692871094,0.381655216217041
1772905496341078800,10.676078857421874,9.57188892364502,0.9305089116096497,0.3409772217273712
1772905496351056000,10.686055908203125,9.631709098815918,0.9807581901550293,0.3242274820804596
1772905496361074000,10.696073974609375,9.5862455368042,1.038185954093933,0.3026920557022095
1772905496371055400,10.706055419921874,9.442377090454102,1.0788638591766357,0.26201409101486206
1772905496381042200,10.716042236328125,9.23180866241455,1.1027921438217163,0.22582264244556427
1772905496391024400,10.7260244140625,8.985347747802734,1.124327540397644,0.247358039021492
1772905496401026000,10.736026123046875,8.731410026550293,1.155434250831604,0.36251261830329895
1772905496411010000,10.746010009765625,8.525627136230469,1.2035897970199585,0.5611169338226318
1772905496420962000,10.755962158203126,8.410472869873047,1.2538390159606934,0.778863787651062
1772905496430942700,10.765942626953125,8.381758689880371,1.2897313833236694,0.9323035478591919
1772905496440920000,10.775920166015625,8.47298526763916,1.306481122970581,0.9586246013641357
1772905496450900500,10.785900390625,8.702695846557617,1.31365966796875,0.8629116415977478
1772905496460836600,10.795836669921876,8.99252700805664,1.3184453248977661,0.7310073375701904
1772905496470812400,10.8058125,9.241379737854004,1.3351950645446777,0.6520441770553589
1772905496480795000,10.815794921875,9.392127990722656,1.368694543838501,0.656829833984375
1772905496490771500,10.825771484375,9.463912963867188,1.3950155973434448,0.7238288521766663
1772905496500744000,10.835743896484376,9.514460563659668,1.3902299404144287,0.7740781307220459
1772905496510720000,10.845719970703126,9.559925079345703,1.3280165195465088,0.7381857633590698
1772905496520696600,10.855696533203124,9.591031074523926,1.191625714302063,0.5754738450050354
1772905496530672600,10.865672607421875,9.602995872497559,0.9879366755485535,0.2907279431819916
1772905496540636700,10.87563671875,9.631709098815918,0.7462615370750427,-0.08045866340398788
1772905496550611700,10.88561181640625,9.710672378540039,0.5066801905632019,-0.46839502453804016
1772905496560611300,10.895611328125,9.897313117980957,0.32961133122444153,-0.7965108156204224
1772905496570589000,10.9055888671875,10.177572250366211,0.2602194547653198,-0.9951151013374329
1772905496580570600,10.915570556640626,10.392926216125488,0.2961117923259735,-0.9927222728729248
1772905496590548500,10.925548583984375,10.42642593383789,0.38703906536102295,-0.7603194117546082
1772905496600510200,10.93551025390625,10.306784629821777,0.50907301902771,-0.38703906536102295
1772905496610486500,10.945486572265626,10.187143325805664,0.6601199507713318,0.010468599386513233
1772905496620460300,10.955460205078126,10.208678245544434,0.8012964725494385,0.4055834412574768
1772905496630436400,10.965436279296876,10.402497291564941,0.9041878581047058,0.7381857633590698
1772905496640433700,10.97543359375,10.711470603942871,0.9329017400741577,0.9107680916786194
1772905496650411800,10.985411865234376,11.029715538024902,0.8204390406608582,0.8485547304153442
1772905496660393200,10.995393310546875,11.271690368652344,0.5617151260375977,0.5419743061065674
1772905496670371800,11.005371826171874,11.412866592407227,0.2315055876970291,0.0726819857954979
1772905496680369400,11.015369384765625,11.398509979248047,-0.02961117960512638,-0.5712863802909851
1772905496690349800,11.025349853515625,11.231012344360352,-0.23778675496578217,-1.2894322872161865
1772905496700360700,11.035360595703125,11.010573387145996,-0.41994038224220276,-1.9576280117034912
1772905496710344200,11.04534423828125,10.859825134277344,-0.5611169338226318,-2.462812662124634
1772905496720303600,11.0553037109375,10.788041114807129,-0.6376872062683105,-2.7667012214660645
1772905496730284800,11.065284912109375,10.634900093078613,-0.6520441770553589,-2.836092948913574
1772905496740233200,11.075233154296875,10.239785194396973,-0.6137589812278748,-2.675773859024048
1772905496750211000,11.085211181640625,9.612566947937012,-0.5108676552772522,-2.3575284481048584
1772905496760196600,11.095196533203126,8.925228118896484,-0.35503506660461426,-1.9456639289855957
1772905496770175200,11.10517529296875,8.348258972167969,-0.1827518343925476,-1.4739787578582764
1772905496780148700,11.115148681640624,7.89332389831543,-0.017647067084908485,-0.9711868762969971
1772905496790126800,11.125126953125,7.505686283111572,0.12831512093544006,-0.46360939741134644
1772905496800093700,11.13509375,7.110571384429932,0.25304099917411804,0.015254244208335876
1772905496810070500,11.145070556640626,6.669992923736572,0.33918261528015137,0.4127618968486786
1772905496820064000,11.15506396484375,6.231807708740234,0.3535395562648773,0.6759724020957947
1772905496830042600,11.165042724609375,5.8944196701049805,0.29850462079048157,0.7935197949409485
1772905496840016400,11.175016357421875,5.798407554626465,0.21954147517681122,0.7645068168640137
1772905496849994500,11.184994384765625,6.02602481842041,0.1333998590707779,0.6185446381568909
1772905496859980300,11.194980224609376,6.543173313140869,0.03738785535097122,0.4247260093688965
1772905496869959200,11.204959228515625,7.230212688446045,-0.05353940650820732,0.23778675496578217
1772905496879938600,11.2149384765625,7.95344352722168,-0.1372881978750229,0.0726819857954979
1772905496889917400,11.22491748046875,8.592626571655273,-0.20907287299633026,-0.07806584239006042
1772905496899881000,11.234880859375,9.069096565246582,-0.2593221664428711,-0.21206390857696533
1772905496909858300,11.2448583984375,9.368199348449707,-0.271286278963089,-0.32243284583091736
1772905496919856600,11.254856689453124,9.528818130493164,-0.2306082844734192,-0.39182472229003906
1772905496929836000,11.2648359375,9.574281692504883,-0.1540379524230957,-0.3846462368965149
1772905496939814700,11.274814697265626,9.514460563659668,-0.03200400248169899,-0.2599203586578369
1772905496949794000,11.2847939453125,9.382556915283203,0.15254244208335876,0.017647067084908485
1772905496959767000,11.29476708984375,9.260522842407227,0.41096729040145874,0.4462614357471466
1772905496969746000,11.304745849609375,9.260522842407227,0.727118968963623,0.9514461159706116
1772905496979746600,11.31474658203125,9.476176261901855,1.0453643798828125,1.4063814878463745
1772905496989727500,11.3247275390625,9.904491424560547,1.2538390159606934,1.731805443763733
1772905496999716000,11.334716064453126,10.376175880432129,1.3567304611206055,1.8349958658218384
1772905497009697800,11.34469775390625,10.788041114807129,1.4213366508483887,1.688734531402588
1772905497019684400,11.354684326171874,11.185548782348633,1.4093725681304932,1.389631748199463
1772905497029666600,11.36466650390625,11.487044334411621,1.3663017749786377,0.961017370223999
1772905497039652600,11.374652587890624,11.54686450958252,1.373480200767517,0.4486542344093323
1772905497049635300,11.38463525390625,11.381759643554688,1.3926228284835815,-0.01824527233839035
1772905497059637200,11.39463720703125,11.077871322631836,1.3591232299804688,-0.3607180118560791
1772905497069621800,11.404621826171875,10.620543479919434,1.2610175609588623,-0.5712863802909851
1772905497079614000,11.414614013671875,10.022038459777832,1.1291131973266602,-0.6789634227752686
1772905497089599200,11.42459912109375,9.365806579589844,1.0070792436599731,-0.7028916478157043
1772905497099570000,11.43456982421875,8.769695281982422,0.9424729943275452,-0.6382854580879211
1772905497109554000,11.444553955078124,8.353044509887695,0.9544371366500854,-0.4899304509162903
1772905497119537000,11.454536865234376,8.137690544128418,1.0286146402359009,-0.27696922421455383
1772905497129520600,11.464520751953126,8.058727264404297,1.1219347715377808,-0.04217349737882614
1772905497139488500,11.474488525390624,8.03958511352539,1.191625714302063,0.16839489340782166
1772905497149470500,11.484470458984376,8.03958511352539,1.210768222808838,0.3170489966869354
1772905497159468500,11.494468505859375,8.04676342010498,1.179661512374878,0.39122650027275085
1772905497169452500,11.50445263671875,8.089834213256836,1.124327540397644,0.40797626972198486
1772905497179438800,11.51443896484375,8.180761337280273,1.0764710903167725,0.4103690981864929
1772905497189423000,11.524423095703124,8.321938514709473,1.057328462600708,0.43908295035362244
1772905497199413000,11.5344130859375,8.511270523071289,1.0836495161056519,0.4989035129547119
1772905497209397800,11.544397705078126,8.683553695678711,1.150648593902588,0.5778666734695435
1772905497219370200,11.554370361328125,8.767302513122559,1.2346965074539185,0.6496513485908508
1772905497229353700,11.564353759765625,8.774480819702148,1.3160524368286133,0.6759724020957947
1772905497239321300,11.5743212890625,8.774480819702148,1.373480200767517,0.6424728631973267
1772905497249303000,11.584302978515625,8.812766075134277,1.4069796800613403,0.5563312768936157
1772905497259285800,11.59428564453125,8.870193481445312,1.4141582250595093,0.43908295035362244
1772905497269267500,11.604267333984374,8.903693199157715,1.4093725681304932,0.3074777126312256
1772905497279265500,11.614265625,8.870193481445312,1.4069796800613403,0.18035900592803955
1772905497289249000,11.6242490234375,8.767302513122559,1.4141582250595093,0.09421738982200623
1772905497299235000,11.634235107421874,8.630910873413086,1.430907964706421,0.07507480680942535
1772905497309218800,11.64421875,8.499305725097656,1.466800332069397,0.11814561486244202
1772905497319190800,11.654190673828126,8.43440055847168,1.5242279767990112,0.19232311844825745
1772905497329173200,11.66417333984375,8.489734649658203,1.576870083808899,0.26201409101486206
1772905497339353300,11.674353271484375,8.6907320022583,1.5960127115249634,0.3026920557022095
1772905497349434000,11.68443408203125,8.982954978942871,1.5720844268798828,0.2883351147174835
1772905497359254300,11.694254150390625,9.224630355834961,1.5026925802230835,0.20428723096847534
1772905497369086500,11.70408642578125,9.28445053100586,1.397408366203308,0.05832505226135254
1772905497379058000,11.714057861328126,9.126524925231934,1.2897313833236694,-0.11874382197856903
1772905497389034000,11.724033935546874,8.863015174865723,1.2179467678070068,-0.267397940158844
1772905497399015000,11.734014892578125,8.664410591125488,1.2059825658798218,-0.34636107087135315
1772905497408991500,11.743991455078126,8.657232284545898,1.2442678213119507,-0.3415754437446594
1772905497418978000,11.75397802734375,8.865407943725586,1.3160524368286133,-0.27696922421455383
1772905497428955600,11.76395556640625,9.188737869262695,1.3926228284835815,-0.1737787425518036
1772905497439135700,11.7741357421875,9.46630573272705,1.4333007335662842,-0.05174478888511658
1772905497449226200,11.784226318359375,9.588638305664062,1.423729419708252,0.06550352275371552
1772905497459046400,11.79404638671875,9.531210899353027,1.3950155973434448,0.15882360935211182
1772905497468873500,11.80387353515625,9.361021041870117,1.3806586265563965,0.22821545600891113
1772905497478860300,11.8138603515625,9.191130638122559,1.4093725681304932,0.2593221664428711
1772905497488835300,11.82383544921875,9.112167358398438,1.4883357286453247,0.247358039021492
1772905497498855700,11.833855712890625,9.133703231811523,1.6055840253829956,0.2066800594329834
1772905497508835300,11.84383544921875,9.207880973815918,1.739881157875061,0.16839489340782166
1772905497518805000,11.853804931640624,9.260522842407227,1.8762720823287964,0.16121642291545868
1772905497528783600,11.86378369140625,9.207880973815918,2.00309157371521,0.20189441740512848
1772905497538785300,11.873785400390625,9.064311027526855,2.120339870452881,0.2907279431819916
1772905497548766200,11.88376611328125,8.925228118896484,2.245065927505493,0.40319061279296875
1772905497558756900,11.8937568359375,8.901300430297852,2.3670997619628906,0.486939400434494
1772905497568738800,11.90373876953125,9.002098083496094,2.431705951690674,0.5419743061065674
1772905497578731300,11.913731201171874,9.193523406982422,2.4388844966888428,0.5682953596115112
1772905497588714500,11.923714599609376,9.365806579589844,2.503490686416626,0.486939400434494
1772905497598712300,11.93371240234375,9.411270141601562,2.627917528152466,0.33858439326286316
1772905497608697000,11.943697021484375,9.344271659851074,2.7406792640686035,0.2353939265012741
1772905497618687700,11.953687744140625,9.265308380126953,2.8196423053741455,0.2353939265012741
1772905497628673000,11.963673095703125,9.272486686706543,2.8842484951019287,0.33858439326286316
1772905497638647600,11.9736474609375,9.260522842407227,2.979961395263672,0.4989035129547119
1772905497648631800,11.9836318359375,9.04516887664795,3.1019954681396484,0.5802595019340515
1772905497658594600,11.993594482421875,8.688339233398438,3.154637575149536,0.4941178858280182
1772905497668576500,12.003576416015624,8.444271087646484,3.082852840423584,0.2835494875907898
1772905497678557000,12.013556884765626,8.458627700805664,2.848356246948242,0.09661021083593369
1772905497688538600,12.02353857421875,8.803194046020508,2.4939193725585938,-0.03738785535097122
1772905497698505500,12.03350537109375,9.463912963867188,2.1083757877349854,-0.2551347017288208
1772905497708486000,12.04348583984375,10.321141242980957,1.7279170751571655,-0.6239284873008728
1772905497718435300,12.053435302734375,11.202298164367676,1.3208380937576294,-1.038185954093933
1772905497728412400,12.063412353515625,11.908479690551758,0.9185447692871094,-1.3591232299804688
1772905497738397400,12.0733974609375,12.270095825195312,0.5808576941490173,-1.495514154434204
1772905497748375300,12.083375244140624,12.157632827758789,0.355932354927063,-1.4069796800613403
1772905497758555100,12.09355517578125,11.551650047302246,0.24586252868175507,-1.124327540397644
1772905497768651500,12.103651611328125,10.613365173339844,0.20518454909324646,-0.7722834944725037
1772905497778611700,12.11361181640625,9.598209381103516,0.1860419660806656,-0.48035913705825806
1772905497788615000,12.123614990234374,8.726624488830566,0.1788634955883026,-0.3152543902397156
1772905497798581800,12.133581787109375,8.168797492980957,0.18364913761615753,-0.2793620526790619
1772905497808581000,12.1435810546875,7.943871974945068,0.20518454909324646,-0.3128615617752075
1772905497818401000,12.153401123046875,7.958229064941406,0.2626122832298279,-0.355932354927063
1772905497828224000,12.16322412109375,8.056334495544434,0.35114672780036926,-0.3798605799674988
1772905497838202000,12.1732021484375,8.099405288696289,0.4660021960735321,-0.389431893825531
1772905497848170200,12.183170166015625,8.037192344665527,0.600000262260437,-0.39421752095222473
1772905497858180000,12.19318017578125,7.914859294891357,0.7390831112861633,-0.38225340843200684
1772905497868152300,12.20315234375,7.802396297454834,0.8587242364883423,-0.35114672780036926
1772905497878140400,12.213140380859375,7.730611801147461,0.9400802254676819,-0.2913261651992798
1772905497888114400,12.223114501953125,7.699504852294922,0.9807581901550293,-0.19531415402889252
1772905497898092800,12.2330927734375,7.7114691734313965,1.0166505575180054,-0.06370890140533447
1772905497908067000,12.243067138671876,7.809575080871582,1.0788638591766357,0.09421738982200623
1772905497918064000,12.253064208984375,7.986942768096924,1.1700903177261353,0.2763710021972656
1772905497928040700,12.263040771484375,8.207082748413086,1.2705888748168945,0.4534398913383484
1772905497938018000,12.27301806640625,8.42722225189209,1.3591232299804688,0.5730810165405273
1772905497947994600,12.28299462890625,8.621339797973633,1.404586911201477,0.5994020700454712
1772905497957976300,12.292976318359376,8.803194046020508,1.4021940231323242,0.5252245664596558
1772905497967953700,12.30295361328125,8.970991134643555,1.368694543838501,0.381655216217041
1772905497977931000,12.312930908203125,9.109774589538574,1.3184453248977661,0.20907287299633026
1772905497987908400,12.322908447265625,9.188737869262695,1.2681959867477417,0.05114658549427986
1772905497997908500,12.332908447265625,9.191130638122559,1.2251251935958862,-0.05174478888511658
1772905498007888100,12.34288818359375,9.11695384979248,1.1892328262329102,-0.0852443054318428
1772905498017844500,12.352844482421874,9.009276390075684,1.1650055646896362,-0.056530434638261795
1772905498027821800,12.36282177734375,8.930013656616211,1.1386845111846924,0.012861421331763268
1772905498037817900,12.37281787109375,8.951549530029297,1.0980064868927002,0.08225327730178833
1772905498047797000,12.382796875,9.1145601272583,1.038185954093933,0.09421738982200623
1772905498057765000,12.39276513671875,9.37059211730957,0.9520443081855774,0.03918246924877167
1772905498067743200,12.4027431640625,9.600603103637695,0.8563314080238342,-0.06610172241926193
1772905498077731300,12.4127314453125,9.6795654296875,0.7677969932556152,-0.18335004150867462
1772905498087710500,12.42271044921875,9.559925079345703,0.7103692293167114,-0.2745763957500458
1772905498107657700,12.44265771484375,9.066703796386719,0.7319046258926392,-0.2503490746021271
1772905498117631000,12.452630859375,8.978169441223145,0.7510471940040588,-0.11874382197856903
1772905498127608600,12.462608642578125,9.1145601272583,0.7845467329025269,-0.0014955141814425588
1772905498137592600,12.472592529296875,9.327521324157715,0.8611170649528503,0.015254244208335876
1772905498147570700,12.48257080078125,9.449555397033691,0.9352945685386658,-0.07567301392555237
1772905498157546800,12.492546630859374,9.416056632995605,0.9616156220436096,-0.22402802109718323
1772905498167524900,12.50252490234375,9.272486686706543,0.9376873970031738,-0.3415754437446594
1772905498177498000,12.512498046875,9.128917694091797,0.9065806865692139,-0.35832518339157104
1772905498187475700,12.522475830078125,9.090632438659668,0.9329017400741577,-0.25274190306663513
1772905498197442600,12.532442626953125,9.186345100402832,1.038185954093933,-0.03978067636489868
1772905498207419000,12.5424189453125,9.377771377563477,1.184447169303894,0.2234298139810562
1772905498217404700,12.55240478515625,9.567103385925293,1.2993026971817017,0.46061834692955017
1772905498227382000,12.562382080078125,9.655637741088867,1.3280165195465088,0.5970092415809631
1772905498237359400,12.572359375,9.605388641357422,1.2729816436767578,0.6017948985099792
1772905498247336700,12.582336669921874,9.456734657287598,1.1820544004440308,0.48454657196998596
1772905498257324000,12.592323974609375,9.346664428710938,1.1147562265396118,0.2907279431819916
1772905498267302400,12.602302490234376,9.399306297302246,1.0788638591766357,0.09182456880807877
1772905498277296000,12.612296142578124,9.622138023376465,1.052542805671692,-0.06370890140533447
1772905498287276300,12.6222763671875,9.90688419342041,1.0166505575180054,-0.1618146300315857
1772905498297259300,12.63225927734375,10.108180046081543,0.9879366755485535,-0.20009979605674744
1772905498307239700,12.64223974609375,10.129715919494629,0.9831510186195374,-0.18574285507202148
1772905498317236500,12.652236572265625,9.969097137451172,0.9903294444084167,-0.13070793449878693
1772905498327218400,12.662218505859375,9.722636222839355,1.002293586730957,-0.05892325937747955
1772905498337210000,12.672210205078125,9.497711181640625,0.9903294444084167,0.020039889961481094
1772905498347193300,12.682193359375,9.310771942138672,0.9233304262161255,0.07986045628786087
1772905498357186600,12.6921865234375,9.126524925231934,0.8036893010139465,0.06311069428920746
1772905498367170600,12.702170654296875,8.918049812316895,0.6720840334892273,-0.054137613624334335
1772905498377162800,12.712162841796875,8.6907320022583,0.5688936114311218,-0.24077777564525604
1772905498387147800,12.722147705078125,8.508877754211426,0.5162515044212341,-0.43968117237091064
1772905498397131300,12.73213134765625,8.470592498779297,0.5186443328857422,-0.5760720372200012
1772905498407116000,12.742115966796876,8.583054542541504,0.5641079545021057,-0.6023930907249451
1772905498417091600,12.752091552734376,8.764909744262695,0.6406782865524292,-0.5066801905632019
1772905498427075300,12.762075439453126,8.877371788024902,0.7342974543571472,-0.3200400173664093
1772905498437058800,12.772058837890626,8.827122688293457,0.8395816683769226,-0.11635100096464157
1772905498447042800,12.782042724609376,8.61894702911377,0.9568299651145935,0.05114658549427986
1772905498457019000,12.792018798828124,8.365009307861328,1.0908280611038208,0.15882360935211182
1772905498467001900,12.802001953125,8.219046592712402,1.2346965074539185,0.20907287299633026
1772905498476987000,12.81198681640625,8.298009872436523,1.3663017749786377,0.21385852992534637
1772905498486970000,12.82197021484375,8.58784008026123,1.4524433612823486,0.1899302899837494
1772905498496939800,12.831939697265625,8.980562210083008,1.4859428405761719,0.15882360935211182
1772905498506921500,12.84192138671875,9.341878890991211,1.495514154434204,0.125324085354805
1772905498516899600,12.851899658203125,9.56471061706543,1.5122638940811157,0.1013958603143692
1772905498526881000,12.861881103515625,9.600603103637695,1.557727575302124,0.11096715182065964
1772905498536860200,12.871860107421876,9.46630573272705,1.6199408769607544,0.15164513885974884
1772905498546841300,12.88184130859375,9.23180866241455,1.6845471858978271,0.1827518343925476
1772905498556820200,12.8918203125,8.970991134643555,1.7255241870880127,0.15164513885974884
1772905498566801200,12.90180126953125,8.72901725769043,1.7207385301589966,0.05353940650820732
1772905498576784100,12.9117841796875,8.513663291931152,1.6845471858978271,-0.11156535893678665
1772905498586765300,12.921765380859375,8.333902359008789,1.6462619304656982,-0.3200400173664093
1772905498596765200,12.93176513671875,8.226224899291992,1.6319050788879395,-0.544965386390686
1772905498606748200,12.941748046875,8.283653259277344,1.6414763927459717,-0.755533754825592
1772905498616724000,12.951723876953125,8.532805442810059,1.6654045581817627,-0.9185447692871094
1772905498626706200,12.9617060546875,8.86780071258545,1.6869399547576904,-1.0286146402359009
1772905498636691000,12.97169091796875,9.169595718383789,1.7015960216522217,-1.1051849126815796
1772905498646673400,12.98167333984375,9.346664428710938,1.708774447441101,-1.1578270196914673
1772905498656655000,12.991655029296876,9.353842735290527,1.7135601043701172,-1.1578270196914673
1772905498666637600,13.001637451171876,9.229415893554688,1.7303098440170288,-1.0908280611038208
1772905498676614400,13.011614501953124,9.078668594360352,1.770987868309021,-0.9496514797210693
1772905498686596400,13.021596435546876,8.994919776916504,1.8140586614608765,-0.7076773047447205
1772905498696565800,13.031565673828124,9.023633003234863,1.8523437976837158,-0.389431893825531
1772905498706546400,13.04154638671875,9.176774024963379,1.9049859046936035,-0.07088737189769745
1772905498716587500,13.05158740234375,9.406484603881836,1.960020899772644,0.17318053543567657
1772905498726574300,13.06157421875,9.610174179077148,2.00309157371521,0.2835494875907898
1772905498736496600,13.07149658203125,9.66520881652832,2.0389840602874756,0.2306082844734192
1772905498746476800,13.081476806640625,9.519247055053711,2.05812668800354,0.03678964823484421
1772905498756444000,13.09144384765625,9.279664993286133,2.0318055152893066,-0.2599203586578369
1772905498766422800,13.1014228515625,9.160024642944336,1.8978074789047241,-0.5282155871391296
1772905498776393700,13.111393798828125,9.361021041870117,1.6366907358169556,-0.5880361795425415
1772905498796371500,13.131371337890625,10.64686393737793,1.064507007598877,-0.01585244946181774
1772905498806351600,13.1413515625,11.324332237243652,0.8395816683769226,0.35533416271209717
1772905498816373500,13.15137353515625,11.7385892868042,0.600000262260437,0.623330295085907
1772905498826358000,13.16135791015625,11.743375778198242,0.32721850275993347,0.714257538318634
1772905498836377600,13.171377685546876,11.362617492675781,0.05174478888511658,0.6089733839035034
1772905498846365700,13.18136572265625,10.76411247253418,-0.18753747642040253,0.35054850578308105
1772905498866376000,13.2013759765625,9.720243453979492,-0.5276173949241638,-0.20009979605674744
1772905498876315600,13.211315673828125,9.425627708435059,-0.6017948985099792,-0.31764721870422363
1772905498886301400,13.221301513671875,9.188737869262695,-0.5754738450050354,-0.2793620526790619
1772905498896228900,13.231228759765624,8.961420059204102,-0.4486542344093323,-0.14267204701900482
1772905498906208800,13.241208740234375,8.73619556427002,-0.23778675496578217,-0.023030918091535568
1772905498916211000,13.2512109375,8.58066177368164,0.0038883367087692022,0.008075776509940624
