time,seconds_elapsed,z,y,x
1772914077547197200,0.254197265625,8.896514892578125,3.1809585094451904,0.4534398913383484
1772914077597004500,0.304004638671875,8.65633487701416,3.1172497272491455,0.46480581164360046
1772914077646707200,0.353707275390625,8.253443717956543,3.1106693744659424,0.6098706722259521
1772914077696596700,0.4035966796875,7.968996524810791,3.1283164024353027,0.7310073375701904
1772914077746494700,0.45349462890625,8.217551231384277,2.9665019512176514,1.0304092168807983
1772914077796409600,0.50340966796875,7.890033721923828,3.0876386165618896,1.1730812788009644
1772914077846316300,0.55331640625,8.305188179016113,3.059821844100952,1.1808580160140991
1772914077896223700,0.6032236328125,8.888139724731445,3.139981508255005,0.8814560174942017
1772914077946115300,0.653115234375,9.285347938537598,3.107379198074341,0.875174880027771
1772914077996185600,0.703185546875,9.086145401000977,2.9593234062194824,1.0917253494262695
1772914078045870800,0.752870849609375,8.635995864868164,3.0158538818359375,1.3334003686904907
1772914078095965000,0.80296484375,9.215657234191895,2.939283609390259,1.2215359210968018
1772914078145697000,0.852697021484375,9.542576789855957,2.979363203048706,0.7492526173591614
1772914078195810300,0.902810302734375,9.677472114562988,2.684448003768921,0.545264482498169
1772914078245454000,0.9524541015625,9.181559562683105,2.7406792640686035,-0.18005990982055664
1772914078295556600,1.002556640625,7.8795647621154785,2.954537868499756,-0.32721850275993347
1772914078345251600,1.05225146484375,7.35822868347168,2.9934210777282715,-0.10438688844442368
1772914078395133000,1.1021328125,7.470093250274658,3.2793633937835693,-0.016450656577944756
1772914078445014300,1.15201416015625,7.958229064941406,3.3194432258605957,0.23419751226902008
1772914078495112700,1.20211279296875,8.665905952453613,3.3535408973693848,0.4289134442806244
1772914078544803800,1.251803955078125,9.212666511535645,3.410968780517578,0.5572285652160645
1772914078594908200,1.301908203125,9.208778381347656,3.403790235519409,0.714257538318634
1772914078644907800,1.35190771484375,9.227023124694824,3.344866991043091,0.6903293132781982
1772914078694764000,1.401763916015625,9.268598556518555,3.1615169048309326,0.6002993583679199
1772914078744669700,1.451669677734375,8.90817928314209,3.168994426727295,0.268594354391098
1772914078794390800,1.501390869140625,8.878568649291992,3.0628130435943604,-0.10498509556055069
1772914078844447500,1.551447509765625,8.772686004638672,2.962613582611084,-0.4833501875400543
1772914078894183000,1.601182861328125,7.856235027313232,2.9542386531829834,-0.5096712112426758
1772914078944190000,1.65118994140625,7.846962928771973,2.638087034225464,-0.3415754437446594
1772914078993931300,1.70093115234375,8.395816802978516,2.743072032928467,-0.6780661344528198
1772914079043855400,1.75085546875,8.397610664367676,2.6587250232696533,-0.5300102233886719
1772914079093679900,1.800679931640625,8.007282257080078,2.831606388092041,-0.6023930907249451
1772914079143532300,1.8505322265625,7.9642109870910645,2.827120065689087,-0.3400799036026001
1772914079193662200,1.900662109375,8.340781211853027,2.803191661834717,-0.13878370821475983
1772914079243809000,1.95080908203125,8.928817749023438,2.7116663455963135,-0.10737791657447815
1772914079293370400,2.000370361328125,9.08135986328125,2.655734062194824,0.009571290574967861
1772914079343176000,2.050176025390625,8.690134048461914,2.496910333633423,0.2066800594329834
1772914079392994300,2.099994384765625,8.918049812316895,2.3336002826690674,0.18424734473228455
1772914079442874400,2.149874267578125,9.288339614868164,2.3279173374176025,-0.04217349737882614
1772914079492718000,2.199718017578125,9.061020851135254,2.3162522315979004,-0.22372891008853912
1772914079542608000,2.24960791015625,9.076275825500488,2.1664018630981445,-0.2192423790693283
1772914079592519400,2.29951953125,8.912964820861816,2.059023857116699,-0.1091725304722786
1772914079642601200,2.349601318359375,9.002396583557129,2.1490538120269775,-0.15672987699508667
1772914079692269000,2.39926904296875,8.950652122497559,2.1041884422302246,0.11006984114646912
1772914079742545400,2.44954541015625,9.253344535827637,2.1011974811553955,0.20578274130821228
1772914079792397000,2.49939697265625,8.924330711364746,2.058724880218506,0.381655216217041
1772914079842156800,2.54915673828125,9.246764183044434,1.9351953268051147,0.503689169883728
1772914079892142000,2.59914208984375,8.960822105407715,1.8652052879333496,0.7157530784606934
1772914079942016500,2.6490166015625,9.091529846191406,1.846660852432251,0.7890332937240601
1772914079991918800,2.6989189453125,9.399007797241211,1.872383713722229,0.7339983582496643
1772914080091702300,2.798702392578125,9.580562591552734,2.2235305309295654,0.15463615953922272
1772914080141456600,2.84845654296875,9.436694145202637,2.3350958824157715,-0.08763712644577026
1772914080191163100,2.8981630859375,8.79332447052002,2.3799612522125244,-0.20129621028900146
1772914080241054500,2.948054443359375,8.674580574035645,2.4032912254333496,-0.33768710494041443
1772914080290958300,2.997958251953125,8.481958389282227,2.4589242935180664,-0.48813581466674805
1772914080340844500,3.047844482421875,8.161619186401367,2.535494804382324,-0.5560321807861328
1772914080390725600,3.0977255859375,8.294719696044922,2.6192433834075928,-0.5647061467170715
1772914080440771000,3.14777099609375,8.307282447814941,2.8396823406219482,-0.7025925517082214
1772914080490506800,3.1975068359375,7.949554920196533,3.3729825019836426,-1.0549356937408447
1772914080540395000,3.24739501953125,7.633403301239014,3.795315742492676,-1.2655041217803955
1772914080590282500,3.297282470703125,7.885247707366943,3.766602039337158,-1.2469596862792969
1772914080640178000,3.347177978515625,8.143373489379883,3.408874988555908,-0.9912267923355103
1772914080690093600,3.397093505859375,8.105985641479492,3.2216365337371826,-0.6732804775238037
1772914080740140800,3.447140869140625,8.603095054626465,3.3816566467285156,-0.7345965504646301
1772914080789905000,3.49690478515625,8.837591171264648,3.489034414291382,-0.5099703073501587
1772914080839793700,3.546793701171875,9.054739952087402,3.5697922706604004,-0.2626122832298279
1772914080889661400,3.596661376953125,8.93958568572998,3.3209388256073,0.1579262912273407
1772914080939554300,3.64655419921875,8.831010818481445,3.292224884033203,0.3604189157485962
1772914080989453800,3.696453857421875,9.332008361816406,3.361018419265747,0.18035900592803955
1772914081039344000,3.74634423828125,9.353543281555176,3.261118173599243,-0.04695914313197136
1772914081089229300,3.796229248046875,9.253344535827637,3.06999135017395,-0.4166502356529236
1772914081139138800,3.846138916015625,8.911469459533691,2.8405795097351074,-0.5563312768936157
1772914081189057500,3.8960576171875,8.048258781433105,2.9449665546417236,-0.7495517134666443
1772914081238959900,3.9459599609375,8.0955171585083,3.261118173599243,-1.2005987167358398
1772914081288851200,3.995851318359375,8.037490844726562,3.457329511642456,-1.3977075815200806
1772914081338746000,4.04574609375,8.123632431030273,3.638885021209717,-1.4946168661117554
1772914081388647400,4.0956474609375,8.336295127868652,3.7363924980163574,-1.5619150400161743
1772914081438516000,4.145515869140625,8.290831565856934,3.6843485832214355,-1.440778374671936
1772914081488399600,4.195399658203125,8.408080101013184,3.3807592391967773,-1.155434250831604
1772914081538299100,4.245299072265625,8.23968505859375,3.1680972576141357,-0.9376873970031738
1772914081588204500,4.29520458984375,8.285148620605469,3.0993034839630127,-0.8614161610603333
1772914081638092500,4.345092529296875,8.496315002441406,2.886641502380371,-0.5670989751815796
1772914081687990300,4.394990234375,8.386544227600098,2.950350284576416,-0.2883351147174835
1772914081737868500,4.44486865234375,8.7505521774292,3.0020952224731445,-0.3032902777194977
1772914081787740200,4.494740234375,8.74756145477295,2.9048867225646973,-0.268594354391098
1772914081837647600,4.544647705078125,8.170592308044434,3.0978081226348877,-0.39930227398872375
1772914081887523600,4.594523681640625,8.82532787322998,2.941676378250122,-0.41964125633239746
1772914081937423400,4.64442333984375,8.6874418258667,2.957528829574585,-0.3885345757007599
1772914081987293400,4.69429345703125,8.900103569030762,2.9464619159698486,-0.41096729040145874
1772914082037172700,4.7441728515625,9.139386177062988,2.939283609390259,-0.481854647397995
1772914082087038000,4.794037841796875,8.794221878051758,2.892324447631836,-0.3966103494167328
1772914082136915000,4.8439150390625,8.56181812286377,2.790330410003662,-0.26530420780181885
1772914082186819000,4.893819091796875,8.568099975585938,2.7870402336120605,-0.267397940158844
1772914082236716800,4.943716796875,8.925228118896484,2.7442684173583984,-0.22402802109718323
1772914082286603000,4.99360302734375,9.298808097839355,2.7152554988861084,-0.24077777564525604
1772914082336508700,5.0435087890625,8.462815284729004,2.6865415573120117,0.0038883367087692022
1772914082386402000,5.093402099609375,8.49152946472168,2.7212376594543457,0.0014955141814425588
1772914082436295700,5.143295654296875,8.939286231994629,2.7257239818573,-0.12323036789894104
1772914082486156800,5.19315673828125,8.618349075317383,2.7798616886138916,-0.08853443711996078
1772914082536029200,5.243029296875,8.8438720703125,2.68534517288208,0.01196411345154047
1772914082585932300,5.292932373046875,8.909076690673828,2.715554714202881,-0.06041877344250679
1772914082635850000,5.34285009765625,8.76102066040039,2.9470601081848145,-0.22163519263267517
1772914082685766100,5.39276611328125,9.062217712402344,2.8869404792785645,-0.25423741340637207
1772914082735640000,5.44264013671875,8.655437469482422,2.9383862018585205,-0.1704886108636856
1772914082785526300,5.4925263671875,8.551051139831543,2.8339993953704834,-0.03888336941599846
1772914082835416300,5.542416259765625,8.669795036315918,2.8304100036621094,-0.04755735024809837
1772914082885316000,5.592316162109375,8.369495391845703,2.8190441131591797,0.15702898800373077
1772914082935232300,5.642232177734375,8.338687896728516,2.854039192199707,0.23210379481315613
1772914082985137700,5.6921376953125,8.650053977966309,2.944667339324951,0.12622138857841492
1772914083035018000,5.74201806640625,8.694022178649902,2.9976086616516113,0.25334009528160095
1772914083084900600,5.791900634765625,8.730812072753906,3.0484559535980225,0.3068794906139374
1772914083134766000,5.84176611328125,8.813663482666016,3.084348440170288,0.3002992272377014
1772914083184637200,5.89163720703125,8.648558616638184,3.0391838550567627,0.3284149169921875
1772914083234854000,5.94185400390625,8.779864311218262,2.872284412384033,0.33499518036842346
1772914083284783000,5.991783203125,8.620741844177246,2.8196423053741455,0.21774685382843018
1772914083334647300,6.041647216796875,8.587242126464844,2.6865415573120117,0.3601198196411133
1772914083384548000,6.091548095703125,8.885149002075195,2.827120065689087,0.22642084956169128
1772914083434339000,6.141339111328125,9.515657424926758,3.0173492431640625,-0.3577269911766052
1772914083484345900,6.191345947265625,8.89382266998291,3.027817964553833,-0.4531407952308655
1772914083534181600,6.241181640625,8.49152946472168,3.0245277881622314,-0.49621158838272095
1772914083583825200,6.2908251953125,8.488239288330078,3.0613174438476562,-0.7184450030326843
1772914083633859000,6.340859130859375,8.647063255310059,2.967100143432617,-0.7671987414360046
1772914083683842000,6.390842041015625,8.410472869873047,2.8319056034088135,-0.7854440212249756
1772914083733876700,6.440876708984375,7.677072525024414,3.1695926189422607,-0.9233304262161255
1772914083783674400,6.49067431640625,7.723433494567871,3.2084760665893555,-0.7067800164222717
1772914083833564700,6.540564697265625,8.360821723937988,3.4055848121643066,-0.5841478109359741
1772914083883306000,6.590305908203125,8.954540252685547,3.342773199081421,-0.3128615617752075
1772914083933079600,6.64007958984375,9.007183074951172,3.442075490951538,-0.1863410621881485
1772914083982999300,6.689999267578125,8.676973342895508,3.3092737197875977,0.034995030611753464
1772914084032881700,6.739881591796875,8.833403587341309,3.10528564453125,0.12352947145700455
1772914084082711800,6.7897119140625,9.03799057006836,2.9745776653289795,-0.04546362906694412
1772914084132616400,6.839616455078125,8.211868286132812,2.949453115463257,-0.01585244946181774
1772914084182534000,6.889533935546875,8.043473243713379,2.9961130619049072,-0.1582254022359848
1772914084232614700,6.93961474609375,8.354241371154785,2.979363203048706,-0.22941187024116516
1772914084282595300,6.98959521484375,8.427820205688477,2.950350284576416,-0.1983051747083664
1772914084332415700,7.039415771484375,8.607281684875488,2.82951283454895,-0.03918246924877167
1772914084382431200,7.08943115234375,8.282755851745605,2.999702215194702,-0.004486542660742998
1772914084432009500,7.139009521484375,8.644669532775879,2.8594231605529785,0.1666002720594406
1772914084481900800,7.18890087890625,8.672486305236816,2.6913273334503174,0.41605204343795776
1772914084532074800,7.23907470703125,8.447860717773438,2.7161529064178467,0.36999019980430603
1772914084581964000,7.288964111328125,8.83250617980957,2.8232316970825195,0.3158525824546814
1772914084631714800,7.33871484375,8.665905952453613,3.1178479194641113,0.238983154296875
1772914084681720300,7.38872021484375,10.118050575256348,3.2431719303131104,-0.22791635990142822
1772914084731584500,7.43858447265625,9.996614456176758,3.3170504570007324,-0.5790630578994751
1772914084781499100,7.4884990234375,8.591729164123535,3.339184045791626,-0.4381856322288513
1772914084831337700,7.538337646484375,7.95134973526001,3.313760280609131,-0.26979073882102966
1772914084880925700,7.58792578125,7.740781307220459,3.371187925338745,-0.30508488416671753
1772914084930821400,7.6378212890625,7.963313579559326,3.337688446044922,-0.3026920557022095
1772914084980711400,7.68771142578125,8.11525821685791,3.0367910861968994,-0.21355941891670227
1772914085030620000,7.737619873046875,9.026025772094727,2.4858436584472656,-0.10737791657447815
1772914085080498200,7.787498291015625,8.960223197937012,2.0054845809936523,0.5341976284980774
1772914085130374400,7.83737451171875,7.645367622375488,2.20528507232666,1.2717852592468262
1772914085180243000,7.887242919921875,8.992825508117676,2.5561327934265137,0.9236295223236084
1772914085230133000,7.937133056640625,9.383752822875977,2.7981069087982178,0.7794619798660278
1772914085280030000,7.987030029296875,8.85942554473877,2.813361167907715,1.0097711086273193
1772914085329922600,8.036922607421875,9.046963691711426,2.925823926925659,0.9206385016441345
1772914085380134000,8.0871337890625,8.805288314819336,2.9455647468566895,0.8536394834518433
1772914085429701000,8.136701171875,9.090632438659668,2.8420751094818115,0.5306084156036377
1772914085479594800,8.1865947265625,9.309874534606934,2.598306179046631,0.50907301902771
1772914085529476600,8.2364765625,8.973383903503418,2.501995086669922,0.5952146053314209
1772914085579342600,8.286342529296874,8.920144081115723,2.4747767448425293,0.5234299302101135
1772914085629238300,8.33623828125,8.716156005859375,2.4834508895874023,0.46480581164360046
1772914085679137300,8.38613720703125,9.003293991088867,2.455634355545044,0.35084763169288635
1772914085729023700,8.436023681640625,8.457132339477539,2.4930222034454346,0.3819543123245239
1772914085778916900,8.485916748046876,8.309675216674805,2.575873613357544,0.25423741340637207
1772914085828814800,8.53581494140625,8.38145923614502,2.4068803787231445,0.4145565330982208
1772914085878746000,8.58574609375,8.532805442810059,2.4197418689727783,0.4630111753940582
1772914085928632300,8.63563232421875,8.247461318969727,2.5471596717834473,0.5099703073501587
1772914085978542000,8.6855419921875,8.774181365966797,2.7927231788635254,0.014656038954854012
1772914086028428800,8.7354287109375,8.964710235595703,2.7299115657806396,-0.16540385782718658
1772914086078351400,8.785351318359375,8.579764366149902,2.8339993953704834,-0.21984058618545532
1772914086128230700,8.835230712890626,8.847761154174805,2.6509482860565186,-0.18813568353652954
1772914086178129200,8.885129150390625,9.548857688903809,2.446960210800171,-0.29850462079048157
1772914086228023000,8.93502294921875,9.354740142822266,2.350649118423462,-0.19172491133213043
1772914086277905000,8.98490478515625,8.540283203125,2.591127872467041,-0.21744775772094727
1772914086327765000,9.034764892578124,8.201399803161621,2.5833511352539062,-0.2183450609445572
1772914086377627400,9.08462744140625,8.950652122497559,2.4523441791534424,-0.3562314808368683
1772914086427506000,9.134505859375,8.747262001037598,2.4690937995910645,-0.21415762603282928
1772914086477388300,9.18438818359375,8.74636459350586,2.432603359222412,0.15493527054786682
1772914086527287800,9.234287841796874,9.541081428527832,2.344068765640259,0.35533416271209717
1772914086577168100,9.284168212890625,9.932307243347168,2.301297187805176,0.21355941891670227
1772914086627084800,9.334084716796875,9.532108306884766,2.4562325477600098,-0.031106693670153618
1772914086676981800,9.383981689453124,8.779864311218262,2.7693932056427,-0.3355933725833893
1772914086726885600,9.4338857421875,8.859724998474121,2.8884360790252686,-0.6278168559074402
1772914086776793600,9.483793701171875,8.552845001220703,2.9168508052825928,-0.8997012972831726
1772914086826668800,9.533668701171875,8.122735977172852,2.926422119140625,-1.1482558250427246
1772914086876552000,9.583552001953125,7.942376613616943,2.954537868499756,-1.19132661819458
1772914086926462200,9.633462158203125,7.1958160400390625,3.3466615676879883,-1.04715895652771
1772914086976350000,9.683349853515624,7.7853474617004395,3.1758737564086914,-0.28504499793052673
1772914087026260700,9.7332607421875,8.943174362182617,2.5537400245666504,0.9442676305770874
1772914087076147200,9.783147216796875,8.934800148010254,2.6554348468780518,1.0686944723129272
1772914087126036200,9.8330361328125,8.777471542358398,2.934497833251953,0.8790631890296936
1772914087175932700,9.8829326171875,9.08255672454834,3.253939628601074,0.5745765566825867
1772914087225847000,9.932846923828125,8.887541770935059,3.1417760848999023,0.7028916478157043
1772914087275707000,9.982706787109375,8.273782730102539,3.552743434906006,0.5557330846786499
1772914087325586400,10.03258642578125,9.032008171081543,3.430410385131836,0.4582255482673645
1772914087375492600,10.08249267578125,9.64636516571045,2.8573293685913086,0.6185446381568909
1772914087425414100,10.1324140625,9.141180992126465,2.8522446155548096,0.3963112533092499
1772914087475293000,10.18229296875,8.99970531463623,2.6087749004364014,0.24646073579788208
1772914087525211600,10.232211669921876,8.383852005004883,2.8426733016967773,-0.29312077164649963
1772914087575110100,10.282110107421875,7.600502014160156,2.9282166957855225,-0.3370888829231262
1772914087624983600,10.331983642578125,8.365607261657715,2.9225337505340576,-0.43998026847839355
1772914087674866000,10.381865966796875,8.865108489990234,2.9276185035705566,-0.6613163352012634
1772914087724766700,10.4317666015625,7.846663475036621,2.8339993953704834,-0.13040883839130402
1772914087774677200,10.48167724609375,7.456633567810059,2.7984061241149902,0.5994020700454712
1772914087824780000,10.531780029296876,8.369495391845703,2.8486554622650146,0.6894320249557495
1772914087874738000,10.581738037109375,9.70349407196045,3.0939197540283203,-0.023030918091535568
1772914087924604400,10.6316044921875,9.928120613098145,3.145066261291504,-0.26590242981910706
1772914087974511900,10.681511962890625,8.568997383117676,3.1666016578674316,-0.19262222945690155
1772914088024368400,10.731368408203124,8.172685623168945,3.142374277114868,-0.30598220229148865
1772914088074183000,10.781182861328125,8.097012519836426,3.030808925628662,-0.25334009528160095
1772914088123869400,10.830869384765625,8.124231338500977,2.9617161750793457,-0.11934202909469604
1772914088173853400,10.880853515625,8.685049057006836,2.767897605895996,0.08614161610603333
1772914088223871700,10.930871826171876,9.129216194152832,2.6922245025634766,0.007178467698395252
1772914088273843000,10.980843017578126,8.805288314819336,2.7257239818573,0.1624128371477127
1772914088323612700,11.03061279296875,8.891429901123047,2.7442684173583984,0.0852443054318428
1772914088373599200,11.08059912109375,9.096315383911133,2.5471596717834473,0.14925231039524078
1772914088423391700,11.130391845703125,8.526823043823242,2.391327142715454,0.5778666734695435
1772914088473094100,11.18009423828125,8.91775131225586,2.3736801147460938,0.5362913608551025
1772914088523058200,11.23005810546875,8.839685440063477,2.195713996887207,0.841675341129303
1772914088572830700,11.279830810546875,9.538389205932617,2.0865414142608643,0.7094719409942627
1772914088622661000,11.3296611328125,9.178269386291504,2.089831590652466,0.524327278137207
1772914088672712000,11.3797119140625,8.927322387695312,2.150250196456909,0.8129615187644958
1772914088722389200,11.42938916015625,9.049954414367676,2.001596212387085,0.9275178909301758
1772914088772450300,11.4794501953125,8.697312355041504,1.9743777513504028,1.0106685161590576
1772914088822494500,11.529494384765625,8.458927154541016,2.083550214767456,0.7621139883995056
1772914088872349000,11.579348876953125,8.86660385131836,2.059622049331665,0.8967102766036987
