time,seconds_elapsed,z,y,x
1772896007465908700,0.05690869140625,-0.9716949462890625,-0.22186279296875,-0.0753631591796875
1772896007475878000,0.0668779296875,-0.9494171142578125,-0.2221221923828125,-0.114105224609375
1772896007485845800,0.076845703125,-0.9901275634765625,-0.2500762939453125,-0.176666259765625
1772896007495814000,0.08681396484375,-1.0379180908203125,-0.26483154296875,-0.2332611083984375
1772896007505782000,0.096781982421875,-1.0626983642578125,-0.2571868896484375,-0.298583984375
1772896007515751000,0.1067509765625,-1.059783935546875,-0.279144287109375,-0.2652435302734375
1772896007525719000,0.116718994140625,-1.042694091796875,-0.2722930908203125,-0.1619873046875
1772896007535686700,0.126686767578125,-1.062713623046875,-0.2057342529296875,-0.1216583251953125
1772896007545655800,0.13665576171875,-1.0496063232421875,-0.1472015380859375,-0.10113525390625
1772896007555623700,0.146623779296875,-0.9838409423828125,-0.1708831787109375,-0.0507659912109375
1772896007565591800,0.156591796875,-0.9865875244140625,-0.190338134765625,-0.11083984375
1772896007575560700,0.166560791015625,-0.95770263671875,-0.169097900390625,-0.2619171142578125
1772896007585528800,0.17652880859375,-0.8751678466796875,-0.1654205322265625,-0.3385009765625
1772896007595497000,0.1864970703125,-0.8527069091796875,-0.2288818359375,-0.3171234130859375
1772896007605465900,0.1964658203125,-0.8644256591796875,-0.225677490234375,-0.2729949951171875
1772896007615434000,0.20643408203125,-0.826202392578125,-0.2068023681640625,-0.218841552734375
1772896007625401900,0.21640185546875,-0.8964385986328125,-0.192962646484375,-0.1060638427734375
1772896007635370800,0.226370849609375,-1.0093231201171875,-0.2872772216796875,-0.136077880859375
1772896007645339000,0.2363388671875,-1.00091552734375,-0.4203948974609375,-0.2198944091796875
1772896007655306800,0.246306640625,-1.000030517578125,-0.5263214111328125,-0.3321533203125
1772896007665276000,0.25627587890625,-0.9865570068359375,-0.562103271484375,-0.4351959228515625
1772896007675243800,0.266243896484375,-0.8792572021484375,-0.4272613525390625,-0.4477081298828125
1772896007685212000,0.2762119140625,-0.7503814697265625,-0.337493896484375,-0.460205078125
1772896007695180800,0.286180908203125,-0.55072021484375,-0.368194580078125,-0.402435302734375
1772896007705149000,0.29614892578125,-0.3085479736328125,-0.4400482177734375,-0.19464111328125
1772896007715116800,0.30611669921875,-0.1914520263671875,-0.520416259765625,-0.018768310546875
1772896007725084700,0.316084716796875,-0.099456787109375,-0.613311767578125,-0.1288909912109375
1772896007735053800,0.3260537109375,-0.4385223388671875,-0.8212127685546875,0.360870361328125
1772896007745021700,0.336021728515625,-0.740875244140625,-0.7514801025390625,0.5027618408203125
1772896007754989800,0.34598974609375,-0.810302734375,-0.5308074951171875,0.3260955810546875
1772896007764959000,0.355958984375,-0.8619842529296875,-0.399139404296875,0.2021942138671875
1772896007774926800,0.3659267578125,-0.94970703125,-0.2898406982421875,-0.0483245849609375
1772896007784894700,0.375894775390625,-0.99951171875,-0.2517547607421875,-0.2756805419921875
1772896007794863600,0.385863525390625,-0.9460296630859375,-0.3291168212890625,-0.38104248046875
1772896007804831700,0.395831787109375,-0.92071533203125,-0.4672393798828125,-0.4895782470703125
1772896007814800000,0.4057998046875,-0.869171142578125,-0.597137451171875,-0.566802978515625
1772896007824768800,0.415768798828125,-0.77410888671875,-0.6238250732421875,-0.5344085693359375
1772896007834737000,0.42573681640625,-0.660491943359375,-0.527679443359375,-0.40625
1772896007844704800,0.435704833984375,-0.5835113525390625,-0.4449310302734375,-0.3239593505859375
1772896007854674000,0.445673828125,-0.6527862548828125,-0.381988525390625,-0.327484130859375
1772896007864641800,0.455641845703125,-0.8519744873046875,-0.36578369140625,-0.376434326171875
1772896007874609700,0.465609619140625,-0.750274658203125,-0.387451171875,-0.462677001953125
1772896007884578800,0.475578857421875,-0.86553955078125,-0.3956146240234375,-0.4856414794921875
1772896007894546700,0.485546630859375,-0.8880615234375,-0.42291259765625,-0.48895263671875
1772896007904514800,0.495514892578125,-0.8222808837890625,-0.418121337890625,-0.4282379150390625
1772896007914483700,0.505483642578125,-0.76873779296875,-0.3799896240234375,-0.335693359375
1772896007924451800,0.515451904296875,-0.8189239501953125,-0.362060546875,-0.2902679443359375
1772896007934420000,0.525419921875,-0.8723297119140625,-0.3809661865234375,-0.3011016845703125
1772896007944387800,0.535387939453125,-0.797271728515625,-0.367156982421875,-0.288787841796875
1772896007954357000,0.54535693359375,-0.8484039306640625,-0.3451995849609375,-0.2710418701171875
1772896007964324600,0.55532470703125,-0.958831787109375,-0.3492584228515625,-0.31195068359375
1772896007974292700,0.565292724609375,-1.0770416259765625,-0.3967132568359375,-0.536773681640625
1772896007984261600,0.57526171875,-1.24200439453125,-0.36688232421875,-0.7283935546875
1772896007994229800,0.585229736328125,-1.0768280029296875,-0.2483673095703125,-0.518096923828125
1772896008004198000,0.595197998046875,-1.0775299072265625,-0.266387939453125,-0.380950927734375
1772896008014166800,0.605166748046875,-1.0976409912109375,-0.288604736328125,-0.391571044921875
1772896008024135000,0.615135009765625,-1.072021484375,-0.331878662109375,-0.408538818359375
1772896008034103000,0.62510302734375,-1.128143310546875,-0.392791748046875,-0.3973541259765625
1772896008044072000,0.635072021484375,-1.11346435546875,-0.3968963623046875,-0.3626861572265625
1772896008054039800,0.645039794921875,-1.1173553466796875,-0.3930511474609375,-0.2686309814453125
1772896008064007700,0.655007568359375,-1.1078948974609375,-0.3630523681640625,-0.1761474609375
1772896008073976800,0.664976806640625,-1.056976318359375,-0.29595947265625,-0.274322509765625
1772896008083945200,0.6749453125,-1.0311431884765625,-0.1896514892578125,-0.4357147216796875
1772896008093913000,0.6849130859375,-1.060546875,-0.1350860595703125,-0.381134033203125
1772896008103882200,0.69488232421875,-1.1437530517578125,-0.2182769775390625,-0.1277008056640625
1772896008113850000,0.70485009765625,-1.215576171875,-0.206939697265625,-0.095733642578125
1772896008123818200,0.714818359375,-1.1844482421875,-0.1290740966796875,-0.130218505859375
1772896008133787100,0.724787109375,-1.078399658203125,-0.1212005615234375,-0.0848846435546875
1772896008143755300,0.73475537109375,-1.039031982421875,-0.1585845947265625,-0.0726318359375
1772896008153723100,0.74472314453125,-1.0652923583984375,-0.18194580078125,-0.096649169921875
1772896008163691300,0.754691162109375,-1.07794189453125,-0.1721649169921875,-0.1202850341796875
1772896008173660200,0.76466015625,-1.0933990478515625,-0.17156982421875,-0.1359405517578125
1772896008183628000,0.7746279296875,-1.0792999267578125,-0.24139404296875,-0.076263427734375
1772896008193596200,0.78459619140625,-1.0629730224609375,-0.226654052734375,-0.0646209716796875
1772896008203565000,0.79456494140625,-1.0430908203125,-0.1229400634765625,-0.166290283203125
1772896008213533200,0.804533203125,-1.0203704833984375,-0.116607666015625,-0.2031707763671875
1772896008223501300,0.814501220703125,-1.0334930419921875,-0.1364288330078125,-0.178009033203125
1772896008233470200,0.82447021484375,-1.04425048828125,-0.1430816650390625,-0.12860107421875
1772896008243438300,0.834438232421875,-1.00616455078125,-0.1366424560546875,-0.0902862548828125
1772896008253406200,0.84440625,-0.9718170166015625,-0.1067047119140625,-0.0570068359375
1772896008263375400,0.854375244140625,-0.981597900390625,-0.09576416015625,-0.0362548828125
1772896008273343000,0.864343017578125,-1.0401153564453125,-0.066558837890625,0.0155792236328125
1772896008283311000,0.87431103515625,-1.0410919189453125,-0.04913330078125,-0.0215911865234375
1772896008293280000,0.884280029296875,-1.040069580078125,-0.07989501953125,-0.0571746826171875
1772896008303248100,0.894248046875,-1.0436859130859375,-0.1592254638671875,-0.0455169677734375
1772896008313216300,0.90421630859375,-1.04949951171875,-0.165374755859375,-0.084686279296875
1772896008323185200,0.91418505859375,-1.0236968994140625,-0.1528472900390625,-0.1268157958984375
1772896008333153300,0.9241533203125,-0.9799041748046875,-0.160430908203125,-0.1393585205078125
1772896008343121400,0.934121337890625,-0.9658966064453125,-0.1681976318359375,-0.1094818115234375
1772896008353090300,0.94409033203125,-0.9759979248046875,-0.159271240234375,-0.1093292236328125
1772896008363058200,0.95405810546875,-0.993011474609375,-0.1434173583984375,-0.1444091796875
1772896008373026000,0.964026123046875,-0.9499969482421875,-0.1413726806640625,-0.1284332275390625
1772896008382995200,0.9739951171875,-0.9292755126953125,-0.142669677734375,-0.1341705322265625
1772896008392963000,0.983963134765625,-0.962371826171875,-0.14111328125,-0.156341552734375
1772896008402931200,0.99393115234375,-0.9949798583984375,-0.1275177001953125,-0.2058563232421875
1772896008412899300,1.0038994140625,-0.9850311279296875,-0.1010894775390625,-0.2144622802734375
1772896008422868200,1.0138681640625,-0.939361572265625,-0.093841552734375,-0.2035369873046875
1772896008432836400,1.02383642578125,-0.9176483154296875,-0.1107940673828125,-0.2108612060546875
1772896008442804200,1.03380419921875,-0.91156005859375,-0.123870849609375,-0.2258453369140625
1772896008452773000,1.043773193359375,-0.9213409423828125,-0.1300048828125,-0.2268524169921875
1772896008462741200,1.0537412109375,-1.2349090576171875,-0.1790771484375,-0.4218597412109375
1772896008472709000,1.063709228515625,-1.380126953125,-0.320404052734375,-0.654144287109375
1772896008482678300,1.07367822265625,-0.8744659423828125,-0.2934417724609375,-0.1038360595703125
1772896008492646100,1.083646240234375,-0.820220947265625,-0.072235107421875,-0.1423187255859375
1772896008502614300,1.0936142578125,-0.8875274658203125,-0.1269683837890625,-0.37127685546875
1772896008512583200,1.103583251953125,-0.8387603759765625,-0.1941070556640625,-0.181060791015625
1772896008522551300,1.11355126953125,-0.79522705078125,-0.1389617919921875,-0.1179656982421875
1772896008532519200,1.123519287109375,-0.8106231689453125,-0.113250732421875,-0.09613037109375
1772896008542488000,1.133488037109375,-0.80517578125,-0.1251983642578125,-0.072784423828125
1772896008552456200,1.143456298828125,-0.8175201416015625,-0.1249542236328125,-0.0870513916015625
1772896008562424000,1.153424072265625,-0.834625244140625,-0.162811279296875,-0.085784912109375
1772896008572393200,1.163393310546875,-0.8495025634765625,-0.2005462646484375,-0.1042022705078125
1772896008582361300,1.173361328125,-0.87298583984375,-0.2147979736328125,-0.141998291015625
1772896008592329200,1.1833291015625,-0.8770904541015625,-0.214996337890625,-0.144866943359375
1772896008602298400,1.19329833984375,-0.8609619140625,-0.2034454345703125,-0.1298675537109375
1772896008612266200,1.203266357421875,-0.845428466796875,-0.1822509765625,-0.1086883544921875
1772896008622234000,1.213234130859375,-0.849395751953125,-0.16058349609375,-0.0962066650390625
1772896008632202200,1.2232021484375,-0.865325927734375,-0.159912109375,-0.0934906005859375
1772896008642171100,1.233171142578125,-0.886016845703125,-0.1770477294921875,-0.081573486328125
1772896008652139300,1.24313916015625,-0.900665283203125,-0.194854736328125,-0.0818328857421875
1772896008662107100,1.253107177734375,-0.9203033447265625,-0.1925048828125,-0.089630126953125
1772896008672076300,1.263076171875,-0.9356842041015625,-0.1938018798828125,-0.093994140625
1772896008682044200,1.273044189453125,-0.9178314208984375,-0.1929168701171875,-0.09564208984375
1772896008692012300,1.28301220703125,-0.800628662109375,-0.2269744873046875,-0.122711181640625
1772896008701981200,1.292981201171875,-0.8590545654296875,-0.2514801025390625,-0.193084716796875
1772896008711949000,1.302948974609375,-0.8748779296875,-0.2517242431640625,-0.227874755859375
1772896008721917200,1.312917236328125,-0.9900054931640625,-0.292938232421875,-0.24432373046875
1772896008731886000,1.322885986328125,-1.038055419921875,-0.2842864990234375,-0.20880126953125
1772896008741854200,1.332854248046875,-1.007110595703125,-0.2581024169921875,-0.1831207275390625
1772896008751822300,1.342822265625,-0.999755859375,-0.2239532470703125,-0.16131591796875
1772896008761791200,1.352791259765625,-1.03369140625,-0.22265625,-0.1417694091796875
1772896008771759400,1.36275927734375,-1.0335845947265625,-0.2405548095703125,-0.123626708984375
1772896008781727200,1.372727294921875,-1.014617919921875,-0.24713134765625,-0.11810302734375
1772896008791696400,1.3826962890625,-1.008941650390625,-0.2440643310546875,-0.1190185546875
1772896008801664000,1.3926640625,-1.000091552734375,-0.2424163818359375,-0.1083526611328125
1772896008811632000,1.402632080078125,-0.98968505859375,-0.2454376220703125,-0.09808349609375
1772896008821600300,1.412600341796875,-0.9837493896484375,-0.2290496826171875,-0.075347900390625
1772896008831569200,1.422569091796875,-0.98333740234375,-0.20880126953125,-0.04779052734375
1772896008841537300,1.432537353515625,-1.00140380859375,-0.2073211669921875,-0.0440673828125
1772896008851505200,1.442505126953125,-1.0020599365234375,-0.20556640625,-0.045562744140625
1772896008861474300,1.452474365234375,-0.9830322265625,-0.2108306884765625,-0.0464630126953125
1772896008871442200,1.462442138671875,-0.9680633544921875,-0.220947265625,-0.0387420654296875
1772896008881410000,1.47241015625,-0.9559173583984375,-0.2245330810546875,-0.0421905517578125
1772896008891379200,1.482379150390625,-0.90972900390625,-0.2126312255859375,-0.069091796875
1772896008901347000,1.49234716796875,-0.9146575927734375,-0.2111053466796875,-0.0589447021484375
1772896008911315200,1.502315185546875,-0.93988037109375,-0.225433349609375,-0.05950927734375
1772896008921284000,1.5122841796875,-0.9381256103515625,-0.2388763427734375,-0.0851898193359375
1772896008931252200,1.522252197265625,-0.92626953125,-0.232086181640625,-0.085601806640625
1772896008941220400,1.532220458984375,-0.9014892578125,-0.219207763671875,-0.07421875
1772896008951189200,1.542189208984375,-0.91375732421875,-0.2231292724609375,-0.07598876953125
1772896008961157000,1.5521572265625,-0.9341583251953125,-0.2210845947265625,-0.0833587646484375
1772896008971125200,1.562125244140625,-0.93304443359375,-0.2043609619140625,-0.0763702392578125
1772896008981094100,1.57209423828125,-0.9441680908203125,-0.1935882568359375,-0.08404541015625
1772896008991062300,1.582062255859375,-0.9851531982421875,-0.2056121826171875,-0.093841552734375
1772896009001030100,1.592030029296875,-1.018341064453125,-0.2203369140625,-0.0868072509765625
1772896009010999300,1.601999267578125,-1.0107269287109375,-0.228485107421875,-0.0888519287109375
1772896009020967200,1.61196728515625,-1.0081939697265625,-0.2384796142578125,-0.1175994873046875
1772896009030935300,1.621935302734375,-1.0009002685546875,-0.24169921875,-0.1341705322265625
1772896009040903200,1.631903076171875,-0.9672393798828125,-0.23492431640625,-0.133453369140625
1772896009050872000,1.6418720703125,-0.9904022216796875,-0.2191009521484375,-0.1154937744140625
1772896009060840200,1.651840087890625,-0.9828948974609375,-0.21502685546875,-0.114410400390625
1772896009070808000,1.66180810546875,-0.9732818603515625,-0.16815185546875,-0.100250244140625
1772896009080776400,1.6717763671875,-0.9968414306640625,-0.2371368408203125,-0.147705078125
1772896009090744600,1.68174462890625,-0.98297119140625,-0.23797607421875,-0.135284423828125
1772896009100712400,1.69171240234375,-0.9780120849609375,-0.229034423828125,-0.116729736328125
1772896009110681600,1.701681640625,-0.9973602294921875,-0.2210693359375,-0.1192779541015625
1772896009120649200,1.711649169921875,-1.0012359619140625,-0.204925537109375,-0.099212646484375
1772896009130617300,1.721617431640625,-0.98419189453125,-0.2201080322265625,-0.10906982421875
1772896009140586500,1.73158642578125,-0.9816741943359375,-0.2175140380859375,-0.115997314453125
1772896009150554400,1.741554443359375,-0.9670562744140625,-0.1721954345703125,-0.1028900146484375
1772896009160522500,1.7515224609375,-0.9771728515625,-0.23236083984375,-0.1646270751953125
1772896009170491400,1.761491455078125,-0.9787750244140625,-0.2132720947265625,-0.1331329345703125
1772896009180459500,1.77145947265625,-0.9066162109375,-0.1886749267578125,-0.0816650390625
1772896009190427600,1.781427734375,-0.8797454833984375,-0.229827880859375,-0.087982177734375
1772896009200396500,1.791396484375,-0.904937744140625,-0.284515380859375,-0.1488494873046875
1772896009210364400,1.801364501953125,-0.9067535400390625,-0.27410888671875,-0.175262451171875
1772896009220332300,1.811332275390625,-0.956298828125,-0.232421875,-0.119232177734375
1772896009230300400,1.821300537109375,-1.019134521484375,-0.2006378173828125,-0.0695953369140625
1772896009240269300,1.831269287109375,-0.9697113037109375,-0.20330810546875,-0.09332275390625
1772896009250237400,1.841237548828125,-0.9519195556640625,-0.207305908203125,-0.0945587158203125
1772896009260205600,1.85120556640625,-0.9441986083984375,-0.2099609375,-0.105438232421875
1772896009270174500,1.861174560546875,-0.9570770263671875,-0.223419189453125,-0.136627197265625
1772896009280142600,1.871142578125,-0.9842987060546875,-0.229278564453125,-0.1155853271484375
1772896009290110500,1.8811103515625,-0.982147216796875,-0.2357940673828125,-0.1090087890625
1772896009300079400,1.891079345703125,-0.9691314697265625,-0.24554443359375,-0.1038970947265625
1772896009310047500,1.901047607421875,-0.9596099853515625,-0.2398529052734375,-0.110992431640625
1772896009320015400,1.911015380859375,-0.965240478515625,-0.2360687255859375,-0.117431640625
1772896009329984500,1.920984619140625,-0.9481964111328125,-0.2208251953125,-0.1260986328125
1772896009339952400,1.930952392578125,-0.905731201171875,-0.1777496337890625,-0.1314849853515625
1772896009349920500,1.94092041015625,-0.9268341064453125,-0.2258453369140625,-0.07281494140625
1772896009359889400,1.950889404296875,-0.9463958740234375,-0.2080230712890625,-0.1146240234375
1772896009369857500,1.960857421875,-0.943389892578125,-0.1664581298828125,-0.1575164794921875
1772896009379825400,1.970825439453125,-0.97247314453125,-0.2221527099609375,-0.23016357421875
1772896009389793300,1.980793212890625,-1.0091400146484375,-0.252777099609375,-0.166229248046875
1772896009399762400,1.990762451171875,-1.0090484619140625,-0.2432708740234375,-0.1404266357421875
1772896009409730600,2.00073046875,-0.96356201171875,-0.216796875,-0.1774749755859375
1772896009419698400,2.010698486328125,-0.9466552734375,-0.229339599609375,-0.17083740234375
1772896009429667600,2.02066748046875,-0.9699249267578125,-0.246337890625,-0.146514892578125
1772896009439635500,2.030635498046875,-0.977630615234375,-0.2444305419921875,-0.1607666015625
1772896009449603600,2.040603515625,-0.9631500244140625,-0.2446441650390625,-0.1646881103515625
1772896009459572500,2.050572509765625,-0.944732666015625,-0.2395782470703125,-0.1383209228515625
1772896009469540400,2.060540283203125,-0.926177978515625,-0.2300262451171875,-0.12017822265625
1772896009479508500,2.070508544921875,-0.92022705078125,-0.240692138671875,-0.147918701171875
1772896009489477400,2.080477294921875,-0.9488677978515625,-0.241729736328125,-0.14556884765625
1772896009499445500,2.090445556640625,-0.990997314453125,-0.224029541015625,-0.1166534423828125
1772896009509413400,2.100413330078125,-0.9941864013671875,-0.2107391357421875,-0.10968017578125
1772896009519382500,2.110382568359375,-0.976959228515625,-0.2051544189453125,-0.11614990234375
1772896009529350400,2.120350341796875,-0.9696502685546875,-0.2192535400390625,-0.1204071044921875
1772896009539318500,2.130318603515625,-0.9595489501953125,-0.24078369140625,-0.1356658935546875
1772896009549287700,2.14028759765625,-0.9476776123046875,-0.2240142822265625,-0.13824462890625
1772896009559255300,2.15025537109375,-0.9542694091796875,-0.1972503662109375,-0.13128662109375
1772896009569223400,2.160223388671875,-0.953826904296875,-0.199554443359375,-0.0936279296875
1772896009579192300,2.1701923828125,-0.931304931640625,-0.2118988037109375,-0.0808563232421875
1772896009589160400,2.180160400390625,-0.914337158203125,-0.2143402099609375,-0.0950927734375
1772896009599128600,2.190128662109375,-0.927032470703125,-0.2089691162109375,-0.116241455078125
1772896009609096400,2.200096435546875,-0.9582672119140625,-0.2077178955078125,-0.11334228515625
1772896009619065600,2.210065673828125,-0.9894256591796875,-0.21185302734375,-0.108489990234375
1772896009629033200,2.220033203125,-1.0036773681640625,-0.2094573974609375,-0.1417388916015625
1772896009639001300,2.23000146484375,-1.0013580322265625,-0.2025299072265625,-0.1882781982421875
1772896009648970200,2.23997021484375,-0.9985504150390625,-0.21783447265625,-0.178466796875
1772896009658938400,2.2499384765625,-0.9742279052734375,-0.245941162109375,-0.106781005859375
1772896009668906500,2.259906494140625,-0.932708740234375,-0.2117462158203125,-0.1092529296875
1772896009678875400,2.26987548828125,-0.95550537109375,-0.175079345703125,-0.1021728515625
1772896009688843500,2.279843505859375,-0.989227294921875,-0.1640777587890625,-0.0834503173828125
1772896009698811600,2.289811767578125,-0.981414794921875,-0.1816558837890625,-0.1509246826171875
1772896009708780500,2.299780517578125,-0.9900360107421875,-0.2598419189453125,-0.179595947265625
1772896009718748400,2.30974853515625,-1.06268310546875,-0.1952972412109375,-0.1637115478515625
1772896009728716300,2.31971630859375,-1.064971923828125,-0.182861328125,-0.1514739990234375
1772896009738685400,2.329685546875,-1.010406494140625,-0.1905364990234375,-0.1541290283203125
1772896009748653300,2.3396533203125,-0.9614105224609375,-0.1900787353515625,-0.1592254638671875
1772896009758621400,2.349621337890625,-0.94384765625,-0.195648193359375,-0.1825408935546875
1772896009768590300,2.35959033203125,-0.9517974853515625,-0.2194671630859375,-0.1757049560546875
1772896009778558500,2.369558349609375,-0.9344024658203125,-0.2354278564453125,-0.1853179931640625
1772896009788526600,2.379526611328125,-0.8981170654296875,-0.2132568359375,-0.228851318359375
1772896009798494500,2.389494384765625,-0.851409912109375,-0.22247314453125,-0.2566680908203125
1772896009808463400,2.39946337890625,-0.8139190673828125,-0.290374755859375,-0.231201171875
1772896009818431500,2.409431396484375,-0.8943328857421875,-0.203399658203125,-0.1771087646484375
1772896009828399400,2.4193994140625,-0.87860107421875,-0.183685302734375,-0.1905364990234375
1772896009838368500,2.429368408203125,-0.814056396484375,-0.2024383544921875,-0.1930389404296875
1772896009848336400,2.43933642578125,-0.8155670166015625,-0.1943206787109375,-0.1917266845703125
1772896009858304500,2.449304443359375,-0.8570556640625,-0.2051849365234375,-0.2205047607421875
1772896009868273400,2.4592734375,-0.819671630859375,-0.2093658447265625,-0.1969757080078125
1772896009878241500,2.469241455078125,-0.68670654296875,-0.141845703125,-0.293487548828125
1772896009888209400,2.47920947265625,-0.5833587646484375,-0.0823211669921875,-0.3817291259765625
1772896009898178300,2.48917822265625,-0.5738677978515625,-0.29132080078125,-0.132171630859375
1772896009908146400,2.499146484375,-0.4750823974609375,-0.4071197509765625,0.0335845947265625
1772896009918114300,2.5091142578125,-0.501495361328125,-0.3289947509765625,0.056976318359375
1772896009928083500,2.51908349609375,-0.59088134765625,-0.2684173583984375,-0.0886077880859375
1772896009938051600,2.529051513671875,-0.61083984375,-0.2677154541015625,-0.2427215576171875
1772896009948019500,2.53901953125,-0.6239776611328125,-0.2807464599609375,-0.376678466796875
1772896009957988600,2.548988525390625,-0.657928466796875,-0.34332275390625,-0.4892120361328125
1772896009967956500,2.55895654296875,-0.731353759765625,-0.3467559814453125,-0.5131072998046875
1772896009977924400,2.56892431640625,-0.76123046875,-0.281890869140625,-0.608612060546875
1772896009987892500,2.578892578125,-0.793487548828125,-0.251800537109375,-0.6870574951171875
1772896009997861400,2.588861328125,-0.7841949462890625,-0.25164794921875,-0.7102508544921875
1772896010007829500,2.59882958984375,-0.748138427734375,-0.289459228515625,-0.5750579833984375
1772896010017797400,2.60879736328125,-0.7217864990234375,-0.24456787109375,-0.41217041015625
1772896010027766500,2.6187666015625,-0.7659454345703125,-0.1570892333984375,-0.2064056396484375
1772896010037734400,2.628734375,-0.781829833984375,-0.152862548828125,-0.177886962890625
1772896010047702500,2.63870263671875,-0.88507080078125,-0.1620025634765625,-0.17364501953125
1772896010057671400,2.64867138671875,-0.9229736328125,-0.154632568359375,-0.2401885986328125
1772896010067639300,2.658639404296875,-0.9656524658203125,-0.14862060546875,-0.3966827392578125
1772896010077607400,2.668607421875,-0.97454833984375,-0.1837615966796875,-0.5045928955078125
1772896010087576300,2.678576416015625,-0.9396209716796875,-0.223236083984375,-0.5785675048828125
1772896010097544400,2.68854443359375,-0.89324951171875,-0.2084197998046875,-0.6630096435546875
1772896010107512600,2.6985126953125,-0.87738037109375,-0.2317047119140625,-0.65814208984375
1772896010117481500,2.7084814453125,-0.87054443359375,-0.243499755859375,-0.5358123779296875
1772896010127449600,2.71844970703125,-0.8255615234375,-0.21075439453125,-0.43609619140625
1772896010137417500,2.72841748046875,-0.8055877685546875,-0.1429901123046875,-0.387451171875
1772896010147385600,2.738385498046875,-0.8905029296875,-0.1516876220703125,-0.3455047607421875
1772896010157354500,2.7483544921875,-0.91864013671875,-0.125823974609375,-0.28558349609375
1772896010167322400,2.758322265625,-0.893798828125,-0.0612335205078125,-0.313873291015625
1772896010177290500,2.76829052734375,-0.85137939453125,-0.03717041015625,-0.3361968994140625
1772896010187259400,2.77825927734375,-0.6313018798828125,-0.1021575927734375,-0.2716827392578125
1772896010197227500,2.7882275390625,-0.3445892333984375,-0.26434326171875,-0.3731689453125
1772896010207195600,2.798195556640625,-0.324310302734375,-0.3247222900390625,-0.5312347412109375
1772896010217164500,2.80816455078125,-0.655670166015625,-0.1388702392578125,-0.4174652099609375
1772896010227132700,2.818132568359375,-0.7065277099609375,-0.01202392578125,-0.3444976806640625
1772896010237100500,2.8281005859375,-0.471160888671875,0.011322021484375,-0.3109893798828125
1772896010247069700,2.838069580078125,-0.455780029296875,-0.0310821533203125,-0.340240478515625
1772896010257037300,2.848037353515625,-0.433349609375,-0.0013885498046875,-0.38739013671875
1772896010267005400,2.85800537109375,-0.2874603271484375,0.0134124755859375,-0.3547821044921875
1772896010276974300,2.867974365234375,-0.1341552734375,0.0470733642578125,-0.3194580078125
1772896010286942500,2.8779423828125,-0.0996246337890625,0.062591552734375,-0.3309478759765625
1772896010296910600,2.88791064453125,-0.1672515869140625,0.044158935546875,-0.450103759765625
1772896010306879500,2.89787939453125,-0.17864990234375,0.0849456787109375,-0.567718505859375
1772896010316847600,2.90784765625,-0.0862579345703125,0.091461181640625,-0.5726470947265625
1772896010326815500,2.9178154296875,0.0157623291015625,0.1550140380859375,-0.5833282470703125
1772896010336783400,2.927783447265625,0.021148681640625,0.17083740234375,-0.4893798828125
1772896010346752500,2.93775244140625,-0.0852813720703125,0.232696533203125,-0.5280303955078125
1772896010356720400,2.947720458984375,-0.2198638916015625,0.3240966796875,-0.617218017578125
1772896010366688500,2.9576884765625,-0.27093505859375,0.3341522216796875,-0.6338958740234375
1772896010376657400,2.967657470703125,-0.2426910400390625,0.338653564453125,-0.739349365234375
1772896010386625500,2.97762548828125,-0.34088134765625,0.2594757080078125,-0.9388275146484375
1772896010396593700,2.98759375,-0.5873870849609375,0.3378753662109375,-1.2110137939453125
1772896010406562600,2.9975625,-0.6664581298828125,0.293548583984375,-1.32470703125
1772896010416530400,3.007530517578125,-0.585113525390625,0.3138580322265625,-1.4312286376953125
1772896010426498300,3.017498291015625,-0.657501220703125,0.333587646484375,-1.5198822021484375
1772896010436467500,3.027467529296875,-0.8326873779296875,0.274627685546875,-1.663818359375
1772896010446435300,3.037435302734375,-0.8822174072265625,0.1920013427734375,-2.022186279296875
1772896010456403500,3.047403564453125,-0.625213623046875,0.1099700927734375,-2.1825408935546875
1772896010466372600,3.05737255859375,-0.47381591796875,0.106201171875,-2.00689697265625
1772896010476340500,3.067340576171875,-0.7762908935546875,0.2084503173828125,-2.020355224609375
1772896010486308600,3.07730859375,-1.2590179443359375,0.162078857421875,-2.17645263671875
1772896010496276500,3.0872763671875,-1.35595703125,0.076568603515625,-2.2540435791015625
1772896010506245400,3.097245361328125,-1.1099700927734375,0.057586669921875,-2.0990447998046875
1772896010516213500,3.107213623046875,-0.8135528564453125,0.1045379638671875,-1.89068603515625
1772896010526181400,3.117181396484375,-0.7169647216796875,0.0904693603515625,-1.7684478759765625
1772896010536150500,3.127150634765625,-0.60546875,0.064605712890625,-1.790191650390625
1772896010546118400,3.137118408203125,-0.417266845703125,0.04095458984375,-1.8144073486328125
1772896010556086500,3.14708642578125,-0.189239501953125,0.0733795166015625,-1.6546173095703125
1772896010566055400,3.157055419921875,-0.25689697265625,0.110198974609375,-1.521087646484375
1772896010576023600,3.1670234375,-0.4234161376953125,0.1409912109375,-1.337554931640625
1772896010585991400,3.176991455078125,-0.5527496337890625,0.199615478515625,-1.16766357421875
1772896010595960300,3.186960205078125,-0.5410614013671875,0.2085113525390625,-0.9337158203125
1772896010605928400,3.196928466796875,-0.4490814208984375,0.227294921875,-0.8335113525390625
1772896010615896600,3.206896484375,-0.3452301025390625,0.204315185546875,-0.773773193359375
1772896010625865500,3.216865478515625,-0.3358154296875,0.103790283203125,-0.761444091796875
1772896010635833600,3.22683349609375,-0.220703125,0.0504302978515625,-0.770904541015625
1772896010645801500,3.236801513671875,-0.0261688232421875,0.025787353515625,-0.682464599609375
1772896010655770600,3.2467705078125,0.0496826171875,0.00927734375,-0.62774658203125
1772896010665738500,3.256738525390625,-0.0770263671875,0.0467681884765625,-0.56060791015625
1772896010675706400,3.266706298828125,-0.200958251953125,0.0883941650390625,-0.3535308837890625
1772896010685674500,3.276674560546875,-0.2118682861328125,0.0767364501953125,-0.1719207763671875
1772896010695643400,3.286643310546875,-0.0487213134765625,-0.001373291015625,-0.1934814453125
1772896010705611500,3.296611572265625,0.192535400390625,-0.0883636474609375,-0.350677490234375
1772896010715579400,3.306579345703125,0.409637451171875,-0.1575164794921875,-0.3484954833984375
1772896010725548500,3.316548583984375,0.4466552734375,-0.178131103515625,-0.3310546875
1772896010735516700,3.3265166015625,0.4058074951171875,-0.1822967529296875,-0.32568359375
1772896010745484500,3.336484619140625,0.2272491455078125,-0.165802001953125,-0.2353363037109375
1772896010755453700,3.34645361328125,0.0584869384765625,-0.12567138671875,-0.12603759765625
1772896010765421300,3.35642138671875,-0.0648040771484375,-0.10552978515625,-0.02801513671875
1772896010775389400,3.366389404296875,-0.1345062255859375,-0.1376953125,0.0156707763671875
1772896010785358300,3.3763583984375,-0.108551025390625,-0.2037353515625,-0.146270751953125
1772896010795326500,3.386326416015625,-0.0133514404296875,-0.254180908203125,-0.2446441650390625
1772896010805294600,3.396294677734375,0.069915771484375,-0.2123565673828125,-0.1400909423828125
1772896010815263500,3.406263427734375,0.0566558837890625,-0.1607666015625,-0.0133819580078125
1772896010825231600,3.416231689453125,0.0194549560546875,-0.1462860107421875,0.0148162841796875
1772896010835199500,3.426199462890625,-0.0153656005859375,-0.121978759765625,0.036376953125
1772896010845167400,3.43616748046875,-0.0300750732421875,-0.129058837890625,0.0336761474609375
1772896010855136500,3.446136474609375,0.0136871337890625,-0.1393890380859375,-0.0193634033203125
1772896010865104400,3.4561044921875,0.073638916015625,-0.10308837890625,-0.13067626953125
1772896010875072500,3.466072509765625,-0.062469482421875,-0.01055908203125,-0.5477752685546875
1772896010885041400,3.47604150390625,-0.390167236328125,0.3058319091796875,-1.3000640869140625
1772896010895009500,3.486009521484375,-0.8845672607421875,0.799957275390625,-2.139068603515625
1772896010904977700,3.495977783203125,-1.580047607421875,1.216827392578125,-3.3896026611328125
1772896010914946600,3.505946533203125,-2.1564178466796875,1.144195556640625,-5.366729736328125
1772896010924914700,3.515914794921875,-1.8591156005859375,0.6132965087890625,-7.4421844482421875
1772896010934882300,3.52588232421875,-0.8423614501953125,-0.053314208984375,-8.053314208984375
1772896010944851500,3.5358515625,-0.13385009765625,-0.3283538818359375,-7.9726104736328125
1772896010954819300,3.5458193359375,-0.0228118896484375,0.17681884765625,-7.1259765625
1772896010964787500,3.555787353515625,-0.37615966796875,0.8135986328125,-5.148468017578125
1772896010974755600,3.565755615234375,-1.0034637451171875,1.0697174072265625,-3.5793304443359375
1772896010984724500,3.575724365234375,-1.36041259765625,1.045928955078125,-2.3959197998046875
1772896010994692600,3.585692626953125,-1.250823974609375,0.8957672119140625,-1.311004638671875
1772896011004660500,3.595660400390625,-0.7579498291015625,0.756744384765625,-0.656280517578125
1772896011014629600,3.605629638671875,0.1240081787109375,0.540374755859375,-0.402191162109375
1772896011024597500,3.615597412109375,0.7096710205078125,0.3938751220703125,-0.1172332763671875
1772896011034565400,3.6255654296875,0.8256072998046875,0.3964080810546875,0.3216400146484375
1772896011044534500,3.635534423828125,0.6577301025390625,0.363128662109375,0.6864776611328125
1772896011054502400,3.64550244140625,0.3966064453125,0.2743682861328125,0.8358917236328125
1772896011064470500,3.655470458984375,0.301849365234375,0.25286865234375,0.9168548583984375
1772896011074439400,3.665439453125,0.2816162109375,0.2837371826171875,0.980743408203125
1772896011084407800,3.67540771484375,0.275299072265625,0.31005859375,0.93572998046875
1772896011094376000,3.6853759765625,0.293731689453125,0.3384246826171875,0.856658935546875
1772896011104344800,3.6953447265625,0.3136749267578125,0.37445068359375,0.820526123046875
1772896011114312700,3.705312744140625,0.3338470458984375,0.3958587646484375,0.7603302001953125
1772896011124280600,3.715280517578125,0.2702789306640625,0.318115234375,0.5516204833984375
1772896011134249700,3.725249755859375,0.2157135009765625,0.20562744140625,0.24468994140625
1772896011144217900,3.7352177734375,0.1528167724609375,0.072906494140625,-0.06884765625
1772896011154185700,3.745185791015625,0.0617828369140625,-0.011077880859375,-0.2818145751953125
1772896011164153900,3.75515380859375,-0.0636749267578125,-0.0631866455078125,-0.34716796875
1772896011174122800,3.765122802734375,-0.1321868896484375,-0.0646514892578125,-0.3400115966796875
1772896011184091000,3.7750908203125,-0.1470794677734375,-0.0538482666015625,-0.3648681640625
1772896011194058800,3.785058837890625,-0.1728057861328125,-0.052886962890625,-0.3404083251953125
1772896011204027600,3.795027587890625,-0.2300567626953125,-0.071990966796875,-0.3355712890625
1772896011213995800,3.804995849609375,-0.2296142578125,-0.092315673828125,-0.34136962890625
1772896011223963600,3.814963623046875,-0.1966400146484375,-0.085784912109375,-0.352264404296875
1772896011233932800,3.824932861328125,-0.1657257080078125,-0.087432861328125,-0.319854736328125
1772896011243900700,3.834900634765625,-0.1187744140625,-0.0933380126953125,-0.2666778564453125
1772896011253868800,3.844868896484375,-0.06640625,-0.0902252197265625,-0.21636962890625
1772896011263837700,3.854837646484375,-0.0308685302734375,-0.07354736328125,-0.1865997314453125
1772896011273805600,3.8648056640625,0.0104827880859375,-0.02728271484375,-0.1348876953125
1772896011283773700,3.874773681640625,0.030426025390625,0.007568359375,-0.0670318603515625
1772896011293742600,3.88474267578125,0.0278472900390625,0.036590576171875,-0.0212554931640625
1772896011303710700,3.894710693359375,0.002777099609375,0.0704193115234375,0.0650634765625
1772896011313678800,3.904678955078125,-0.0109405517578125,0.06024169921875,0.1249542236328125
1772896011323647700,3.914647705078125,-0.01068115234375,0.056060791015625,0.101898193359375
1772896011333615900,3.924615966796875,0.0047760009765625,0.023956298828125,0.0469207763671875
1772896011343583700,3.934583740234375,0.0221405029296875,-0.011199951171875,-0.0353240966796875
1772896011353551600,3.944551513671875,0.071319580078125,-0.0269012451171875,-0.044830322265625
1772896011363520500,3.9545205078125,0.117919921875,-0.0212860107421875,-0.0108795166015625
1772896011373488600,3.964488525390625,0.14013671875,-0.0185546875,0.019805908203125
1772896011383456800,3.974456787109375,0.1292572021484375,-0.0352020263671875,0.003753662109375
1772896011393425700,3.98442578125,0.0928497314453125,-0.0677490234375,-0.0051727294921875
1772896011403393800,3.994393798828125,0.07745361328125,-0.0768890380859375,0.0259246826171875
1772896011413361700,4.004361572265625,0.069000244140625,-0.07525634765625,0.0654754638671875
1772896011423330800,4.014330810546875,0.069854736328125,-0.0768890380859375,0.1010894775390625
1772896011433299000,4.024298828125,0.0536346435546875,-0.1075286865234375,0.068817138671875
1772896011443266600,4.0342666015625,0.03472900390625,-0.1418609619140625,0.0410308837890625
1772896011453235700,4.044235595703125,0.017608642578125,-0.1808624267578125,0.0482635498046875
1772896011463203600,4.05420361328125,0.019561767578125,-0.1853485107421875,0.1013336181640625
1772896011473171700,4.064171630859375,0.0461578369140625,-0.1696014404296875,0.193603515625
1772896011483140600,4.074140625,0.083953857421875,-0.1514892578125,0.2249755859375
1772896011493108700,4.084108642578125,0.142120361328125,-0.145904541015625,0.214202880859375
1772896011503076900,4.094076904296875,0.17877197265625,-0.1555328369140625,0.1800384521484375
1772896011513045800,4.104045654296875,0.1906585693359375,-0.19500732421875,0.080108642578125
1772896011523014000,4.114013916015625,0.2180633544921875,-0.2447967529296875,-0.12255859375
1772896011532981800,4.123981689453125,0.208587646484375,-0.251739501953125,-0.4965972900390625
1772896011542949600,4.13394970703125,0.088226318359375,-0.03900146484375,-1.0908355712890625
1772896011552918800,4.143918701171875,-0.205963134765625,0.5342254638671875,-2.009521484375
1772896011562886700,4.15388671875,-0.6779022216796875,1.044036865234375,-3.0886993408203125
1772896011572854800,4.163854736328125,-1.1804962158203125,0.72760009765625,-4.24993896484375
1772896011582823700,4.17382373046875,-1.488616943359375,-0.0167388916015625,-5.7528533935546875
1772896011592791800,4.183791748046875,-1.6315155029296875,-0.387298583984375,-7.3011016845703125
1772896011602760000,4.193760009765625,-1.448394775390625,-0.4098052978515625,-8.03289794921875
1772896011612728800,4.203728759765625,-0.8731536865234375,-0.313262939453125,-7.8512725830078125
1772896011622696700,4.21369677734375,-0.403289794921875,0.1220855712890625,-7.149627685546875
1772896011632664600,4.22366455078125,0.006317138671875,0.2906036376953125,-6.2035980224609375
1772896011642633700,4.2336337890625,0.046051025390625,0.429229736328125,-5.3069610595703125
1772896011652601600,4.2436015625,-0.160491943359375,0.53424072265625,-4.230377197265625
1772896011662569700,4.25356982421875,-0.4124298095703125,0.4864501953125,-3.14202880859375
1772896011672539000,4.263538818359375,-0.5341949462890625,0.431671142578125,-2.394866943359375
1772896011682506800,4.2735068359375,-0.5293426513671875,0.3188323974609375,-1.8473358154296875
1772896011692475000,4.283474853515625,-0.4320526123046875,0.2574310302734375,-1.3675689697265625
1772896011702443800,4.29344384765625,-0.2927398681640625,0.1803436279296875,-0.78411865234375
1772896011712411600,4.30341162109375,-0.1474761962890625,0.0787811279296875,-0.2302703857421875
1772896011722379800,4.3133798828125,0.02825927734375,-0.029815673828125,0.1111907958984375
1772896011732347600,4.32334765625,0.1378631591796875,-0.080413818359375,0.3572845458984375
1772896011742316800,4.33331689453125,0.23443603515625,-0.023223876953125,0.5975799560546875
1772896011752284700,4.34328466796875,0.3027191162109375,0.076385498046875,0.80133056640625
1772896011762252800,4.353252685546875,0.3063507080078125,0.2032928466796875,0.937286376953125
1772896011772221700,4.3632216796875,0.2599029541015625,0.3139801025390625,1.087432861328125
1772896011782189800,4.37318994140625,0.1876678466796875,0.3813934326171875,1.2194366455078125
1772896011792157700,4.38315771484375,0.0970916748046875,0.39447021484375,1.188873291015625
1772896011802126600,4.393126708984375,0.0258331298828125,0.341278076171875,0.9367523193359375
1772896011812094700,4.4030947265625,0.03302001953125,0.2593994140625,0.626495361328125
1772896011822062800,4.413062744140625,0.08087158203125,0.164520263671875,0.324462890625
1772896011832031700,4.42303173828125,0.1318817138671875,0.062225341796875,0.042877197265625
1772896011842000000,4.432999755859375,0.1556854248046875,-0.0467529296875,-0.2366180419921875
1772896011851967700,4.4429677734375,0.16082763671875,-0.1055908203125,-0.404052734375
1772896011861937000,4.45293701171875,0.1446380615234375,-0.1072235107421875,-0.442169189453125
1772896011871904800,4.46290478515625,0.1180572509765625,-0.0968170166015625,-0.4075469970703125
1772896011881872600,4.47287255859375,0.0654296875,-0.0837554931640625,-0.339935302734375
1772896011891841500,4.482841552734375,0.0035552978515625,-0.0742950439453125,-0.3070220947265625
1772896011901809700,4.4928095703125,-0.01849365234375,-0.073333740234375,-0.319580078125
1772896011911777800,4.50277783203125,-0.01226806640625,-0.0839691162109375,-0.356781005859375
1772896011921746700,4.51274658203125,0.0038909912109375,-0.0861053466796875,-0.371826171875
1772896011931714800,4.52271484375,0.01190185546875,-0.070037841796875,-0.3177337646484375
1772896011941682700,4.5326826171875,0.0038604736328125,-0.0363922119140625,-0.2015228271484375
1772896011951650600,4.542650634765625,-0.02886962890625,0.004302978515625,-0.10357666015625
1772896011961620000,4.552619873046875,-0.070220947265625,0.0326690673828125,-0.0308380126953125
1772896011971587600,4.562587646484375,-0.0961456298828125,0.0342864990234375,-0.021697998046875
1772896011981555700,4.5725556640625,-0.1005096435546875,0.0295562744140625,-0.0360565185546875
1772896011991524600,4.582524658203125,-0.0798797607421875,0.0244598388671875,-0.00750732421875
1772896012001492700,4.59249267578125,-0.0536346435546875,0.0103912353515625,0.002716064453125
1772896012011460900,4.6024609375,-0.03802490234375,-0.0164337158203125,-0.034149169921875
1772896012021429800,4.6124296875,-0.0089874267578125,-0.0437164306640625,-0.07318115234375
1772896012031398000,4.62239794921875,0.0399169921875,-0.0435638427734375,-0.042694091796875
1772896012041365500,4.632365478515625,0.09185791015625,-0.030120849609375,0.0169830322265625
1772896012051334700,4.642334716796875,0.1009521484375,-0.0175018310546875,0.0631103515625
1772896012061302800,4.652302734375,0.078643798828125,-0.0159912109375,0.092803955078125
1772896012071270700,4.662270751953125,0.0423431396484375,-0.0338287353515625,0.0720367431640625
1772896012081239800,4.67223974609375,0.031707763671875,-0.07611083984375,0.0092926025390625
1772896012091207700,4.682207763671875,0.030120849609375,-0.1061248779296875,-0.0444183349609375
1772896012101175800,4.69217578125,0.042572021484375,-0.1263427734375,-0.0536041259765625
1772896012111144700,4.702144775390625,0.0310211181640625,-0.1353759765625,-0.04364013671875
1772896012121112600,4.712112548828125,0.0186004638671875,-0.1379852294921875,-0.0211181640625
1772896012131080700,4.722080810546875,0.0079345703125,-0.1553192138671875,-0.009429931640625
1772896012141049600,4.732049560546875,0.009429931640625,-0.1637115478515625,-0.0025482177734375
1772896012151017700,4.742017822265625,0.0231781005859375,-0.1687164306640625,0.021331787109375
1772896012160985600,4.751985595703125,0.0622711181640625,-0.168304443359375,0.0602264404296875
1772896012170954800,4.761954833984375,0.0811614990234375,-0.1707611083984375,0.0863037109375
1772896012180922600,4.771922607421875,0.0721588134765625,-0.1756591796875,0.0525970458984375
1772896012190890800,4.781890869140625,0.0775146484375,-0.201995849609375,-0.0121612548828125
1772896012200858600,4.791858642578125,0.0882415771484375,-0.223175048828125,-0.147674560546875
1772896012210827500,4.80182763671875,0.08258056640625,-0.157562255859375,-0.5601654052734375
1772896012220795600,4.811795654296875,-0.0052032470703125,0.2003936767578125,-1.4486236572265625
1772896012230763800,4.821763671875,-0.2565155029296875,0.9094696044921875,-2.8068695068359375
1772896012240732700,4.831732666015625,-0.6005706787109375,1.204010009765625,-4.1247100830078125
1772896012250700800,4.84170068359375,-1.0171661376953125,0.394134521484375,-5.26397705078125
1772896012260668700,4.851668701171875,-1.501190185546875,-0.381591796875,-6.6395111083984375
1772896012270637800,4.861637939453125,-1.7916717529296875,-0.330413818359375,-7.9184112548828125
1772896012280605700,4.871605712890625,-1.46527099609375,-0.3297119140625,-7.9403839111328125
1772896012290573600,4.881573486328125,-0.960662841796875,-0.0088348388671875,-7.1262359619140625
1772896012300542700,4.891542724609375,-0.68414306640625,0.332122802734375,-5.968963623046875
1772896012310510600,4.901510498046875,-0.5103759765625,0.37921142578125,-4.9998626708984375
1772896012320478700,4.911478759765625,-0.34661865234375,0.25994873046875,-4.1640167236328125
1772896012330447600,4.921447509765625,-0.1857757568359375,0.134429931640625,-3.274383544921875
1772896012340415700,4.931415771484375,-0.0269012451171875,0.172607421875,-2.458648681640625
1772896012350383900,4.9413837890625,0.1611175537109375,0.236175537109375,-1.8437652587890625
1772896012360352800,4.951352783203125,0.269439697265625,0.234588623046875,-1.301666259765625
1772896012370321000,4.96132080078125,0.263671875,0.1892547607421875,-0.716827392578125
1772896012380288500,4.97128857421875,0.22723388671875,0.1045074462890625,-0.1735382080078125
1772896012390256600,4.981256591796875,0.21142578125,0.0609893798828125,0.267333984375
1772896012400225500,4.9912255859375,0.224151611328125,0.067962646484375,0.571807861328125
1772896012410193700,5.001193603515625,0.2780914306640625,0.125152587890625,0.776763916015625
1772896012420161800,5.011161865234375,0.3338470458984375,0.190032958984375,0.9557037353515625
1772896012430130700,5.021130615234375,0.330841064453125,0.2596435546875,1.0318145751953125
1772896012440098800,5.031098876953125,0.2933502197265625,0.3322906494140625,1.0722808837890625
1772896012450066700,5.041066650390625,0.2176361083984375,0.371978759765625,1.1038970947265625
1772896012460035800,5.051035888671875,0.1358184814453125,0.353912353515625,1.0244903564453125
1772896012470003700,5.061003662109375,0.0955657958984375,0.2679290771484375,0.781402587890625
1772896012479971600,5.0709716796875,0.1146240234375,0.156585693359375,0.461822509765625
1772896012489940700,5.080940673828125,0.1683807373046875,0.0353546142578125,0.140350341796875
1772896012499908600,5.09090869140625,0.2225189208984375,-0.09588623046875,-0.1757659912109375
1772896012509876700,5.100876708984375,0.2348785400390625,-0.190765380859375,-0.38360595703125
1772896012519845600,5.110845703125,0.2205657958984375,-0.1982269287109375,-0.389373779296875
1772896012529813800,5.120813720703125,0.1403656005859375,-0.1676788330078125,-0.29608154296875
1772896012539782000,5.130781982421875,0.014068603515625,-0.1374969482421875,-0.2360992431640625
1772896012549750800,5.140750732421875,-0.1035919189453125,-0.12115478515625,-0.2244415283203125
1772896012559718700,5.15071875,-0.1606903076171875,-0.1176300048828125,-0.252777099609375
1772896012569686500,5.1606865234375,-0.1318511962890625,-0.1371917724609375,-0.328155517578125
1772896012579655700,5.17065576171875,-0.0555267333984375,-0.1651611328125,-0.391265869140625
1772896012589623800,5.180623779296875,0.00714111328125,-0.1753692626953125,-0.3859710693359375
1772896012599591700,5.190591796875,0.0285797119140625,-0.17169189453125,-0.323516845703125
1772896012609560800,5.200560791015625,0.014984130859375,-0.1682281494140625,-0.24658203125
1772896012619528700,5.21052880859375,-0.0041961669921875,-0.1565399169921875,-0.191864013671875
1772896012629496800,5.220496826171875,-0.025421142578125,-0.128662109375,-0.1374664306640625
1772896012639464700,5.230464599609375,-0.041412353515625,-0.09912109375,-0.0784454345703125
1772896012649433600,5.24043359375,-0.0366363525390625,-0.087860107421875,-0.0333099365234375
1772896012659401700,5.250401611328125,-0.02325439453125,-0.0906219482421875,-0.052947998046875
1772896012669369600,5.26036962890625,-0.031463623046875,-0.119140625,-0.1103057861328125
1772896012679338800,5.2703388671875,-0.044342041015625,-0.1387481689453125,-0.137908935546875
1772896012689306600,5.280306640625,-0.037567138671875,-0.133087158203125,-0.1211700439453125
1772896012699274800,5.290274658203125,-0.0062408447265625,-0.111328125,-0.063385009765625
1772896012709243600,5.30024365234375,0.006744384765625,-0.0889129638671875,-0.018341064453125
1772896012719211500,5.31021142578125,0.0064849853515625,-0.069580078125,0.0070953369140625
1772896012729179600,5.3201796875,-0.00537109375,-0.05670166015625,0.0326995849609375
1772896012739148500,5.3301484375,0.0028533935546875,-0.0374298095703125,0.0633087158203125
1772896012749113900,5.34011376953125,0.0127410888671875,-0.0173797607421875,0.115509033203125
1772896012759081700,5.350081787109375,0.0153656005859375,-0.01776123046875,0.1497802734375
1772896012769050600,5.360050537109375,-0.00567626953125,-0.055816650390625,0.1129608154296875
1772896012779018800,5.370018798828125,-0.0144805908203125,-0.11065673828125,0.05450439453125
1772896012788986600,5.379986572265625,0.010986328125,-0.1542816162109375,0.023406982421875
1772896012798954800,5.389954833984375,0.06243896484375,-0.15484619140625,0.056121826171875
1772896012808923600,5.399923583984375,0.0980987548828125,-0.130828857421875,0.1354522705078125
1772896012818891800,5.409891845703125,0.12158203125,-0.1010894775390625,0.183502197265625
1772896012828860000,5.41985986328125,0.0993194580078125,-0.1295928955078125,0.1609954833984375
1772896012838828800,5.429828857421875,0.05523681640625,-0.17974853515625,-0.03973388671875
1772896012848796700,5.439796630859375,-0.0300750732421875,-0.2357330322265625,-0.3990936279296875
1772896012858764500,5.4497646484375,-0.1412506103515625,-0.1219940185546875,-1.0247650146484375
1772896012868733700,5.459733642578125,-0.4445648193359375,0.33587646484375,-2.2661285400390625
1772896012878701600,5.46970166015625,-0.8207855224609375,0.809814453125,-3.90496826171875
1772896012888669700,5.479669677734375,-1.150726318359375,0.5615386962890625,-5.1753387451171875
1772896012898638800,5.489638916015625,-1.3358001708984375,-0.05267333984375,-6.1179962158203125
1772896012908606700,5.499606689453125,-1.4491119384765625,-0.130218505859375,-7.19891357421875
1772896012918574800,5.509574951171875,-1.3469696044921875,0.190185546875,-7.8795928955078125
1772896012928543700,5.519543701171875,-0.871856689453125,0.33477783203125,-7.1690521240234375
1772896012938511600,5.52951171875,-0.6488494873046875,0.51177978515625,-6.0196990966796875
1772896012948479700,5.539479736328125,-0.886199951171875,0.558563232421875,-5.1103668212890625
1772896012958448600,5.54944873046875,-1.0098724365234375,0.4762420654296875,-4.28985595703125
1772896012968416800,5.559416748046875,-0.754241943359375,0.357208251953125,-3.372894287109375
1772896012978384600,5.569384521484375,-0.27178955078125,0.3160247802734375,-2.5751800537109375
1772896012988353800,5.579353759765625,0.20831298828125,0.337127685546875,-1.990966796875
1772896012998321700,5.58932177734375,0.4749603271484375,0.358642578125,-1.4066009521484375
1772896013008289800,5.599289794921875,0.4722747802734375,0.341888427734375,-0.8879852294921875
1772896013018258700,5.6092587890625,0.3251953125,0.22265625,-0.47491455078125
1772896013028226600,5.6192265625,0.1612548828125,0.1125335693359375,-0.1591796875
1772896013038194700,5.629194580078125,0.0516357421875,0.051055908203125,0.161895751953125
1772896013048163600,5.63916357421875,0.050262451171875,0.0745849609375,0.4034881591796875
1772896013058131700,5.649131591796875,0.1002197265625,0.1273651123046875,0.59429931640625
1772896013068099800,5.659099853515625,0.126068115234375,0.1743316650390625,0.6930084228515625
1772896013078067700,5.669067626953125,0.1667938232421875,0.2375030517578125,0.7631072998046875
1772896013088036900,5.679036865234375,0.186614990234375,0.283843994140625,0.8469696044921875
1772896013098004700,5.689004638671875,0.14581298828125,0.258697509765625,0.790924072265625
1772896013107972600,5.69897265625,0.075347900390625,0.1644439697265625,0.565155029296875
1772896013117941500,5.70894140625,0.0116119384765625,0.05126953125,0.249420166015625
1772896013127909600,5.71890966796875,-0.0194549560546875,-0.04791259765625,0.0157928466796875
1772896013137877800,5.728877685546875,-0.0340576171875,-0.121368408203125,-0.1531829833984375
1772896013147846700,5.7388466796875,-0.0235595703125,-0.167022705078125,-0.28399658203125
1772896013157814800,5.748814697265625,-0.039764404296875,-0.1955413818359375,-0.376251220703125
1772896013167784700,5.75878466796875,-0.00323486328125,-0.1788482666015625,-0.386810302734375
1772896013177753600,5.768753662109375,0.0440216064453125,-0.1265716552734375,-0.29742431640625
1772896013187721700,5.7787216796875,0.0438385009765625,-0.075958251953125,-0.1896820068359375
1772896013197689900,5.78868994140625,0.0267486572265625,-0.0389862060546875,-0.1127471923828125
1772896013207658800,5.79865869140625,-0.0060882568359375,-0.0191802978515625,-0.066070556640625
1772896013217627000,5.808626953125,-0.0357818603515625,0.00909423828125,-0.0428466796875
1772896013227594800,5.8185947265625,-0.045623779296875,0.0225372314453125,-0.0386962890625
1772896013237564000,5.82856396484375,-0.0367584228515625,0.0124359130859375,-0.0552825927734375
1772896013247531800,5.83853173828125,-0.02783203125,-0.0149383544921875,-0.104583740234375
1772896013257499600,5.848499755859375,-0.0137481689453125,-0.03826904296875,-0.1179046630859375
1772896013267468800,5.85846875,0.025665283203125,-0.04302978515625,-0.0984039306640625
1772896013277436700,5.868436767578125,0.059814453125,-0.029144287109375,-0.0454254150390625
1772896013287404800,5.87840478515625,0.093536376953125,-0.0062408447265625,0.027801513671875
1772896013297373700,5.888373779296875,0.1060943603515625,0.0112457275390625,0.0932159423828125
1772896013307341800,5.898341796875,0.1088714599609375,0.021453857421875,0.1439056396484375
1772896013317309700,5.908309814453125,0.102447509765625,0.0227813720703125,0.1414794921875
1772896013327278800,5.91827880859375,0.09820556640625,0.0091094970703125,0.1321563720703125
1772896013337246700,5.928246826171875,0.0846710205078125,-0.0310211181640625,0.084320068359375
1772896013347214600,5.938214599609375,0.05377197265625,-0.082489013671875,-0.0057220458984375
1772896013357183700,5.948183837890625,0.0402679443359375,-0.1105194091796875,-0.04827880859375
1772896013367151600,5.958151611328125,0.033660888671875,-0.12139892578125,-0.04656982421875
1772896013377119700,5.96811962890625,0.02587890625,-0.1147613525390625,-0.033599853515625
1772896013387089000,5.9780888671875,0.0245513916015625,-0.0968017578125,-0.0019989013671875
1772896013397056800,5.988056884765625,0.026092529296875,-0.09368896484375,0.0173187255859375
1772896013407024600,5.998024658203125,0.036163330078125,-0.1071624755859375,-0.005859375
1772896013416993500,6.00799365234375,0.0691070556640625,-0.122955322265625,-0.00946044921875
1772896013426961700,6.017961669921875,0.0835113525390625,-0.1612091064453125,-0.05670166015625
1772896013436929800,6.0279296875,0.0848846435546875,-0.186920166015625,-0.142913818359375
1772896013446898700,6.037898681640625,0.1179351806640625,-0.151397705078125,-0.0775299072265625
1772896013456866800,6.04786669921875,0.1437530517578125,-0.0851593017578125,0.1064910888671875
1772896013466834700,6.057834716796875,0.1529693603515625,-0.062164306640625,0.167694091796875
1772896013476803800,6.067803955078125,0.1720123291015625,-0.1068267822265625,0.0122528076171875
1772896013486771700,6.077771728515625,0.1650848388671875,-0.12896728515625,-0.225860595703125
1772896013496739600,6.087739501953125,0.0458526611328125,-0.1024932861328125,-0.695068359375
1772896013506708700,6.097708740234375,-0.22821044921875,0.1493988037109375,-1.7610321044921875
1772896013516676600,6.107676513671875,-0.5856170654296875,0.68072509765625,-3.453338623046875
1772896013526644700,6.117644775390625,-0.7657623291015625,0.7794342041015625,-5.25250244140625
1772896013536613600,6.127613525390625,-0.65966796875,0.29962158203125,-6.4523468017578125
1772896013546581800,6.137581787109375,-0.7198944091796875,0.195709228515625,-7.220184326171875
1772896013556550000,6.1475498046875,-0.909423828125,0.6004180908203125,-7.98638916015625
1772896013566517800,6.157517822265625,-0.8244476318359375,0.6832427978515625,-7.4439849853515625
1772896013576487000,6.16748681640625,-0.966827392578125,0.7839813232421875,-5.83624267578125
1772896013586454500,6.17745458984375,-1.439849853515625,0.89532470703125,-4.575408935546875
1772896013596422700,6.187422607421875,-1.492767333984375,0.793304443359375,-3.844146728515625
1772896013606391600,6.1973916015625,-0.9306640625,0.5828857421875,-3.1774139404296875
1772896013616359700,6.207359619140625,-0.1307830810546875,0.4512481689453125,-2.4463653564453125
1772896013626327800,6.217327880859375,0.44451904296875,0.3426055908203125,-1.8853759765625
1772896013636296700,6.227296630859375,0.73004150390625,0.1974945068359375,-1.549224853515625
1772896013646264800,6.237264892578125,0.6362762451171875,0.0925445556640625,-0.9430694580078125
1772896013656233000,6.24723291015625,0.2621307373046875,0.0178985595703125,-0.24853515625
1772896013666201900,6.257201904296875,0.0344696044921875,-0.0129852294921875,0.2498321533203125
1772896013676169700,6.267169677734375,-0.0458831787109375,0.0216827392578125,0.6128692626953125
1772896013686137600,6.2771376953125,-0.0378265380859375,0.0618896484375,0.7771148681640625
1772896013696106800,6.287106689453125,0.1148223876953125,0.07061767578125,0.773895263671875
1772896013706074600,6.29707470703125,0.2879791259765625,0.0631866455078125,0.7002716064453125
1772896013716042800,6.307042724609375,0.3548431396484375,0.0559844970703125,0.59686279296875
1772896013726011600,6.31701171875,0.3139190673828125,0.0480194091796875,0.5309600830078125
1772896013735979800,6.326979736328125,0.210235595703125,0.0233306884765625,0.412841796875
1772896013745948000,6.336947998046875,0.11541748046875,-0.0103607177734375,0.2216033935546875
1772896013755916800,6.346916748046875,0.0783843994140625,-0.057861328125,0.0142669677734375
1772896013765884700,6.356884765625,0.0699005126953125,-0.103271484375,-0.21624755859375
1772896013775852800,6.366852783203125,0.0357513427734375,-0.15960693359375,-0.3639373779296875
1772896013785821700,6.37682177734375,0.032257080078125,-0.1828765869140625,-0.4095001220703125
1772896013795789800,6.386789794921875,-0.045379638671875,-0.1629180908203125,-0.4085845947265625
1772896013805757700,6.3967578125,-0.07379150390625,-0.1104736328125,-0.343780517578125
1772896013815726800,6.406726806640625,-0.105377197265625,-0.059051513671875,-0.229736328125
1772896013825694700,6.41669482421875,-0.12109375,-0.0324859619140625,-0.173492431640625
1772896013835662800,6.426662841796875,-0.0788726806640625,-0.0246124267578125,-0.1601104736328125
1772896013845631700,6.4366318359375,-0.0497283935546875,-0.0174713134765625,-0.1408233642578125
1772896013855599600,6.446599609375,-0.0417022705078125,-0.0092926025390625,-0.0849456787109375
1772896013865567700,6.456567626953125,-0.016448974609375,0.0026092529296875,-0.0409393310546875
1772896013875536600,6.46653662109375,-0.0009613037109375,-0.0040435791015625,-0.0542755126953125
1772896013885504800,6.4765048828125,0.0101776123046875,-0.02197265625,-0.0912322998046875
1772896013895472600,6.48647265625,0.028289794921875,-0.0190582275390625,-0.101165771484375
1772896013905441800,6.49644189453125,0.058624267578125,-0.015045166015625,-0.0320587158203125
1772896013915410000,6.506409912109375,0.0593109130859375,-0.0023040771484375,0.0391998291015625
1772896013925377800,6.516377685546875,0.05517578125,0.0020904541015625,0.057281494140625
1772896013935347000,6.526346923828125,0.108734130859375,-0.0043487548828125,0.0517730712890625
1772896013945314600,6.536314453125,0.1440887451171875,-0.0171661376953125,0.0278778076171875
1772896013955282700,6.54628271484375,0.14410400390625,-0.0478363037109375,-0.0493621826171875
1772896013965251600,6.55625146484375,0.1272735595703125,-0.0691986083984375,-0.0976715087890625
1772896013975219700,6.5662197265625,0.098052978515625,-0.0670928955078125,-0.0064544677734375
1772896013985187800,6.576187744140625,0.0290374755859375,-0.0614013671875,0.0820465087890625
1772896013995155700,6.58615576171875,0.03057861328125,-0.0713653564453125,0.08258056640625
1772896014005124900,6.596124755859375,0.0970916748046875,-0.0796966552734375,0.07916259765625
1772896014015092700,6.6060927734375,0.10003662109375,-0.09051513671875,0.0776519775390625
1772896014025060600,6.616060546875,0.1597747802734375,-0.1174468994140625,0.01806640625
1772896014035029800,6.62602978515625,0.182830810546875,-0.134552001953125,-0.0047607421875
1772896014044997600,6.63599755859375,0.17626953125,-0.143218994140625,0.0081787109375
1772896014054965800,6.6459658203125,0.1469268798828125,-0.1560211181640625,0.0942535400390625
1772896014064934700,6.6559345703125,0.130828857421875,-0.150238037109375,0.1344146728515625
1772896014074902800,6.66590283203125,0.1408233642578125,-0.1504364013671875,0.168182373046875
1772896014084871200,6.67587109375,0.1861572265625,-0.14080810546875,0.2271270751953125
1772896014094840300,6.68584033203125,0.2313690185546875,-0.1685638427734375,0.1927642822265625
1772896014104808200,6.69580810546875,0.2577667236328125,-0.202972412109375,0.07147216796875
1772896014114776000,6.705776123046875,0.2628326416015625,-0.2586517333984375,-0.1218719482421875
1772896014124745200,6.7157451171875,0.1807861328125,-0.273651123046875,-0.56451416015625
1772896014134713000,6.725713134765625,-0.002532958984375,-0.03778076171875,-1.302764892578125
1772896014144681200,6.73568115234375,-0.326873779296875,0.5587921142578125,-2.6609954833984375
1772896014154650000,6.745650146484375,-0.6574554443359375,0.9168243408203125,-4.5206756591796875
1772896014164618200,6.7556181640625,-0.665863037109375,0.47357177734375,-6.0644683837890625
1772896014174586400,6.76558642578125,-0.653106689453125,0.117950439453125,-6.9579010009765625
1772896014184555300,6.77555517578125,-0.891357421875,0.22869873046875,-7.619598388671875
1772896014194523100,6.785523193359375,-1.0103607177734375,0.51104736328125,-7.8335113525390625
1772896014204491300,6.7954912109375,-0.9975128173828125,0.4827423095703125,-7.09375
1772896014214460200,6.805460205078125,-1.23297119140625,0.5104827880859375,-5.9024810791015625
1772896014224428300,6.81542822265625,-1.3744354248046875,0.6103057861328125,-4.5997772216796875
1772896014234396200,6.825396240234375,-1.094207763671875,0.6829833984375,-3.36822509765625
1772896014244365300,6.835365234375,-0.4832916259765625,0.6425628662109375,-2.439727783203125
1772896014254333200,6.845333251953125,0.219940185546875,0.5528564453125,-1.791595458984375
1772896014264301300,6.85530126953125,0.6534271240234375,0.4692230224609375,-1.2651824951171875
1772896014274270200,6.865270263671875,0.6763153076171875,0.3951263427734375,-0.7892303466796875
1772896014284238000,6.875238037109375,0.5355682373046875,0.2875823974609375,-0.3241729736328125
1772896014294206200,6.885206298828125,0.3555908203125,0.1812286376953125,0.04364013671875
1772896014304175000,6.895175048828125,0.174346923828125,0.16033935546875,0.3507080078125
1772896014314143200,6.905143310546875,0.064300537109375,0.148712158203125,0.58123779296875
1772896014324111000,6.915111083984375,-0.0023651123046875,0.127593994140625,0.6187896728515625
1772896014334080300,6.925080322265625,-0.035125732421875,0.096710205078125,0.5449066162109375
1772896014344048400,6.93504833984375,-0.0203399658203125,0.0936737060546875,0.4873504638671875
1772896014354016300,6.945016357421875,0.0054473876953125,0.1221160888671875,0.43609619140625
1772896014363985400,6.9549853515625,-0.01434326171875,0.1484832763671875,0.3214111328125
1772896014373953000,6.964953125,-0.042877197265625,0.1187744140625,0.1943206787109375
1772896014383921200,6.974921142578125,-0.0307464599609375,0.0803985595703125,0.0095977783203125
1772896014393890000,6.98489013671875,-0.0388031005859375,0.0158538818359375,-0.1805419921875
1772896014403858200,6.994858154296875,-0.046966552734375,-0.01409912109375,-0.2756195068359375
1772896014413826300,7.004826416015625,-0.065887451171875,-0.0232391357421875,-0.26361083984375
1772896014423794200,7.014794189453125,-0.0904693603515625,-0.037353515625,-0.2528228759765625
1772896014433763300,7.024763427734375,-0.092498779296875,-0.0389556884765625,-0.2206878662109375
1772896014443731200,7.034731201171875,-0.0849151611328125,-0.0266876220703125,-0.1761016845703125
1772896014453699000,7.044698974609375,-0.0830841064453125,0.0117034912109375,-0.0999908447265625
1772896014463668200,7.054668212890625,-0.080078125,0.018890380859375,-0.0615997314453125
1772896014473636000,7.064635986328125,-0.0046234130859375,-0.0019073486328125,-0.111328125
1772896014483604200,7.074604248046875,0.0778961181640625,-0.0144500732421875,-0.1015777587890625
1772896014493573000,7.084572998046875,0.07208251953125,-0.0108642578125,-0.06414794921875
1772896014503541200,7.094541259765625,0.0069580078125,-0.057861328125,-0.111541748046875
1772896014513509400,7.10450927734375,-0.0139617919921875,-0.0688323974609375,-0.1321868896484375
1772896014523478300,7.114478271484375,-0.0010986328125,-0.045379638671875,-0.04168701171875
1772896014533446400,7.1244462890625,-0.0122528076171875,-0.0192413330078125,0.041107177734375
1772896014543414000,7.1344140625,-0.022216796875,0.001556396484375,0.0845184326171875
1772896014553383200,7.144383056640625,-0.0193328857421875,-0.014373779296875,0.0933685302734375
1772896014563351000,7.15435107421875,-0.000579833984375,-0.0338287353515625,0.083221435546875
1772896014573319200,7.164319091796875,0.0451507568359375,-0.062835693359375,0.0583953857421875
1772896014583288300,7.174288330078125,0.072265625,-0.098175048828125,0.0029754638671875
1772896014593256200,7.184256103515625,0.053558349609375,-0.1343231201171875,-0.057464599609375
1772896014603224300,7.194224365234375,0.0458221435546875,-0.1641693115234375,-0.083160400390625
1772896014613193200,7.204193115234375,0.0711517333984375,-0.1847076416015625,-0.073944091796875
1772896014623161000,7.2141611328125,0.0881500244140625,-0.2021942138671875,-0.0810394287109375
1772896014633129200,7.224129150390625,0.0885772705078125,-0.2129364013671875,-0.088409423828125
1772896014643098000,7.23409814453125,0.0885162353515625,-0.2292938232421875,-0.0594329833984375
1772896014653066200,7.244066162109375,0.1058197021484375,-0.24188232421875,-0.0268707275390625
1772896014663034000,7.2540341796875,0.12890625,-0.26141357421875,-0.016845703125
1772896014673003300,7.264003173828125,0.1233367919921875,-0.2775115966796875,-0.0654144287109375
1772896014682971100,7.27397119140625,0.12725830078125,-0.293487548828125,-0.0624237060546875
1772896014692939300,7.283939208984375,0.132110595703125,-0.3149871826171875,-0.0327606201171875
1772896014702908200,7.293908203125,0.183624267578125,-0.316253662109375,-0.0102081298828125
1772896014712876000,7.3038759765625,0.2573089599609375,-0.317840576171875,0.0086822509765625
1772896014722844200,7.31384423828125,0.315093994140625,-0.32366943359375,0.00543212890625
1772896014732813000,7.32381298828125,0.3709869384765625,-0.309539794921875,-0.0023345947265625
1772896014742781200,7.33378125,0.459991455078125,-0.28216552734375,0.0472412109375
1772896014752749300,7.343749267578125,0.55181884765625,-0.246673583984375,0.0447998046875
1772896014762718200,7.35371826171875,0.535064697265625,-0.1240997314453125,-0.1957550048828125
1772896014772686300,7.363686279296875,0.303466796875,0.351470947265625,-0.967987060546875
1772896014782654200,7.373654296875,-0.24798583984375,1.2599029541015625,-2.5268096923828125
1772896014792623400,7.383623291015625,-0.8637542724609375,1.9493408203125,-4.546173095703125
1772896014802591000,7.393591064453125,-1.3525543212890625,1.1368408203125,-6.3855133056640625
1772896014812559000,7.40355908203125,-1.5994873046875,0.3394317626953125,-7.863128662109375
1772896014822528000,7.413528076171875,-1.4610595703125,0.2229156494140625,-8.020050048828125
1772896014832496000,7.42349609375,-0.9845733642578125,0.0799407958984375,-7.98309326171875
1772896014842464300,7.43346435546875,-0.7817840576171875,0.3471527099609375,-7.44354248046875
1772896014852433200,7.44343310546875,-0.63153076171875,0.802734375,-5.9001312255859375
1772896014862401300,7.4534013671875,-0.5154876708984375,1.045562744140625,-4.30963134765625
1772896014872369400,7.463369384765625,-0.370849609375,1.21868896484375,-2.812164306640625
1772896014882338300,7.47333837890625,-0.1734466552734375,1.128631591796875,-1.7124176025390625
1772896014892306200,7.48330615234375,0.1863861083984375,0.9115142822265625,-1.1583404541015625
1772896014902274000,7.493274169921875,0.532989501953125,0.607391357421875,-0.904296875
1772896014912242200,7.5032421875,0.70452880859375,0.299560546875,-0.7120819091796875
1772896014922211000,7.513211181640625,0.6485595703125,0.0539398193359375,-0.4331817626953125
1772896014932179200,7.52317919921875,0.483367919921875,-0.0646820068359375,-0.0259857177734375
1772896014942147300,7.533147216796875,0.2886810302734375,-0.0947265625,0.372772216796875
1772896014952116200,7.5431162109375,0.1605377197265625,-0.03485107421875,0.609954833984375
1772896014962084400,7.55308447265625,0.093719482421875,0.0772247314453125,0.7136383056640625
1772896014972052200,7.56305224609375,0.047271728515625,0.18377685546875,0.7525787353515625
1772896014982021000,7.573021240234375,0.0772857666015625,0.263763427734375,0.76678466796875
1772896014991989200,7.5829892578125,0.0912017822265625,0.2329864501953125,0.6755218505859375
1772896015001957000,7.59295703125,0.106353759765625,0.133636474609375,0.4188079833984375
1772896015011926300,7.60292626953125,0.153076171875,0.0025177001953125,0.070281982421875
1772896015021894100,7.61289404296875,0.185272216796875,-0.1356964111328125,-0.2133331298828125
1772896015031862300,7.6228623046875,0.1882781982421875,-0.2187347412109375,-0.3759918212890625
1772896015041831200,7.6328310546875,0.143280029296875,-0.2406158447265625,-0.38775634765625
1772896015051799300,7.64279931640625,0.060791015625,-0.2062530517578125,-0.3548583984375
1772896015061767200,7.65276708984375,-0.005401611328125,-0.151641845703125,-0.28192138671875
1772896015071736000,7.662736083984375,-0.0815887451171875,-0.123443603515625,-0.225738525390625
1772896015081704200,7.6727041015625,-0.12664794921875,-0.099151611328125,-0.184295654296875
1772896015091671800,7.682671875,-0.1612396240234375,-0.1076812744140625,-0.1468963623046875
1772896015101640700,7.692640625,-0.1861419677734375,-0.1168670654296875,-0.1391754150390625
1772896015111608800,7.70260888671875,-0.184539794921875,-0.13897705078125,-0.1376800537109375
1772896015121576700,7.71257666015625,-0.15264892578125,-0.15557861328125,-0.185028076171875
1772896015131545900,7.7225458984375,-0.0799407958984375,-0.1543426513671875,-0.2025299072265625
1772896015141513700,7.732513671875,-0.0531158447265625,-0.15509033203125,-0.1761322021484375
1772896015151481900,7.74248193359375,-0.0541534423828125,-0.13116455078125,-0.125
1772896015161450800,7.75245068359375,-0.057464599609375,-0.11328125,-0.0545806884765625
1772896015171419000,7.7624189453125,-0.06524658203125,-0.091217041015625,-0.000152587890625
1772896015181386800,7.77238671875,-0.08221435546875,-0.0897216796875,0.0439910888671875
1772896015191355600,7.782355712890625,-0.0999603271484375,-0.08099365234375,0.0509033203125
1772896015201323800,7.79232373046875,-0.102447509765625,-0.0788116455078125,0.0222625732421875
1772896015211292000,7.8022919921875,-0.0774688720703125,-0.069183349609375,-0.0340423583984375
1772896015221260800,7.8122607421875,-0.03326416015625,-0.06304931640625,-0.0398406982421875
1772896015231229000,7.82222900390625,0.0104522705078125,-0.0372467041015625,0.014251708984375
1772896015241196800,7.83219677734375,0.0118408203125,-0.02227783203125,0.0687255859375
1772896015251166000,7.842166015625,-0.011138916015625,-0.027618408203125,0.1032562255859375
1772896015261133800,7.8521337890625,-0.01544189453125,-0.056732177734375,0.10858154296875
1772896015271101700,7.862101806640625,0.0183258056640625,-0.075592041015625,0.07940673828125
1772896015281070600,7.872070556640625,0.0563812255859375,-0.0954437255859375,0.050506591796875
1772896015291038700,7.882038818359375,0.081939697265625,-0.1168365478515625,0.023162841796875
1772896015301006800,7.8920068359375,0.0915069580078125,-0.1414794921875,0.0044708251953125
1772896015310975700,7.901975830078125,0.103790283203125,-0.1537322998046875,-0.010009765625
1772896015320943900,7.91194384765625,0.1116485595703125,-0.1619720458984375,0.0065460205078125
1772896015330912000,7.921912109375,0.1074371337890625,-0.162109375,0.047119140625
1772896015340881000,7.931880859375,0.087249755859375,-0.1620635986328125,0.0872039794921875
1772896015350849000,7.94184912109375,0.07952880859375,-0.1735076904296875,0.069000244140625
1772896015360816600,7.951816650390625,0.0867156982421875,-0.1763916015625,0.033050537109375
1772896015370785800,7.961785888671875,0.1059112548828125,-0.2056427001953125,-0.0014495849609375
1772896015380753700,7.971753662109375,0.152587890625,-0.2394256591796875,-0.0798492431640625
1772896015390721800,7.9817216796875,0.1424713134765625,-0.2568817138671875,-0.2401580810546875
1772896015400690700,7.991690673828125,0.0848388671875,-0.2406768798828125,-0.494781494140625
1772896015410658800,8.001658935546875,0.07244873046875,-0.11517333984375,-0.948486328125
1772896015420627000,8.011626953125,-0.0620574951171875,0.3069610595703125,-2.0005035400390625
1772896015430595800,8.021595947265626,-0.43743896484375,0.822265625,-3.6534423828125
1772896015440564000,8.03156396484375,-0.757537841796875,0.8546600341796875,-5.050079345703125
1772896015450531800,8.04153173828125,-0.8875885009765625,0.473541259765625,-5.98883056640625
1772896015460500700,8.051500732421875,-1.0084686279296875,0.3815765380859375,-6.9434356689453125
1772896015470468900,8.06146875,-0.812469482421875,0.579254150390625,-7.7467498779296875
1772896015480436700,8.071436767578126,-0.5102081298828125,0.44976806640625,-7.5942535400390625
1772896015490406000,8.081406005859375,-0.6251373291015625,0.504302978515625,-6.6915740966796875
1772896015500373800,8.091373779296875,-0.8648834228515625,0.6605987548828125,-5.2947235107421875
1772896015510342000,8.101341796875,-0.8301849365234375,0.719696044921875,-3.98095703125
1772896015520310800,8.111310791015624,-0.4897308349609375,0.6573638916015625,-3.0785064697265625
1772896015530279000,8.12127880859375,0.0335845947265625,0.537811279296875,-2.4147186279296875
1772896015540246800,8.131246826171875,0.493865966796875,0.4451446533203125,-1.8180694580078125
1772896015550215700,8.141215576171875,0.7251129150390625,0.3381195068359375,-1.2822113037109375
1772896015560183800,8.151183837890626,0.695953369140625,0.24432373046875,-0.8274993896484375
1772896015570151700,8.161151611328124,0.4509735107421875,0.1698150634765625,-0.2902984619140625
1772896015580120800,8.171120849609375,0.078948974609375,0.126068115234375,0.25115966796875
1772896015590089000,8.1810888671875,-0.170806884765625,0.139190673828125,0.6069183349609375
1772896015600056800,8.191056884765626,-0.2784271240234375,0.1604156494140625,0.81109619140625
1772896015610026000,8.20102587890625,-0.2310333251953125,0.1652679443359375,0.8563690185546875
1772896015619993900,8.210993896484375,-0.084625244140625,0.181640625,0.8347625732421875
1772896015629961700,8.220961669921875,0.0388031005859375,0.19390869140625,0.787384033203125
1772896015639930600,8.2309306640625,0.118743896484375,0.1856231689453125,0.654266357421875
1772896015649898800,8.240898681640624,0.1164398193359375,0.1528472900390625,0.4326171875
1772896015659867000,8.250866943359375,0.08599853515625,0.09161376953125,0.1761932373046875
1772896015669835800,8.260835693359375,0.0611724853515625,0.040130615234375,-0.0254669189453125
1772896015679804000,8.270803955078126,0.02288818359375,-0.00482177734375,-0.1431884765625
1772896015689771800,8.280771728515624,-0.008880615234375,-0.0424041748046875,-0.2416229248046875
1772896015699741000,8.290740966796875,0.0098114013671875,-0.06890869140625,-0.324981689453125
1772896015709709000,8.300708984375,0.0491180419921875,-0.0775146484375,-0.3235931396484375
1772896015719676700,8.3106767578125,0.087860107421875,-0.0608978271484375,-0.28948974609375
1772896015729644800,8.320644775390624,0.1260986328125,-0.0503387451171875,-0.2518768310546875
1772896015739613700,8.33061376953125,0.12890625,-0.0381622314453125,-0.223876953125
1772896015749581800,8.340581787109375,0.1427764892578125,-0.0432891845703125,-0.16802978515625
1772896015759550000,8.350550048828126,0.1223297119140625,-0.0380096435546875,-0.10626220703125
1772896015769518800,8.360518798828124,0.057525634765625,-0.0518646240234375,-0.08489990234375
1772896015779487000,8.370487060546875,0.0093994140625,-0.05450439453125,-0.0645294189453125
1772896015789454800,8.380454833984375,-0.0214996337890625,-0.055877685546875,-0.0465850830078125
1772896015799424000,8.390424072265626,-0.0276031494140625,-0.0646820068359375,-0.027008056640625
1772896015809391600,8.4003916015625,-0.0147552490234375,-0.07305908203125,-0.0193939208984375
1772896015819359700,8.41035986328125,0.0137786865234375,-0.0853424072265625,-0.0068511962890625
1772896015829329000,8.420328857421875,0.043609619140625,-0.1004638671875,-0.002685546875
1772896015839296800,8.430296875,0.059661865234375,-0.1050567626953125,-0.0098876953125
1772896015849265000,8.440264892578124,0.06439208984375,-0.1097259521484375,-0.0107879638671875
1772896015859233800,8.45023388671875,0.0621337890625,-0.1038818359375,-0.009552001953125
1772896015869202000,8.460201904296875,0.0731201171875,-0.0927276611328125,0.0118255615234375
1772896015879169800,8.470169677734376,0.0811920166015625,-0.092620849609375,-0.0078277587890625
1772896015889139000,8.480138916015624,0.1094970703125,-0.12030029296875,-0.0798797607421875
1772896015899106800,8.49010693359375,0.13958740234375,-0.14691162109375,-0.1074371337890625
1772896015909074700,8.50007470703125,0.15020751953125,-0.1610565185546875,-0.0810089111328125
1772896015919043800,8.5100439453125,0.1885833740234375,-0.1662139892578125,-0.048309326171875
1772896015929011700,8.52001171875,0.2080230712890625,-0.1768341064453125,-0.032318115234375
1772896015938979800,8.529979736328125,0.184356689453125,-0.194915771484375,-0.0324859619140625
1772896015948948700,8.53994873046875,0.1337127685546875,-0.2079010009765625,-0.016448974609375
1772896015958916900,8.549916748046876,0.0836029052734375,-0.2192230224609375,0.0336761474609375
1772896015968884700,8.559884765625,0.0391998291015625,-0.2387237548828125,0.0974884033203125
1772896015978853600,8.569853515625,0.0159759521484375,-0.261199951171875,0.141937255859375
1772896015988821800,8.57982177734375,0.0299835205078125,-0.29510498046875,0.0980377197265625
1772896015998790000,8.589789794921876,0.06787109375,-0.3029022216796875,0.0373382568359375
1772896016008758800,8.5997587890625,0.10882568359375,-0.2914886474609375,0.06109619140625
1772896016018727000,8.609726806640625,0.1311187744140625,-0.293670654296875,0.073638916015625
1772896016028694800,8.61969482421875,0.1122894287109375,-0.3103485107421875,-0.0690155029296875
1772896016038664000,8.629663818359376,-0.02496337890625,-0.3188323974609375,-0.409698486328125
1772896016048631800,8.6396318359375,-0.234161376953125,-0.099853515625,-1.2895355224609375
1772896016058599700,8.649599609375,-0.583404541015625,0.5319671630859375,-2.92242431640625
1772896016068568800,8.65956884765625,-0.9130401611328125,0.97479248046875,-4.7659454345703125
1772896016078536700,8.66953662109375,-0.92987060546875,0.7359161376953125,-5.92047119140625
1772896016088505300,8.67950537109375,-0.8465423583984375,0.442596435546875,-6.2704925537109375
1772896016098474200,8.68947412109375,-0.6618194580078125,0.67266845703125,-6.8957366943359375
1772896016108442400,8.6994423828125,-0.103057861328125,0.46270751953125,-7.3738555908203125
1772896016118410200,8.70941015625,0.1806793212890625,0.2319793701171875,-7.17486572265625
1772896016128379400,8.71937939453125,-0.0641021728515625,0.364776611328125,-6.0364837646484375
1772896016138347300,8.72934716796875,-0.3673858642578125,0.507110595703125,-4.6567230224609375
1772896016148315100,8.739315185546875,-0.4333038330078125,0.4765472412109375,-3.6236572265625
1772896016158284300,8.7492841796875,-0.1715087890625,0.3316497802734375,-2.8075103759765625
1772896016168252200,8.759252197265624,0.227691650390625,0.263641357421875,-2.072479248046875
1772896016178220300,8.76922021484375,0.5392608642578125,0.2511749267578125,-1.4540252685546875
1772896016188189200,8.779189208984375,0.6409454345703125,0.16082763671875,-0.94854736328125
1772896016198157300,8.7891572265625,0.4944000244140625,0.0455780029296875,-0.5157318115234375
1772896016208125400,8.79912548828125,0.2098388671875,-0.039825439453125,-0.1135406494140625
1772896016218094300,8.80909423828125,-0.0029449462890625,-0.0770111083984375,0.297149658203125
1772896016228062200,8.819062255859375,-0.1556854248046875,-0.070037841796875,0.58453369140625
1772896016238030000,8.829030029296876,-0.15484619140625,-0.009552001953125,0.716217041015625
1772896016247999200,8.838999267578124,-0.0498809814453125,0.0563201904296875,0.77630615234375
1772896016257967400,8.84896728515625,0.070953369140625,0.1051025390625,0.743804931640625
1772896016267935200,8.858935302734375,0.1583099365234375,0.109588623046875,0.67474365234375
1772896016277904400,8.868904296875,0.215545654296875,0.0843963623046875,0.5216217041015625
1772896016287872300,8.878872314453124,0.244720458984375,0.0380859375,0.3156585693359375
1772896016297840000,8.888840087890625,0.27996826171875,-0.018768310546875,0.0890045166015625
1772896016307809300,8.898809326171875,0.3305206298828125,-0.087982177734375,-0.1263885498046875
1772896016317777200,8.908777099609376,0.3323822021484375,-0.161041259765625,-0.30743408203125
1772896016327745300,8.918745361328124,0.26654052734375,-0.2115325927734375,-0.420562744140625
1772896016337714200,8.928714111328125,0.15863037109375,-0.2177581787109375,-0.4314422607421875
1772896016347682300,8.938682373046875,0.0450592041015625,-0.2038421630859375,-0.3622589111328125
1772896016357650200,8.948650146484376,-0.0657958984375,-0.1859588623046875,-0.2855224609375
1772896016367619300,8.958619384765624,-0.168426513671875,-0.1879425048828125,-0.2382965087890625
1772896016377587200,8.968587158203125,-0.2203216552734375,-0.18701171875,-0.1987457275390625
1772896016387555000,8.97855517578125,-0.2379913330078125,-0.17340087890625,-0.1330108642578125
1772896016397524200,8.988524169921876,-0.22607421875,-0.1668243408203125,-0.0679931640625
1772896016407492000,8.9984921875,-0.19647216796875,-0.1683197021484375,-0.05181884765625
1772896016417460200,9.008460205078125,-0.1707000732421875,-0.1797332763671875,-0.0567169189453125
1772896016427429000,9.01842919921875,-0.1494140625,-0.175262451171875,-0.036529541015625
1772896016437397200,9.028397216796876,-0.108245849609375,-0.1667327880859375,-0.000732421875
1772896016447365400,9.038365478515624,-0.07977294921875,-0.1536407470703125,0.0174102783203125
1772896016457334300,9.048334228515625,-0.0426025390625,-0.1340789794921875,0.0381622314453125
1772896016467302400,9.058302490234375,-0.0048065185546875,-0.1120147705078125,0.060333251953125
1772896016477270000,9.06827001953125,0.044677734375,-0.076629638671875,0.1107330322265625
1772896016487239200,9.0782392578125,0.097076416015625,-0.0543975830078125,0.1672515869140625
1772896016497207000,9.08820703125,0.1237030029296875,-0.0516204833984375,0.1793365478515625
1772896016507175200,9.098175048828125,0.1426239013671875,-0.0778961181640625,0.142181396484375
1772896016517144300,9.108144287109376,0.1571044921875,-0.110992431640625,0.0937347412109375
1772896016527112200,9.1181123046875,0.1771392822265625,-0.134002685546875,0.0694122314453125
1772896016537080300,9.128080322265625,0.1748809814453125,-0.14959716796875,0.060028076171875
1772896016547049200,9.13804931640625,0.172576904296875,-0.1728515625,0.0319671630859375
1772896016557017300,9.148017333984376,0.161895751953125,-0.19305419921875,-0.017059326171875
1772896016566985200,9.157985107421876,0.1366424560546875,-0.2163848876953125,-0.0512542724609375
1772896016576954000,9.1679541015625,0.1151580810546875,-0.22198486328125,-0.0385894775390625
1772896016586922200,9.177922119140625,0.1014862060546875,-0.233551025390625,0.01239013671875
1772896016596890000,9.18789013671875,0.068115234375,-0.2459564208984375,0.035064697265625
1772896016606859300,9.197859375,0.0519256591796875,-0.264129638671875,0.01995849609375
1772896016616827100,9.2078271484375,0.05084228515625,-0.2887115478515625,-0.0199737548828125
1772896016626795300,9.217795166015625,0.1021881103515625,-0.29937744140625,-0.0446319580078125
1772896016636764200,9.22776416015625,0.188812255859375,-0.283294677734375,-0.04217529296875
1772896016646732300,9.237732177734374,0.23028564453125,-0.259368896484375,-0.0200347900390625
1772896016656700200,9.2477001953125,0.208221435546875,-0.2158203125,0.0063934326171875
1772896016666669000,9.2576689453125,0.1789703369140625,-0.203125,-0.0440673828125
1772896016676637200,9.26763720703125,0.1810760498046875,-0.126983642578125,-0.23529052734375
1772896016686605300,9.277605224609376,-0.0786590576171875,0.2223663330078125,-0.9761199951171875
1772896016696574200,9.28757421875,-0.7308807373046875,1.0099334716796875,-2.6564483642578125
1772896016706542300,9.297542236328125,-1.304656982421875,1.570831298828125,-4.55780029296875
1772896016716510200,9.30751025390625,-1.5747528076171875,0.928253173828125,-5.6346435546875
1772896016726479400,9.317479248046874,-1.5845489501953125,0.2259674072265625,-6.5902557373046875
1772896016736447200,9.327447265625,-1.2408599853515625,0.1928863525390625,-7.841644287109375
1772896016746416400,9.33741650390625,-0.59417724609375,-0.062530517578125,-8.028182983398438
1772896016756382200,9.34738232421875,-0.32275390625,-0.224945068359375,-7.978515625
1772896016766350300,9.357350341796876,-0.5984039306640625,0.1960906982421875,-7.2643585205078125
1772896016776318200,9.367318115234376,-0.7271575927734375,0.6074066162109375,-5.4026336669921875
1772896016786287400,9.377287353515625,-0.6503143310546875,0.81011962890625,-3.621185302734375
1772896016796255200,9.387255126953125,-0.571563720703125,0.877777099609375,-2.397857666015625
1772896016806223000,9.39722314453125,-0.485443115234375,0.8873291015625,-1.6328277587890625
1772896016816192300,9.407192138671874,-0.3753204345703125,0.86749267578125,-1.0400390625
1772896016826160000,9.41716015625,-0.1810455322265625,0.7743377685546875,-0.50634765625
1772896016836128300,9.427128173828125,-0.0633392333984375,0.5946197509765625,-0.0424957275390625
1772896016846097200,9.43709716796875,-0.08343505859375,0.4133148193359375,0.2997589111328125
1772896016856065300,9.447065185546874,-0.16925048828125,0.3432464599609375,0.5096435546875
1772896016866033400,9.457033447265625,-0.2235870361328125,0.3050537109375,0.6517181396484375
1772896016876002300,9.467002197265625,-0.207855224609375,0.274688720703125,0.7615203857421875
1772896016885970400,9.476970458984376,-0.11627197265625,0.27178955078125,0.844512939453125
1772896016895938000,9.48693798828125,-0.0231170654296875,0.2415771484375,0.8282928466796875
1772896016905907200,9.4969072265625,0.054351806640625,0.208404541015625,0.6966705322265625
1772896016915875000,9.506875,0.14068603515625,0.173248291015625,0.5396728515625
1772896016925843200,9.51684326171875,0.16815185546875,0.121429443359375,0.410186767578125
1772896016935812400,9.526812255859374,0.20709228515625,0.068939208984375,0.2611236572265625
1772896016945780200,9.5367802734375,0.203857421875,-0.004913330078125,0.0204010009765625
1772896016955748400,9.546748291015625,0.1718902587890625,-0.0937957763671875,-0.218719482421875
1772896016965717200,9.55671728515625,0.1643218994140625,-0.12921142578125,-0.32196044921875
1772896016975685000,9.56668505859375,0.1495208740234375,-0.1305084228515625,-0.292938232421875
1772896016985654300,9.576654296875,0.1115264892578125,-0.1075286865234375,-0.242828369140625
1772896016995622100,9.5866220703125,0.0476226806640625,-0.0915985107421875,-0.1909942626953125
1772896017005590300,9.59659033203125,-0.0459747314453125,-0.0888824462890625,-0.169647216796875
1772896017015559200,9.60655908203125,-0.1286163330078125,-0.0991973876953125,-0.1472320556640625
1772896017025527300,9.61652734375,-0.1674957275390625,-0.115478515625,-0.0992279052734375
1772896017035495200,9.6264951171875,-0.189117431640625,-0.1322784423828125,-0.048126220703125
1772896017045464300,9.63646435546875,-0.2113800048828125,-0.1547393798828125,-0.03887939453125
1772896017055432200,9.64643212890625,-0.2184906005859375,-0.17901611328125,-0.0513916015625
1772896017065400000,9.656400146484375,-0.197784423828125,-0.1928558349609375,-0.0505523681640625
1772896017075369200,9.666369140625,-0.140625,-0.1952056884765625,-0.027252197265625
1772896017085337000,9.676337158203125,-0.0698089599609375,-0.1827545166015625,-0.01702880859375
1772896017095304700,9.6863046875,-0.005157470703125,-0.158905029296875,-0.001739501953125
1772896017105273600,9.696273681640625,0.03070068359375,-0.1429595947265625,0.0332794189453125
1772896017115241700,9.70624169921875,0.0544891357421875,-0.1404266357421875,0.0544891357421875
1772896017125209900,9.7162099609375,0.0604095458984375,-0.13995361328125,0.0359344482421875
1772896017135178800,9.7261787109375,0.0751953125,-0.13714599609375,-0.006927490234375
1772896017145147000,9.73614697265625,0.0483551025390625,-0.1593170166015625,-0.0605621337890625
1772896017155114800,9.74611474609375,0.04852294921875,-0.1577911376953125,-0.0959930419921875
1772896017165083600,9.756083740234375,0.0380401611328125,-0.14471435546875,-0.07452392578125
1772896017175053800,9.7660537109375,0.010223388671875,-0.1263275146484375,-0.029022216796875
1772896017185021700,9.776021728515625,0.0067901611328125,-0.0952606201171875,0.0025787353515625
1772896017194990600,9.785990478515625,-0.0341644287109375,-0.0834503173828125,0.0171356201171875
1772896017204958700,9.795958740234376,-0.050567626953125,-0.0965728759765625,0.0434722900390625
1772896017214926600,9.805926513671874,-0.0241851806640625,-0.1035614013671875,0.0486602783203125
1772896017224895700,9.815895751953125,-0.0067291259765625,-0.141143798828125,0.0414276123046875
1772896017234863900,9.82586376953125,0.014404296875,-0.17938232421875,0.0224761962890625
1772896017244831700,9.835831787109376,0.0501556396484375,-0.2205810546875,0.0024871826171875
1772896017254801000,9.84580078125,0.080474853515625,-0.251556396484375,0.0055389404296875
1772896017264768800,9.855768798828125,0.13946533203125,-0.2555389404296875,0.0322723388671875
1772896017274736600,9.865736572265625,0.2165985107421875,-0.252197265625,0.0551605224609375
1772896017284705500,9.87570556640625,0.278106689453125,-0.2566986083984375,0.045501708984375
1772896017294673700,9.885673583984374,0.30474853515625,-0.2546234130859375,0.001678466796875
1772896017304641800,9.895641845703125,0.297149658203125,-0.3064117431640625,-0.089508056640625
1772896017314610700,9.905610595703125,0.331085205078125,-0.2967071533203125,-0.4482269287109375
1772896017324578800,9.915578857421876,0.2440948486328125,-0.0554656982421875,-1.15411376953125
1772896017334546700,9.925546630859374,-0.0459442138671875,0.6591033935546875,-2.17236328125
1772896017344515800,9.935515869140625,-0.4444732666015625,1.537109375,-3.201812744140625
1772896017354484000,9.94548388671875,-1.0419769287109375,1.6009674072265625,-3.8699798583984375
1772896017364451600,9.95545166015625,-1.428192138671875,0.8482818603515625,-4.31011962890625
1772896017374420700,9.965420654296874,-1.637603759765625,0.641326904296875,-5.40753173828125
1772896017384388600,9.975388671875,-1.49725341796875,0.60150146484375,-6.8009033203125
1772896017394357800,9.985357666015625,-1.0184173583984375,0.2273101806640625,-7.67144775390625
1772896017404325600,9.99532568359375,-0.672515869140625,0.1220855712890625,-7.778411865234375
1772896017414293800,10.005293701171874,-0.6693572998046875,-0.0491180419921875,-6.82183837890625
1772896017424262700,10.0152626953125,-0.834808349609375,-0.073883056640625,-5.410369873046875
1772896017434230800,10.025230712890625,-0.8356475830078125,0.1280059814453125,-4.1077728271484375
1772896017444199000,10.035198974609376,-0.7026519775390625,0.264129638671875,-3.0075836181640625
1772896017454167800,10.045167724609374,-0.5503387451171875,0.3143768310546875,-2.1941680908203125
1772896017464135700,10.0551357421875,-0.4461822509765625,0.3388824462890625,-1.61505126953125
1772896017474103800,10.065103759765625,-0.35565185546875,0.3006744384765625,-1.1324920654296875
1772896017484072700,10.07507275390625,-0.27520751953125,0.2107391357421875,-0.6376190185546875
1772896017494040800,10.085040771484374,-0.20098876953125,0.0794830322265625,-0.1769561767578125
1772896017504008700,10.0950087890625,-0.1114044189453125,-0.01971435546875,0.1380462646484375
1772896017513977900,10.104977783203125,-0.061798095703125,-0.0721282958984375,0.3135223388671875
1772896017523945700,10.11494580078125,-0.03173828125,-0.070343017578125,0.37054443359375
1772896017533913900,10.124913818359374,-0.0015106201171875,-0.0218048095703125,0.421630859375
1772896017543882800,10.1348828125,0.04217529296875,0.0384368896484375,0.492034912109375
1772896017553850600,10.1448505859375,0.083587646484375,0.112579345703125,0.5305633544921875
1772896017563818800,10.15481884765625,0.1240234375,0.1563568115234375,0.59197998046875
1772896017573787600,10.16478759765625,0.1013031005859375,0.1647491455078125,0.5872650146484375
1772896017583755800,10.174755859375,0.070404052734375,0.1560211181640625,0.4983062744140625
1772896017593723600,10.1847236328125,0.0460662841796875,0.1248931884765625,0.3871002197265625
1772896017603692800,10.19469287109375,0.0369873046875,0.091339111328125,0.2804718017578125
1772896017613661000,10.204660888671874,0.066650390625,0.0536041259765625,0.1478424072265625
1772896017623628800,10.21462890625,0.1040191650390625,0.019500732421875,0.0023956298828125
1772896017633598000,10.224597900390625,0.139129638671875,-0.0252685546875,-0.089080810546875
1772896017643565600,10.234565673828126,0.14056396484375,-0.0481109619140625,-0.149444580078125
1772896017653533700,10.24453369140625,0.098785400390625,-0.0709991455078125,-0.1898193359375
1772896017663502600,10.254502685546875,0.0483245849609375,-0.085723876953125,-0.187286376953125
1772896017673470700,10.264470703125,0.013641357421875,-0.0789794921875,-0.1668243408203125
1772896017683438800,10.27443896484375,-0.0515899658203125,-0.07330322265625,-0.1393890380859375
1772896017693407700,10.28440771484375,-0.096282958984375,-0.0771942138671875,-0.1025543212890625
1772896017703376000,10.2943759765625,-0.13323974609375,-0.0861053466796875,-0.0883331298828125
1772896017713343700,10.30434375,-0.14434814453125,-0.0842132568359375,-0.0648956298828125
1772896017723313000,10.31431298828125,-0.1519012451171875,-0.087066650390625,-0.045196533203125
1772896017733280800,10.32428076171875,-0.1751251220703125,-0.0966644287109375,-0.0363006591796875
1772896017743248600,10.33424853515625,-0.18170166015625,-0.1144866943359375,-0.0222320556640625
1772896017753217800,10.3442177734375,-0.142974853515625,-0.1134185791015625,-0.0294647216796875
1772896017763185700,10.354185546875,-0.096282958984375,-0.0942230224609375,-0.0155487060546875
1772896017773154800,10.36415478515625,-0.0449981689453125,-0.064300537109375,0.053192138671875
1772896017783122700,10.374122802734375,-0.0023345947265625,-0.03472900390625,0.1223297119140625
1772896017793090800,10.3840908203125,0.01116943359375,-0.02398681640625,0.1329498291015625
1772896017803059700,10.394059814453126,0.01763916015625,-0.0170745849609375,0.0962371826171875
1772896017813027600,10.404027587890624,0.0281829833984375,-0.0191192626953125,0.0713653564453125
1772896017822995700,10.41399560546875,0.0384063720703125,-0.0228729248046875,0.063079833984375
1772896017832964600,10.423964599609375,0.044921875,-0.02392578125,0.053680419921875
1772896017842932700,10.4339326171875,0.050628662109375,-0.0237579345703125,0.080169677734375
1772896017852900900,10.44390087890625,0.0556793212890625,-0.01605224609375,0.13299560546875
1772896017862869800,10.453869873046875,0.0750274658203125,-0.0201416015625,0.1731414794921875
1772896017872838000,10.463837890625,0.07232666015625,-0.030731201171875,0.1730804443359375
1772896017882805800,10.4738056640625,0.099761962890625,-0.05224609375,0.1762237548828125
1772896017892775000,10.48377490234375,0.125152587890625,-0.08807373046875,0.169281005859375
1772896017902742500,10.493742431640625,0.1164398193359375,-0.1277313232421875,0.1446685791015625
1772896017912710700,10.503710693359375,0.126190185546875,-0.1552276611328125,0.16693115234375
1772896017922679600,10.513679443359376,0.148712158203125,-0.1599273681640625,0.223876953125
1772896017932647700,10.523647705078124,0.1712493896484375,-0.1513519287109375,0.245635986328125
1772896017942615800,10.53361572265625,0.2106475830078125,-0.10797119140625,0.1326141357421875
1772896017952584700,10.543584716796875,0.128662109375,0.073486328125,-0.2768707275390625
1772896017962552800,10.553552734375,-0.10760498046875,0.6411285400390625,-1.1785430908203125
1772896017972520700,10.563520751953124,-0.5461578369140625,1.5269622802734375,-2.7507171630859375
1772896017982489900,10.57348974609375,-1.0376739501953125,1.93304443359375,-4.429656982421875
1772896017992457700,10.583457763671875,-1.197357177734375,1.1973114013671875,-5.60723876953125
1772896018002425600,10.593425537109376,-1.45404052734375,0.62957763671875,-6.4122161865234375
1772896018012394800,10.603394775390624,-1.8741302490234375,0.9879913330078125,-7.3226318359375
1772896018022362600,10.613362548828125,-1.61553955078125,0.9954681396484375,-7.569244384765625
1772896018032330800,10.623330810546875,-1.1374664306640625,0.410858154296875,-6.88836669921875
1772896018042299600,10.633299560546876,-1.1083831787109375,0.1922607421875,-6.072662353515625
1772896018052267800,10.643267822265624,-0.878021240234375,0.1688232421875,-5.0504150390625
1772896018062236000,10.65323583984375,-0.41448974609375,0.133056640625,-3.9963531494140625
1772896018072204800,10.663204833984375,-0.05267333984375,0.33026123046875,-3.1924591064453125
1772896018082172700,10.673172607421876,0.1380157470703125,0.459228515625,-2.3149261474609375
1772896018092141300,10.683141357421874,0.2316436767578125,0.4803466796875,-1.3405609130859375
1772896018102110500,10.6931103515625,0.2474822998046875,0.4570770263671875,-0.54144287109375
1772896018112078300,10.703078369140625,0.1977996826171875,0.3760833740234375,-0.045501708984375
1772896018122046500,10.71304638671875,0.017913818359375,0.2677154541015625,0.1857147216796875
1772896018132015400,10.723015380859374,-0.1685333251953125,0.1583099365234375,0.3605499267578125
1772896018141983500,10.7329833984375,-0.26824951171875,0.0835723876953125,0.4753265380859375
1772896018151952400,10.742952392578125,-0.2263946533203125,0.082000732421875,0.5106658935546875
1772896018161920500,10.75292041015625,-0.06268310546875,0.082855224609375,0.5421600341796875
1772896018171888400,10.762888427734374,0.0691375732421875,0.071868896484375,0.5233306884765625
1772896018181857300,10.772857177734375,0.1647186279296875,0.0382080078125,0.481781005859375
1772896018191825400,10.782825439453125,0.224334716796875,-0.0209197998046875,0.3733062744140625
1772896018201793500,10.79279345703125,0.2971038818359375,-0.0657806396484375,0.2140655517578125
1772896018211762400,10.802762451171875,0.335052490234375,-0.0681304931640625,0.0582122802734375
1772896018221730600,10.81273046875,0.3681793212890625,-0.056121826171875,-0.0189666748046875
1772896018231698400,10.822698486328125,0.3426513671875,-0.0104522705078125,-0.036529541015625
1772896018241667600,10.83266748046875,0.2822113037109375,0.0276031494140625,-0.019439697265625
1772896018251635500,10.842635498046874,0.275360107421875,0.065948486328125,0.0554046630859375
1772896018261603300,10.852603271484375,0.2184906005859375,0.0784454345703125,0.1043243408203125
1772896018271572200,10.862572265625,0.1518707275390625,0.0806121826171875,0.086395263671875
1772896018281540400,10.872540283203126,0.0894012451171875,0.0567169189453125,0.0274505615234375
1772896018291508500,10.882508544921874,0.045440673828125,0.0273590087890625,-0.0508880615234375
1772896018301477400,10.892477294921875,0.01348876953125,-0.009613037109375,-0.134490966796875
1772896018311445500,10.902445556640625,-0.007781982421875,-0.0375518798828125,-0.153717041015625
1772896018321413600,10.91241357421875,-0.0439453125,-0.051971435546875,-0.110565185546875
1772896018331382500,10.922382568359374,-0.0771484375,-0.05255126953125,-0.056121826171875
1772896018341350700,10.9323505859375,-0.1095123291015625,-0.0552520751953125,-0.00799560546875
1772896018351318300,10.942318359375,-0.140380859375,-0.0511016845703125,0.0237579345703125
1772896018361287400,10.952287353515626,-0.15240478515625,-0.0599212646484375,0.011016845703125
1772896018371255300,10.96225537109375,-0.13555908203125,-0.086944580078125,-0.0209503173828125
1772896018381223400,10.972223388671875,-0.11090087890625,-0.1110687255859375,-0.067352294921875
1772896018391192300,10.9821923828125,-0.0770263671875,-0.127593994140625,-0.1138153076171875
1772896018401160400,10.992160400390626,-0.05438232421875,-0.135986328125,-0.108978271484375
1772896018411128600,11.002128662109374,-0.0513916015625,-0.1350555419921875,-0.0871429443359375
1772896018421097500,11.012097412109375,-0.0510711669921875,-0.131195068359375,-0.065216064453125
1772896018431065600,11.022065673828125,-0.04498291015625,-0.1292572021484375,-0.0588531494140625
1772896018441033500,11.032033447265626,-0.0408935546875,-0.1266937255859375,-0.057647705078125
1772896018451002400,11.04200244140625,-0.0321502685546875,-0.132659912109375,-0.067779541015625
1772896018460970500,11.051970458984375,-0.014678955078125,-0.1522216796875,-0.0648956298828125
1772896018470938400,11.0619384765625,0.0242767333984375,-0.17022705078125,-0.0564727783203125
1772896018480907500,11.071907470703126,0.068359375,-0.1955108642578125,-0.0635223388671875
1772896018490875400,11.08187548828125,0.128265380859375,-0.2385711669921875,-0.078582763671875
1772896018500844500,11.091844482421875,0.1737823486328125,-0.267578125,-0.0472412109375
1772896018510812400,11.1018125,0.21734619140625,-0.2543487548828125,0.060638427734375
1772896018520780500,11.111780517578126,0.2373046875,-0.230987548828125,0.21978759765625
1772896018530749400,11.12174951171875,0.2419281005859375,-0.1827239990234375,0.3634033203125
1772896018540717300,11.13171728515625,0.2637481689453125,-0.140533447265625,0.4320526123046875
1772896018550685400,11.141685546875,0.34619140625,-0.07843017578125,0.427734375
1772896018560654300,11.151654296875,0.415435791015625,0.0362091064453125,0.2255859375
1772896018570622500,11.16162255859375,0.34722900390625,0.4532318115234375,-0.521697998046875
1772896018580590600,11.171590576171875,0.0835418701171875,1.3901824951171875,-1.8936767578125
1772896018590559500,11.1815595703125,-0.2967071533203125,2.2439117431640625,-3.5350189208984375
1772896018600527600,11.191527587890626,-0.6207733154296875,1.8150787353515625,-4.708892822265625
1772896018610495200,11.2014951171875,-0.9523468017578125,1.1143341064453125,-6.077239990234375
1772896018620464600,11.211464599609375,-1.29083251953125,0.8361968994140625,-7.6415252685546875
1772896018630432300,11.221432373046875,-1.244842529296875,0.3972625732421875,-8.035079956054688
1772896018640400400,11.231400390625,-1.206451416015625,-0.213348388671875,-7.958892822265625
1772896018650369300,11.241369384765624,-1.3107452392578125,0.033477783203125,-7.2227935791015625
1772896018660337400,11.25133740234375,-0.9789276123046875,0.3300933837890625,-5.6439361572265625
1772896018670305500,11.261305419921875,-0.4572296142578125,0.500518798828125,-4.3967437744140625
1772896018680274400,11.2712744140625,-0.04693603515625,0.7159881591796875,-3.3682861328125
1772896018690242600,11.28124267578125,0.1299591064453125,0.84295654296875,-2.2285308837890625
1772896018700210400,11.29121044921875,0.1792449951171875,0.9567108154296875,-1.1838531494140625
1772896018710179300,11.301179443359375,0.1400299072265625,0.9698028564453125,-0.363037109375
1772896018720147500,11.3111474609375,0.058990478515625,0.80657958984375,0.123443603515625
1772896018730115300,11.321115234375,0.018524169921875,0.5085906982421875,0.220458984375
1772896018740084500,11.33108447265625,0.144683837890625,0.2676849365234375,0.281951904296875
1772896018750052400,11.34105224609375,0.274017333984375,0.1257171630859375,0.4986724853515625
1772896018760020500,11.3510205078125,0.37176513671875,0.0346832275390625,0.6995697021484375
1772896018769989400,11.3609892578125,0.40924072265625,-0.00140380859375,0.7913055419921875
1772896018779957500,11.37095751953125,0.3613739013671875,-0.020538330078125,0.7584686279296875
1772896018789925400,11.38092529296875,0.222900390625,-0.0501251220703125,0.598114013671875
1772896018799894300,11.390894287109376,0.1108551025390625,-0.0679168701171875,0.4339599609375
1772896018809862400,11.4008623046875,0.0318145751953125,-0.0868072509765625,0.2867431640625
1772896018819831300,11.410831298828125,-0.0518798828125,-0.10565185546875,0.1204376220703125
1772896018829799400,11.42079931640625,-0.1042633056640625,-0.1183624267578125,0.03582763671875
1772896018839767600,11.430767578125,-0.111724853515625,-0.1128082275390625,0.0129547119140625
1772896018849736400,11.440736328125,-0.10107421875,-0.1009979248046875,0.0027008056640625
1772896018859704600,11.45070458984375,-0.0989990234375,-0.0858917236328125,-0.032989501953125
1772896018869672400,11.46067236328125,-0.1133880615234375,-0.07696533203125,-0.092498779296875
1772896018879641600,11.4706416015625,-0.1510467529296875,-0.076507568359375,-0.1472320556640625
1772896018889609200,11.480609130859374,-0.1796722412109375,-0.0821380615234375,-0.1723480224609375
1772896018899577300,11.490577392578125,-0.1778717041015625,-0.086395263671875,-0.1518707275390625
1772896018909546500,11.50054638671875,-0.1849822998046875,-0.085235595703125,-0.1485443115234375
1772896018919514400,11.510514404296876,-0.21356201171875,-0.0916595458984375,-0.1691741943359375
1772896018929482500,11.520482421875,-0.250579833984375,-0.106689453125,-0.1898345947265625
1772896018939451400,11.530451416015625,-0.2686920166015625,-0.10986328125,-0.193206787109375
1772896018949419500,11.54041943359375,-0.26531982421875,-0.1277008056640625,-0.1744537353515625
1772896018959387600,11.5503876953125,-0.25762939453125,-0.139739990234375,-0.1567535400390625
1772896018969356500,11.5603564453125,-0.240692138671875,-0.1419525146484375,-0.1301422119140625
1772896018979324400,11.570324462890625,-0.21185302734375,-0.14630126953125,-0.1162261962890625
1772896018989292300,11.580292236328125,-0.1628265380859375,-0.1415557861328125,-0.11322021484375
1772896018999261400,11.590261474609376,-0.1184844970703125,-0.1419830322265625,-0.100555419921875
1772896019009229300,11.600229248046874,-0.0783843994140625,-0.1514892578125,-0.1184844970703125
1772896019019197400,11.610197509765625,-0.0286712646484375,-0.1519317626953125,-0.0864410400390625
1772896019029166300,11.620166259765625,-0.0197906494140625,-0.1549072265625,-0.04522705078125
1772896019039134500,11.630134521484376,-0.0051727294921875,-0.1425323486328125,-0.00677490234375
1772896019049102600,11.6401025390625,0.0169219970703125,-0.12640380859375,0.0292816162109375
1772896019059071500,11.650071533203125,0.0361328125,-0.1123046875,0.0489501953125
1772896019069039400,11.660039306640625,0.050323486328125,-0.10443115234375,0.051910400390625
1772896019079007500,11.670007568359376,0.0585479736328125,-0.11041259765625,0.0668182373046875
1772896019088976400,11.679976318359374,0.059600830078125,-0.1239471435546875,0.075347900390625
1772896019098944500,11.689944580078125,0.0888519287109375,-0.141326904296875,0.0753021240234375
1772896019108912000,11.699912109375,0.14715576171875,-0.1466827392578125,0.085784912109375
1772896019118881300,11.70988134765625,0.2136383056640625,-0.14013671875,0.127410888671875
1772896019128849200,11.71984912109375,0.2552032470703125,-0.14056396484375,0.1570281982421875
1772896019138818300,11.729818359375,0.3120880126953125,-0.1342620849609375,0.14825439453125
1772896019148786400,11.739786376953125,0.3698272705078125,-0.1301422119140625,0.146636962890625
1772896019158754300,11.74975439453125,0.4033050537109375,-0.1182861328125,0.1321563720703125
1772896019168723500,11.759723388671874,0.4396514892578125,-0.0988311767578125,0.11767578125
1772896019178691300,11.76969140625,0.4130859375,-0.08203125,0.0430145263671875
1772896019188659500,11.779659423828125,0.354827880859375,0.0843658447265625,-0.219482421875
1772896019198628400,11.78962841796875,0.10443115234375,0.5444488525390625,-0.887298583984375
1772896019208596200,11.79959619140625,-0.42486572265625,1.299072265625,-2.1931610107421875
1772896019218564400,11.809564453125,-1.021026611328125,2.0184173583984375,-3.9642486572265625
1772896019228533200,11.819533203125,-1.3745574951171875,1.7808990478515625,-5.4336395263671875
1772896019238501400,11.82950146484375,-1.50311279296875,0.8488616943359375,-6.4290313720703125
1772896019248469200,11.83946923828125,-1.631072998046875,0.490386962890625,-7.5967254638671875
1772896019258438400,11.8494384765625,-1.390899658203125,0.3698883056640625,-8.031890869140625
1772896019268406300,11.85940625,-1.4020233154296875,-0.2272186279296875,-7.984375
1772896019278374400,11.86937451171875,-1.73388671875,0.097442626953125,-7.5514373779296875
1772896019288343600,11.879343505859374,-1.6446990966796875,0.7871246337890625,-5.8036956787109375
1772896019298311200,11.889311279296875,-1.352142333984375,0.9703521728515625,-3.68731689453125
1772896019308279300,11.899279296875,-1.012451171875,1.08258056640625,-2.2685089111328125
1772896019318248200,11.909248291015626,-0.6440887451171875,1.078765869140625,-1.415313720703125
1772896019328216300,11.91921630859375,-0.2825469970703125,0.9288177490234375,-0.8719940185546875
1772896019338184400,11.929184326171875,0.0673828125,0.7833709716796875,-0.552001953125
1772896019348153300,11.9391533203125,0.3585052490234375,0.5474700927734375,-0.2368927001953125
1772896019358121500,11.94912158203125,0.4948272705078125,0.314697265625,0.053863525390625
1772896019368089300,11.95908935546875,0.48065185546875,0.167816162109375,0.2596893310546875
1772896019378058500,11.96905859375,0.3852081298828125,0.105072021484375,0.394500732421875
1772896019388026000,11.979026123046875,0.2466888427734375,0.067962646484375,0.4541778564453125
1772896019397994200,11.988994140625,0.134246826171875,0.0728302001953125,0.4801483154296875
1772896019407963400,11.99896337890625,0.08154296875,0.107421875,0.5404815673828125
1772896019417931300,12.00893115234375,0.0159454345703125,0.1326904296875,0.613250732421875
1772896019427900400,12.018900390625,-0.04437255859375,0.1371612548828125,0.6637115478515625
1772896019437868300,12.028868408203126,-0.067779541015625,0.125579833984375,0.661834716796875
1772896019447836400,12.03883642578125,-0.06744384765625,0.088348388671875,0.5370941162109375
1772896019457805300,12.048805419921875,-0.06524658203125,0.0316009521484375,0.323394775390625
1772896019467773400,12.0587734375,-0.0431671142578125,-0.0502166748046875,0.07781982421875
1772896019477741300,12.0687412109375,-0.030242919921875,-0.130645751953125,-0.1483154296875
1772896019487710200,12.078710205078124,0.0181121826171875,-0.17291259765625,-0.2707366943359375
1772896019497678300,12.08867822265625,0.0487213134765625,-0.197357177734375,-0.2931671142578125
1772896019507646200,12.098646240234375,0.03485107421875,-0.197784423828125,-0.2743988037109375
1772896019517615400,12.108615478515626,-0.0050201416015625,-0.1949310302734375,-0.2813262939453125
1772896019527583500,12.11858349609375,-0.0452728271484375,-0.18017578125,-0.2773590087890625
1772896019537551400,12.12855126953125,-0.0886383056640625,-0.1719818115234375,-0.2423248291015625
1772896019547520500,12.1385205078125,-0.14141845703125,-0.179656982421875,-0.2300567626953125
1772896019557488000,12.148488037109376,-0.1492156982421875,-0.175445556640625,-0.219757080078125
1772896019567456300,12.158456298828124,-0.1601715087890625,-0.16973876953125,-0.19122314453125
1772896019577425200,12.168425048828125,-0.1445159912109375,-0.163909912109375,-0.1622467041015625
1772896019587393300,12.178393310546875,-0.0945281982421875,-0.14739990234375,-0.1281280517578125
1772896019597361400,12.188361328125,-0.02587890625,-0.12481689453125,-0.1023712158203125
1772896019607330300,12.198330322265624,0.0333099365234375,-0.1187286376953125,-0.0949859619140625
1772896019617298400,12.20829833984375,0.0651397705078125,-0.118896484375,-0.088165283203125
1772896019627266300,12.218266357421875,0.0835418701171875,-0.107330322265625,-0.053741455078125
1772896019637235500,12.2282353515625,0.0885772705078125,-0.090179443359375,-0.0041961669921875
1772896019647203300,12.238203369140624,0.083526611328125,-0.0829315185546875,0.0290985107421875
1772896019657172200,12.248172119140625,0.051300048828125,-0.0821685791015625,0.0362548828125
1772896019667140400,12.258140380859375,0.0308837890625,-0.0784149169921875,0.0445556640625
1772896019677108200,12.268108154296876,0.0077056884765625,-0.074005126953125,0.037811279296875
1772896019687077400,12.278077392578124,-0.0005645751953125,-0.0753173828125,0.033966064453125
1772896019697045200,12.288045166015625,-0.0035247802734375,-0.07757568359375,0.042938232421875
1772896019707013400,12.298013427734375,-0.0149993896484375,-0.0836944580078125,0.06842041015625
1772896019716982300,12.307982177734376,-0.0379180908203125,-0.0938262939453125,0.0975494384765625
1772896019726950400,12.317950439453124,-0.089691162109375,-0.117462158203125,0.1116790771484375
1772896019736918300,12.327918212890625,-0.124847412109375,-0.152587890625,0.1024932861328125
1772896019746887200,12.33788720703125,-0.149017333984375,-0.193267822265625,0.0736236572265625
1772896019756855300,12.347855224609376,-0.1326446533203125,-0.2231903076171875,0.106353759765625
1772896019766823200,12.3578232421875,-0.0608978271484375,-0.25933837890625,0.1869049072265625
1772896019776792300,12.367792236328125,0.0140838623046875,-0.268585205078125,0.254486083984375
1772896019786760400,12.377760498046875,0.057708740234375,-0.2602081298828125,0.265533447265625
1772896019796728300,12.387728271484375,0.10009765625,-0.258148193359375,0.2329559326171875
1772896019806697500,12.397697509765624,0.1465911865234375,-0.255401611328125,0.1326446533203125
1772896019816665300,12.407665283203125,0.20550537109375,-0.2016143798828125,-0.0242462158203125
1772896019826633200,12.41763330078125,0.1652984619140625,0.040740966796875,-0.461029052734375
1772896019836602000,12.42760205078125,-0.143646240234375,0.5867462158203125,-1.4179840087890625
1772896019846570200,12.4375703125,-0.73590087890625,1.2981414794921875,-2.9378662109375
1772896019856538400,12.447538330078125,-1.4853363037109375,1.563201904296875,-4.5430908203125
1772896019866507300,12.45750732421875,-1.8804473876953125,0.7100982666015625,-5.7884063720703125
1772896019876475400,12.467475341796876,-2.066314697265625,0.1584320068359375,-7.022308349609375
1772896019886444300,12.4774443359375,-1.847686767578125,0.9918975830078125,-8.004241943359375
1772896019896412400,12.487412353515625,-1.0916595458984375,0.690460205078125,-7.994964599609375
1772896019906380300,12.49738037109375,-0.660186767578125,-0.4097900390625,-7.5497589111328125
1772896019916349400,12.507349365234376,-0.81976318359375,-0.3827362060546875,-5.8719329833984375
1772896019926317300,12.5173173828125,-0.85821533203125,-0.0516204833984375,-4.2357940673828125
1772896019936285200,12.52728515625,-0.8707733154296875,0.1140594482421875,-2.8152313232421875
1772896019946254300,12.53725439453125,-0.7702178955078125,0.4282073974609375,-1.7309722900390625
1772896019956222200,12.54722216796875,-0.68426513671875,0.4675445556640625,-0.7664337158203125
1772896019966190300,12.5571904296875,-0.5887603759765625,0.35357666015625,-0.13360595703125
1772896019976159200,12.5671591796875,-0.4979095458984375,0.2165069580078125,0.070465087890625
1772896019986127400,12.57712744140625,-0.355682373046875,0.0247039794921875,0.1338958740234375
1772896019996095500,12.587095458984376,-0.0439605712890625,-0.087371826171875,0.2702178955078125
1772896020006064400,12.597064453125,0.166473388671875,-0.0966033935546875,0.52276611328125
1772896020016032300,12.6070322265625,0.202880859375,-0.1147613525390625,0.668670654296875
1772896020026000400,12.61700048828125,0.1773681640625,-0.1487884521484375,0.6422271728515625
1772896020035969300,12.62696923828125,0.2109375,-0.1965789794921875,0.487884521484375
1772896020045937400,12.6369375,0.2563629150390625,-0.1811676025390625,0.3934783935546875
1772896020055905300,12.6469052734375,0.247711181640625,-0.1478729248046875,0.391845703125
1772896020065874400,12.65687451171875,0.15423583984375,-0.0611114501953125,0.403045654296875
1772896020075842300,12.66684228515625,0.027740478515625,-0.02325439453125,0.369384765625
1772896020085810400,12.676810546875,0.0062255859375,-0.035614013671875,0.27996826171875
1772896020095779000,12.686779052734375,0.03424072265625,-0.0786285400390625,0.157012939453125
1772896020105747200,12.696747314453125,0.038116455078125,-0.1184844970703125,-0.0606536865234375
1772896020115715300,12.70671533203125,0.027679443359375,-0.1652374267578125,-0.2478485107421875
1772896020125684200,12.716684326171874,0.043304443359375,-0.1732025146484375,-0.28009033203125
1772896020135652400,12.72665234375,0.048553466796875,-0.14776611328125,-0.220947265625
1772896020145620200,12.7366201171875,0.0380401611328125,-0.121978759765625,-0.19049072265625
1772896020155589000,12.746589111328126,0.010406494140625,-0.10540771484375,-0.1822357177734375
1772896020165557200,12.75655712890625,-0.048553466796875,-0.0972442626953125,-0.161224365234375
1772896020175526100,12.766526123046875,-0.109710693359375,-0.11322021484375,-0.1714324951171875
1772896020185494300,12.776494384765625,-0.1384429931640625,-0.131011962890625,-0.1876220703125
1772896020195462100,12.786462158203125,-0.11474609375,-0.131866455078125,-0.1727752685546875
1772896020205431300,12.796431396484374,-0.078826904296875,-0.1233062744140625,-0.111297607421875
1772896020215399200,12.806399169921875,-0.0479583740234375,-0.1039581298828125,-0.0375518798828125
1772896020225367300,12.8163671875,-0.0177154541015625,-0.0970306396484375,-0.0005950927734375
1772896020235336200,12.826336181640626,-0.016326904296875,-0.0962677001953125,0.00250244140625
1772896020245304000,12.836303955078124,-0.0019683837890625,-0.1021728515625,0.01922607421875
1772896020255272200,12.846272216796875,0.032379150390625,-0.100677490234375,0.0260162353515625
1772896020265241000,12.856240966796875,0.05865478515625,-0.09735107421875,0.026092529296875
