time,seconds_elapsed,z,y,x
1772896007489580800,0.080580810546875,-0.4706774838417768,-0.27078780257329343,-0.7422734609927981
1772896007499549000,0.090548828125,-0.8020061182260513,-0.24516221679896114,-1.297376437036693
1772896007509516800,0.100516845703125,-1.0040881949722766,-0.2111921426579356,-1.9239991003498433
1772896007519485700,0.110485595703125,-0.8986012831062078,-0.36150428467839957,-1.1490914169296622
1772896007529453800,0.120453857421875,-0.8143938906341791,0.055257192319631575,-0.27917313440702857
1772896007539421700,0.130421630859375,-1.1083347513884305,0.92713179654181,-0.16890483348332344
1772896007549390800,0.140390869140625,-0.686715605226159,1.3416615689650178,0.3040909372381866
1772896007559358700,0.150358642578125,-0.32390053021013737,1.1620426684394478,0.6569988046154379
1772896007569326800,0.160326904296875,-0.4682528870433569,1.3321762400001287,-0.3317361922718584
1772896007579296000,0.1702958984375,-0.01173310789167881,1.7498790895015,-1.4565198280274867
1772896007589264000,0.180263916015625,0.6674971100151539,1.6648706097796557,-1.6511881213858723
1772896007599231700,0.190231689453125,0.444358216714859,1.2528145339936017,-1.0455042012050748
1772896007609200600,0.20020068359375,0.5081032513946294,1.5368267059296368,-0.7583978626459836
1772896007619168800,0.210168701171875,0.6940291431099176,1.9787889674186705,0.297172828412801
1772896007629137000,0.220136962890625,-0.5928326219141483,1.8254127616524696,1.0252996175661682
1772896007639105800,0.230105712890625,-1.2534312045872211,0.7098103573486209,0.4244578767195344
1772896007649074000,0.240073974609375,-1.1749082874923944,-0.34319998170286414,-0.3055148325614631
1772896007659041800,0.250041748046875,-1.3351649004220962,-1.1479030839279294,-1.487767783728242
1772896007669011000,0.260010986328125,-0.9382605087995529,-0.6621466888979077,-2.1001104311458767
1772896007678978800,0.269978759765625,0.19563070864975451,0.9471323820412159,-2.234997478888929
1772896007688946700,0.27994677734375,1.5182745656728744,1.4890996168538928,-2.3354791298136113
1772896007698915800,0.289915771484375,3.776782976269722,1.0881611474096775,-1.3314334588088095
1772896007708883700,0.2998837890625,5.682171191912889,0.47360009329020974,1.0287469815410673
1772896007718851800,0.309851806640625,6.82110917135775,-0.33316870929300785,1.1824465740427375
1772896007728820000,0.319820068359375,6.455619324174523,-1.6584756480455398,1.8383334718935191
1772896007738788900,0.329788818359375,2.3456501029551027,-3.273131443586945,7.049227022114396
1772896007748757000,0.339757080078125,0.6234487094521522,-1.612980263544619,6.436968984240293
1772896007758724900,0.349724853515625,-0.011585223853588103,0.17004297066777943,5.330725067651271
1772896007768694000,0.359694091796875,-0.5027548761039972,1.204355915772915,3.869594238696992
1772896007778661600,0.36966162109375,-1.5157885940760374,2.0716741718649865,1.4251409394234418
1772896007788629800,0.379629638671875,-1.5306272667676208,1.9274448568895457,-0.06356821680814027
1772896007798598700,0.3895986328125,-1.1009516553997993,0.850371797466278,-0.8247361286893486
1772896007808566800,0.39956689453125,-0.9135001615524292,-0.5814841294258832,-1.7605018980637193
1772896007818535000,0.409534912109375,-0.25717209580540656,-1.5915537368953228,-2.0737565310969948
1772896007828503800,0.41950390625,0.785945210263133,-1.3045102344393729,-1.268845631340146
1772896007838472000,0.429471923828125,1.7918541909217833,-0.3537985326066613,0.040835283735394474
1772896007848439800,0.439439697265625,2.385508650612831,0.2383016833797097,0.4915180272966623
1772896007858409000,0.449408935546875,0.48556876350343225,0.7554583020627498,0.26353081718236204
1772896007868376800,0.459376953125,0.18687515526413917,0.5473360683694481,-0.40626054124981165
1772896007878344700,0.4693447265625,0.43485155270099635,0.36451866406351324,-1.060723982168734
1772896007888313900,0.47931396484375,-0.620312164992094,0.15203794289976358,-1.2121040456816554
1772896007898281700,0.48928173828125,-0.35384091044366356,-0.08996960926055908,-1.0463611102953552
1772896007908249900,0.499249755859375,0.3714081313163042,0.05772445921599865,-0.280256326533854
1772896007918218800,0.50921875,0.6382885511875153,0.4129559472352266,0.5406602438673377
1772896007928187000,0.519186767578125,-0.10414952578246593,0.2739718394368887,0.7325646254703402
1772896007938155000,0.529155029296875,-0.0950491044819355,0.12299334246218203,0.6706701870933175
1772896007948122600,0.53912255859375,0.4828875615954399,0.07812924160212278,0.9858233472242951
1772896007958091800,0.549091796875,-0.5371545738339424,0.3533642328426242,1.1904738131538033
1772896007968060000,0.559059814453125,-1.4173860875129698,-0.15592150633484125,0.2772475001066923
1772896007978027800,0.56902783203125,-3.09654387358129,-0.4949629070535302,-2.303465742698312
1772896007987997000,0.578996826171875,-3.4312843622356652,0.13330284729152916,-2.842813442662358
1772896007997964800,0.58896484375,-1.7516542824804782,0.894947436773777,-0.4776403085917234
1772896008007933000,0.598932861328125,-2.276657230749726,0.3016878216192126,-0.12828794173896313
1772896008017901800,0.60890185546875,-1.8499346239686012,0.05364624999165535,-0.4254354895800352
1772896008027869700,0.61886962890625,-1.9257658177614212,-0.7444882874980568,-0.7148147415071725
1772896008037837800,0.628837890625,-2.236826740142703,-1.1661804988965392,-0.7147370000958442
1772896008047806700,0.638806640625,-1.7397364656716585,-1.3701876984864472,-0.36117782920300956
1772896008057774800,0.64877490234375,-2.0339502981483935,-1.278940908896923,0.5335018965452909
1772896008067742700,0.65874267578125,-1.3525830682128668,-1.0580025943808258,0.5893132156163454
1772896008077712000,0.6687119140625,-1.085200544038415,-0.27564605625942346,-0.9691280868805945
1772896008087680000,0.678679931640625,-0.7639221790254116,0.6200554137520492,-2.234228101951629
1772896008097648000,0.688648193359375,-1.3570856403291225,0.5186898195996881,-0.6245287597738206
1772896008107617000,0.698616943359375,-2.17912916893363,-0.31264395378902554,1.301001934057474
1772896008117585200,0.708585205078125,-2.5563439407020807,0.23740181193053722,0.8927617632977664
1772896008127553300,0.71855322265625,-1.8287001127600668,0.7416454652875661,0.8736781465128064
1772896008137522200,0.728522216796875,-0.8823404686570167,0.5442658671438694,1.2676925157822667
1772896008147490300,0.738490234375,-0.8379752572298049,0.12021423313766717,1.2097234341554344
1772896008157458400,0.74845849609375,-1.0862830785781143,-0.01567643868997693,0.9581111644342541
1772896008167426000,0.758426025390625,-1.1617121213108301,0.07208981530740857,0.7881069183416665
1772896008177395200,0.768395263671875,-1.3507967693179845,-0.1263778703339398,0.7699792871072888
1772896008187363000,0.778363037109375,-0.9965502006828785,-0.9294026640832423,1.654872362856567
1772896008197331200,0.788331298828125,-0.9847709155619144,-0.17125220032706856,1.1214853248625993
1772896008207300000,0.798300048828125,-0.6588298194348812,0.4745705457575619,0.3155708010211587
1772896008217268200,0.808268310546875,-0.5992945114046335,0.2867072562389076,0.2572366854742169
1772896008227236400,0.818236328125,-0.764178784134984,0.1056501396037638,0.6497454724863171
1772896008237205200,0.828205322265625,-0.7214601708710193,0.03060542001351714,1.1072877265535295
1772896008247173400,0.83817333984375,-0.23222528607547283,0.1641087583132088,1.4698733767278491
1772896008257141000,0.84814111328125,-0.06628127515912055,0.37204043787047264,1.7034452551066874
1772896008267110100,0.858110107421875,-0.3268260622680187,0.441898256342113,2.019114840327203
1772896008277078300,0.868078369140625,-0.8072785056710243,0.7006319023758173,2.210159828621894
1772896008287046100,0.878046142578125,-0.6439969919621944,0.7313349375449121,1.5807168471910058
1772896008297015300,0.888015380859375,-0.6522995408833027,0.06066679627820849,1.4103579424418509
1772896008306983200,0.897983154296875,-0.7006470999449491,-0.5140756768677384,1.221761516343057
1772896008316951300,0.907951416015625,-0.6407242539018392,-0.4429464502207935,0.6686864659301937
1772896008326920200,0.917920166015625,-0.24890637176334857,-0.40571028695590794,0.20303046351224183
1772896008336888300,0.927888427734375,0.12106734283566474,-0.5174393080819398,0.17159662985056637
1772896008346856200,0.937856201171875,0.16545768870413302,-0.5468990651916712,0.36757337545901536
1772896008356825000,0.9478251953125,-0.009185761496424675,-0.39993879088237877,0.05789513960778713
1772896008366793200,0.957793212890625,0.02947802341878414,-0.2774137235190719,-0.1673133995734155
1772896008376761000,0.967760986328125,0.510310406050086,-0.2826825307674706,-0.062957464498654
1772896008386730200,0.977730224609375,0.4747001634865999,-0.265698589675501,-0.24165260124281046
1772896008396698000,0.987697998046875,0.08855448176562786,-0.20038089885152874,-0.5900497862625866
1772896008406666200,0.997666259765625,-0.11458031890392303,0.041580987536162135,-1.0440350054353476
1772896008416634000,1.007634033203125,0.1774754587560892,0.31516543509066103,-0.9950685107577592
1772896008426603000,1.01760302734375,0.5735743792146444,0.31041210308372974,-0.9563048456646501
1772896008436571100,1.027571044921875,0.687995123642683,0.1796485650114715,-1.0855633129362017
1772896008446539300,1.037539306640625,0.717676560679078,0.12226108266487717,-1.1803135075367988
1772896008456508200,1.047508056640625,0.17395839054584503,0.08153072060868144,-1.290321257828176
1772896008466476300,1.057476318359375,-4.300671825817227,-0.7435621125638484,-4.855616031102836
1772896008476444200,1.067444091796875,-1.8529326367408037,-1.8880935281015931,-3.7408950858086345
1772896008486413300,1.077413330078125,1.6935539756894111,-0.24503347585275767,0.880438215232268
1772896008496381200,1.087381103515625,1.2331114701360464,1.1092829920239746,-1.7968132746338843
1772896008506349000,1.09734912109375,0.9349678969949483,0.1831670945264399,-2.1805974879205228
1772896008516318200,1.107318115234375,1.6431898161083458,0.07458718508109449,-0.40150143708921965
1772896008526286000,1.1172861328125,1.6988649415791033,0.7673119675941765,-0.2366903026603162
1772896008536254200,1.127254150390625,1.649750489798188,0.7689059587873518,0.06845657337158918
1772896008546223000,1.13722314453125,1.6341799957007168,0.7765782469809055,0.11466880090497433
1772896008556191200,1.147191162109375,1.4839526093542574,0.6734986885175108,-0.03246091168709099
1772896008566159400,1.157159423828125,1.3211428048104048,0.2637709095485508,-0.013421718565747141
1772896008576128300,1.167128173828125,1.1409522418767213,0.012228051801770924,-0.3485996487893164
1772896008586096400,1.177096435546875,0.9321879108875989,-0.04235635582283139,-0.6163491796452552
1772896008596064000,1.18706396484375,0.990043887528777,0.04239902592077851,-0.545795853190124
1772896008606033200,1.197033203125,1.153123741185665,0.2085619402848184,-0.36408056490719315
1772896008616001000,1.2070009765625,1.2495032174885272,0.4769644551567733,-0.15140446730181573
1772896008625969200,1.21696923828125,1.1376204671055077,0.6395246688537299,-0.0770120741404593
1772896008635937300,1.226937255859375,0.9529407760590314,0.5849027056977153,-0.0028228754010051487
1772896008645906200,1.23690625,0.7656973720043897,0.3943707814916968,0.10874503687918186
1772896008655874300,1.246874267578125,0.6134504625290632,0.298948313652724,0.07874803108759224
1772896008665842200,1.25684228515625,0.4013894280821085,0.3545722934581339,0.022354528214409947
1772896008675811300,1.266811279296875,0.32177111696600913,0.3445755078397691,0.034497678211703894
1772896008685779200,1.276779296875,0.8979448650240898,0.32522330324649806,0.005085340440273285
1772896008695747000,1.2867470703125,1.5652262864619493,-0.14315233339369296,-0.45396739125512536
1772896008705716200,1.29671630859375,0.9906348391592502,-0.14064926453158258,-1.0010312916196882
1772896008715684000,1.30668408203125,0.5728150852799415,-0.3494090654760599,-1.3004818557061255
1772896008725652200,1.31665234375,-0.5731617067605257,-0.6362846640191971,-1.2185617704536764
1772896008735621000,1.32662109375,-0.5835217727333307,-0.45994215481579304,-0.9301818317621946
1772896008745589200,1.33658935546875,-0.3145820822447538,-0.14998860915452242,-0.6878867678973823
1772896008755557400,1.346557373046875,-0.40814708564877505,0.07956687318980693,-0.5163785469826311
1772896008765526300,1.3565263671875,-0.6986410208195447,-0.018446634055674076,-0.32319749650731683
1772896008775494100,1.366494140625,-0.5546469759047031,-0.18915201415494085,-0.19503420406132935
1772896008785462000,1.3764619140625,-0.4163713086366653,-0.1886805972509086,-0.19251140758544205
1772896008795431200,1.38643115234375,-0.3655389470219612,-0.17695932592749594,-0.1816454379171133
1772896008805399300,1.3963994140625,-0.25582243476212024,-0.17108458867520093,-0.06929002852104604
1772896008815367200,1.4063671875,-0.17287234887480735,-0.20048150968179104,-0.002067892315238714
1772896008825335300,1.416335205078125,-0.11148059932291507,0.04784048632234335,0.2980355096567422
1772896008835304200,1.42630419921875,-0.16572656877338884,0.12351502824872732,0.4429924813196063
1772896008845272300,1.436272216796875,-0.34162907912433144,0.1373692199476063,0.4262457830496132
1772896008855240200,1.446240234375,-0.22728432254195213,0.11785305696427821,0.3909486980885267
1772896008865209000,1.456208984375,-0.04220481852293014,0.035853257539123294,0.4007228539321571
1772896008875177200,1.46617724609375,0.07325169869363307,-0.054427317366749044,0.4646764167960733
1772896008885145000,1.47614501953125,0.2992594254285097,-0.03669862232208252,0.32686851317025717
1772896008895114200,1.4861142578125,0.6947767466068268,0.07419365571886301,0.14633184021264314
1772896008905082000,1.49608203125,0.43496962612271306,0.019418693958222866,0.33810360841192305
1772896008915050200,1.50605029296875,0.3106137631356716,-0.1553068815678358,0.18072430448420346
1772896008925019400,1.516019287109375,0.3578875554859638,-0.22093729160279035,0.02168035527989268
1772896008934987300,1.5259873046875,0.5532558138072491,-0.10134469749480485,0.09819069044329226
1772896008944955100,1.535955078125,0.6950345207601786,-0.035007308234274385,0.21827136032916605
1772896008954924000,1.545924072265625,0.4719201773792505,-0.09651698507741092,0.1414216371435672
1772896008964892200,1.55589208984375,0.3569622573345899,-0.003883563435077667,0.16365816500149666
1772896008974860300,1.5658603515625,0.38192368011176586,0.16110972262769938,0.2120535817928612
1772896008984829200,1.5758291015625,0.1342658471047878,0.19153847090005874,0.12830080122053622
1772896008994797300,1.58579736328125,-0.29751930376291275,0.02950286559909582,0.10010828756764531
1772896009004765200,1.59576513671875,-0.4828472295850515,-0.05778568788394332,0.21857063553668557
1772896009014734300,1.605734375,-0.3360322820305824,-0.1276842767573893,0.11004450210519134
1772896009024702200,1.6157021484375,-0.4456827433168888,-0.18498685729950665,-0.16983429635316133
1772896009034670000,1.625670166015625,-0.1532540406912565,-0.17252192800194024,-0.21422515367828307
1772896009044638200,1.63563818359375,-0.03917114991545677,-0.02977992897480726,-0.1809603051971644
1772896009054607000,1.645607177734375,-0.2632090378820896,0.08356164191439747,0.04290449122488498
1772896009064575200,1.6555751953125,-0.04824526773095131,0.2981492722295224,0.04222461920194327
1772896009074543400,1.66554345703125,-0.17989070320427417,0.37791298316568134,0.0276840526740998
1772896009084511500,1.675511474609375,-0.28068331977427,-0.20004618700444698,-0.33746801392212505
1772896009094479600,1.685479736328125,-0.10598433999419211,-0.004069733656942844,-0.024889526584744453
1772896009104447500,1.695447509765625,-0.17518004129529,-0.009478606963157653,0.013846739044785498
1772896009114416400,1.70541650390625,-0.37293490249216554,0.18538827770724892,0.08417312487624586
1772896009124384500,1.715384521484375,-0.2956938419014215,0.25124650514870883,0.2594340493880212
1772896009134352400,1.725352294921875,-0.18093758190870285,0.08145093337073922,0.05599281311780214
1772896009144321500,1.735321533203125,-0.13272797001302242,0.47298517626225944,0.26587679578661916
1772896009154289400,1.745289306640625,-0.040116906332969667,0.42942105208486314,-0.05024287128895521
1772896009164257500,1.755257568359375,-0.2087409501135349,0.08189648518115282,-0.3961901058733463
1772896009174226400,1.765226318359375,0.07154372573196888,0.3555610122345388,0.07622413863316178
1772896009184194300,1.7751943359375,0.7522013460934162,0.39771526961401105,0.422102107373625
1772896009194162400,1.785162353515625,0.8016396230012178,-0.19703838349059222,0.01568966349773109
1772896009204131300,1.79513134765625,0.47826750057935713,-0.5904011569835246,-0.48086752700991925
1772896009214099500,1.805099365234375,0.5953671088278293,-0.2456904784567654,-0.47899807987622917
1772896009224067300,1.8150673828125,-0.30553309887051583,0.10197525048330426,0.2544368986878544
1772896009234035500,1.825035400390625,-0.36988720535933967,0.3222879804469645,0.43608978925906117
1772896009244004600,1.835004638671875,0.07323065590560436,0.24886121744737028,0.2047660551331937
1772896009253972500,1.844972412109375,0.1488543444275856,0.22899185711219905,0.28617592584118245
1772896009263940400,1.8549404296875,0.22455986601412295,0.1604800464220345,-0.03817454009354114
1772896009273909200,1.8649091796875,-0.049803018566966055,0.021834961319714782,-0.11377309417426586
1772896009283877400,1.87487744140625,-0.18047639413774014,-0.01764262419641018,0.06449154219813645
1772896009293845500,1.884845458984375,-0.12330313906371593,-0.11231661175563931,0.0980384224910289
1772896009303814400,1.894814453125,0.03395136944055557,-0.16078019841238855,0.12585830343924462
1772896009313782500,1.904782470703125,0.043784196668863296,-0.07855112027600407,0.02696772109828889
1772896009323750400,1.91475048828125,0.02408405542075634,-0.02374415594190359,-0.025100977378338572
1772896009333719600,1.924719482421875,0.34094811112284656,0.25112872398793695,-0.0846460030850023
1772896009343687400,1.9346875,0.592782937553525,0.4279353435717523,0.10551058500260115
1772896009353655300,1.9446552734375,0.22824001583158968,-0.02652925661578774,0.5222616867370903
1772896009363624400,1.95462451171875,0.21407997305393217,0.4943170103654265,-0.05752616016492247
1772896009373592300,1.96459228515625,0.09795593183934688,0.46112858812138435,-0.4884139238014817
1772896009383560400,1.974560546875,-0.22433657865226267,-0.05028539525642991,-0.8096782602891326
1772896009393528600,1.984528564453125,-0.534872600376606,-0.1986509332537651,-0.03289849938675761
1772896009403497500,1.99449755859375,-0.31373101837337014,0.02870236287117004,-0.1310414782308042
1772896009413465600,2.004465576171875,0.11154197412133217,0.17792203347980975,-0.4163860678143799
1772896009423433500,2.01443359375,0.08141922305822372,-0.03436842580884695,-0.17946882453039287
1772896009433402600,2.024402587890625,-0.14554478148818015,-0.11543459764569997,-0.10660977841615676
1772896009443370200,2.034370361328125,-0.09848317058384418,-0.10468801657333969,-0.28032340042069553
1772896009453338400,2.04433837890625,0.0598006809681654,-0.11152107746377586,-0.21564123102128505
1772896009463307300,2.054307373046875,0.2619347801625728,-0.04484598068147898,0.06270984641313553
1772896009473275400,2.064275390625,0.4254162003576755,-0.034767654259502886,0.05162614234089851
1772896009483243500,2.074243408203125,0.38489889653027054,-0.19118541967868805,-0.23151523810997604
1772896009493212400,2.08421240234375,-0.0026648352950811383,-0.1218460721231997,-0.04071165735572576
1772896009503180500,2.0941806640625,-0.30608371849060056,0.02414002339169383,0.17286825722157953
1772896009513148700,2.104148681640625,-0.19469605814814567,0.12462108979448676,0.16922887780591844
1772896009523117600,2.11411767578125,-0.05915712236762046,0.10418722744435072,0.09560688449516892
1772896009533085400,2.12408544921875,0.006163783326745033,-0.10045374000445008,0.025763094548881052
1772896009543053300,2.13405322265625,0.13259060736894607,-0.22148089696019888,-0.11227028839588164
1772896009553022500,2.1440224609375,0.19415479087829587,0.06587561696767806,-0.11124299117475747
1772896009562990300,2.153990234375,0.10579495490193366,0.21364494263753295,0.07507277664095163
1772896009572958500,2.16395849609375,0.19988135183155537,0.12814970231205225,0.4355240451350808
1772896009582927400,2.17392724609375,0.45232174293994903,0.018102350662648675,0.4257692515790462
1772896009592895500,2.1838955078125,0.5048451263815165,0.0279351778909564,0.2658203894242644
1772896009602863600,2.193863525390625,0.30296938586235045,0.05568725429996848,0.11302212967649101
1772896009612831200,2.203831298828125,-0.02755611544549465,0.032912820173054934,0.24649288088083265
1772896009622800400,2.21380029296875,-0.2833329575002193,-0.0056336219727993,0.16647577970549463
1772896009632768500,2.2237685546875,-0.3625146307647228,0.022522066801041362,-0.21424977666288614
1772896009642736400,2.233736328125,-0.3090764705657959,0.12020151978656649,-0.5940504732713103
1772896009652705500,2.24370556640625,-0.27129297561645505,-0.2099621624715626,-0.10140490324944257
1772896009662673400,2.25367333984375,0.10948387254774569,-0.24405264812186359,0.408854064874351
1772896009672641500,2.2636416015625,0.3355892144382,0.1809277911670506,0.24397753705903885
1772896009682610400,2.2736103515625,-0.057386021041870114,0.40326954274028537,0.5438986412666738
1772896009692578600,2.28357861328125,-0.21217267812788485,0.5160689695768058,0.39883609033748507
1772896009702546400,2.29354638671875,-0.07340951960384845,-0.17724807974100112,-0.22200331339910626
1772896009712515300,2.303515380859375,-0.5372492663800716,-0.31972178322076794,-0.1639966762408614
1772896009722483500,2.3134833984375,-1.03783848888278,0.2536702251642942,0.03326937852576375
1772896009732451300,2.323451416015625,-0.8618705120801925,0.2212212231107056,0.13849822397753594
1772896009742420500,2.33342041015625,-0.23168226523995397,0.22971476455926892,0.13870558311790226
1772896009752388400,2.343388427734375,0.07540858446657657,0.22702640225812792,0.10647183125019073
1772896009762356500,2.3533564453125,0.14111293652057647,0.16994170225039124,-0.06714549077302218
1772896009772325600,2.36332568359375,0.0858726953357458,-0.08481836397722363,0.05334726704508066
1772896009782293500,2.37329345703125,0.3472825748413801,-0.05434226943179965,-0.18052578623741863
1772896009792261400,2.383261474609375,0.7338485278010368,0.22766075463891028,-0.6610862200595438
1772896009802229500,2.3932294921875,1.2703987060010433,-0.2424886136755347,-0.7682073089987039
1772896009812198400,2.403198486328125,1.1278127743184565,-0.2636202490314841,-0.29330431641638277
1772896009822166500,2.41316650390625,0.4803904840826988,0.6266608033664525,0.036508506577461956
1772896009832134400,2.423134521484375,0.9567875146150588,0.5897521915555,-0.19449439809620378
1772896009842103600,2.433103515625,1.44071727873981,0.5902928743034601,-0.06823197083547711
1772896009852071400,2.443071533203125,1.0685369940072298,0.7187021043345332,-0.2126664529941976
1772896009862039300,2.453039306640625,0.8770335944205522,0.7025324753001332,-0.2996389262653887
1772896009872008400,2.463008544921875,1.4687334129124878,0.8499629244044422,-0.013879472270607948
1772896009881976300,2.472976318359375,3.0949259169906376,2.1359791785150763,-1.9050442245110868
1772896009891944400,2.4829443359375,3.3308383671462534,1.565883289065957,-0.9437019692011177
1772896009901913300,2.492913330078125,3.8401141694515943,-0.4432499632120132,1.3787104660294949
1772896009911881500,2.502881591796875,4.515139336884022,-0.7884384883835911,2.707163155461848
1772896009921849600,2.512849609375,3.7723183980762958,0.20183745433539152,2.305249557375163
1772896009931818500,2.522818603515625,3.080200641545653,0.43157501524835823,0.8931516393981873
1772896009941786600,2.53278662109375,2.8556407755315303,0.4789361936211586,-0.19418109436333178
1772896009951754200,2.542754150390625,2.756603478196263,0.043785950234532356,-1.469292508099973
1772896009961723400,2.552723388671875,2.0653402926683424,-0.471152700138092,-1.7858143262356518
1772896009971691300,2.562691162109375,1.4285861114412546,-0.19812632485777137,-2.064687089456618
1772896009981659400,2.572659423828125,1.161615090677142,0.33175153597146273,-2.9404966950401663
1772896009991627500,2.58262744140625,0.9334609995633363,0.4105696366205811,-3.5400431353792547
1772896010001596400,2.592596435546875,1.1505991911441087,0.2210018812716007,-3.2253906182467937
1772896010011564500,2.602564453125,1.7825158692121505,-0.21793781752586364,-1.79550657594949
1772896010021532400,2.612532470703125,1.501104235163331,0.6125435768172145,0.17098463543206452
1772896010031501600,2.62250146484375,1.4241466676890848,1.0044354009747505,1.6298822985067962
1772896010041469400,2.632469482421875,0.7897375882834196,0.8755304963812232,1.7006418881237506
1772896010051437300,2.642437255859375,-0.07779401829838753,0.7761299186915159,1.8479092556208372
1772896010061406500,2.652406494140625,-0.4393418498575687,0.8564838506057858,0.8791188762620091
1772896010071374300,2.662374267578125,-0.9381956268697976,0.8102199659503996,-0.4122396156594157
1772896010081342500,2.672342529296875,-0.8638824364244937,0.34663682428374887,-1.0553455040007829
1772896010091311400,2.682311279296875,-0.5471317779690027,0.18292539472505448,-1.7466279787510632
1772896010101279500,2.692279541015625,-0.14564531925320626,0.25948314922675486,-2.297535768127441
1772896010111247600,2.70224755859375,-0.1768091038018465,-0.07421484463736415,-1.6892846278071403
1772896010121216500,2.712216552734375,0.05996843875050544,-0.05435308308675885,-0.37047143498808144
1772896010131184600,2.7221845703125,0.5249374818176031,0.4046099975638091,0.36530922991931436
1772896010141152300,2.73215234375,0.3514817800968885,0.8198356432966888,0.7822256052181125
1772896010151120400,2.742120361328125,-0.5328747045576572,0.5548455672167242,1.3147463817715643
1772896010161089500,2.752089599609375,-0.3903425488889217,1.1100948929287493,1.7232883119568227
1772896010171057400,2.762057373046875,-0.3166565504312515,1.5446031851500273,1.3042121282756327
1772896010181025500,2.772025634765625,0.6217845756322146,1.5267093626715242,1.6151432867974043
1772896010190994400,2.781994384765625,3.222000975808501,0.5135644394099712,2.143825800362229
1772896010200962600,2.791962646484375,5.341804095548391,-1.1859056284554301,0.5342629440456629
1772896010210930700,2.8019306640625,3.8694162517815824,-0.6725032477393746,0.29583412715494634
1772896010220899600,2.811899658203125,0.6280138254106045,1.1302864709556102,1.748375699201226
1772896010230867500,2.821867431640625,1.67787125338912,2.1108795163109897,2.553013334974646
1772896010240835300,2.83183544921875,3.1099691723436114,1.8926951766781508,3.0215999840170142
1772896010250804500,2.841804443359375,2.605363699936867,1.8072155723132193,2.813682625246048
1772896010260772400,2.8517724609375,3.073331924819946,2.1315964333862065,2.9072435369968415
1772896010270740500,2.861740478515625,4.438088830429315,2.215792719942331,3.6780467077076433
1772896010280709600,2.871709716796875,5.335941925516725,2.6031232275336977,4.050786379888653
1772896010290677500,2.881677490234375,4.957049575924873,2.3405241382434965,3.910359672066569
1772896010300645600,2.891645751953125,4.08242421168983,2.3463163117788732,2.650454887551069
1772896010310614500,2.901614501953125,4.155891598960757,2.529270348076522,2.1653163321584463
1772896010320582400,2.91158251953125,4.98872364808321,2.5591417547270656,2.4645786801964045
1772896010330550500,2.921550537109375,5.391107932421565,3.1627649429857727,2.644014040848613
1772896010340518400,2.931518310546875,4.80524398047626,2.9667347136244175,3.862404911714792
1772896010350487600,2.941487548828125,3.190333041130006,3.855692262333631,2.888773229804635
1772896010360455400,2.951455322265625,1.88498986299783,4.128462324765325,2.7036013713270424
1772896010370423600,2.961423583984375,1.5173247176021336,4.099022587530315,2.3533903418183324
1772896010380392400,2.971392333984375,1.419151928141713,3.463647877962887,1.1718787105381487
1772896010390360600,2.981360595703125,-0.5219587582677603,2.9799145131930707,-1.1995277649641036
1772896010400328400,2.991328369140625,-2.8228865069210527,3.351856020733714,-3.316756650301814
1772896010410297300,3.00129736328125,-2.8373534236907956,2.5373551625937223,-4.120959401789308
1772896010420265500,3.011265380859375,-2.4686624423786996,2.8391034822285173,-5.208116925114393
1772896010430233600,3.021233642578125,-3.964446943823993,2.3175135572731493,-5.950608193576335
1772896010440202500,3.031202392578125,-5.586541657194495,1.4544383455783128,-8.196721817502379
1772896010450170600,3.041170654296875,-5.221743299406767,0.2739734468720853,-11.691990283870696
1772896010460138500,3.051138427734375,-2.2702166763082143,-0.5006453366041184,-11.424050125813483
1772896010470107600,3.061107666015625,-2.8751278585508464,-0.2877452209845185,-10.204801761335133
1772896010480075500,3.071075439453125,-7.085464456665515,0.25921090815663334,-10.902876380443573
1772896010490043400,3.08104345703125,-11.003741477727889,-0.7853810005091131,-12.621281888794899
1772896010500011500,3.091011474609375,-10.44623385169506,-1.5725408472590148,-12.37188977934122
1772896010509980400,3.10098046875,-7.303495213171839,-1.3804434273019432,-10.537784008145332
1772896010519948500,3.110948486328125,-5.20185669567585,-1.2028884735688568,-8.640458102926612
1772896010529916400,3.12091650390625,-4.313271195149421,-1.4413416942484676,-8.026681477183104
1772896010539885600,3.130885498046875,-3.039883244204521,-1.757799653367698,-8.604948398128151
1772896010549853400,3.140853515625,-0.6578069061279297,-1.7654576207749544,-8.026267051163316
1772896010559821600,3.150821533203125,0.5190023926801979,-1.2950365959122776,-6.472198703053594
1772896010569790700,3.160790771484375,-0.8509316233061254,-0.9476938153162598,-4.965984577530622
1772896010579758300,3.17075830078125,-2.5755522067800163,-0.4367148623548448,-3.1549720971524713
1772896010589726500,3.1807265625,-3.3948429295450446,0.12636661828756332,-1.2567349223077295
1772896010599695400,3.1906953125,-2.944320344981551,0.1842006753578782,0.856543179577589
1772896010609663500,3.20066357421875,-1.838010815810412,0.49025721358060836,1.338393214818835
1772896010619631600,3.210631591796875,-1.22864747646451,-0.2129385479338467,2.066789906954765
1772896010629600500,3.2206005859375,-0.8756476930201053,-0.9382349359668791,1.7411504241228102
1772896010639568600,3.230568603515625,0.7227654082506895,-1.3825272478386759,2.1496219194203614
1772896010649536300,3.240536376953125,2.490593995940685,-1.4632393455408512,2.9810844337552784
1772896010659505700,3.250505615234375,2.320549710098654,-1.4822941746227443,3.4110534751117227
1772896010669473500,3.2604736328125,0.8048096313394606,-0.9036981678538024,4.567074691304565
1772896010679441400,3.27044140625,-0.06394231081753969,-0.6520356292501092,6.823388222205638
1772896010689409500,3.280409423828125,0.379912924811244,-0.9996382298260926,7.964632725027203
1772896010699378400,3.29037841796875,2.4410208406068383,-1.923811468823254,6.938216378390789
1772896010709346600,3.3003466796875,4.892902390184998,-2.6918688479572532,5.913789744266867
1772896010719314700,3.310314697265625,6.276396144968271,-3.21707930149734,6.156631701424717
1772896010729283600,3.32028369140625,6.290571385315061,-3.3010388566881415,6.2224956279546015
1772896010739251500,3.33025146484375,5.283937597513199,-3.269864550745487,6.538814324733615
1772896010749219300,3.34021923828125,3.3137411018729206,-3.0109973414599893,7.659990437516569
1772896010759188500,3.3501884765625,1.8438304618746042,-2.5770862844794986,8.649314194077252
1772896010769156400,3.36015625,0.7083728718914091,-2.620993230745196,9.587053309351205
1772896010779124500,3.37012451171875,0.39577494920119644,-3.057913990935683,9.317951121777295
1772896010789093400,3.38009326171875,0.9046801646284759,-3.771663149037957,7.432947522515058
1772896010799061500,3.3900615234375,1.9471587344020604,-3.914485227563977,7.435318927821516
1772896010809029600,3.400029541015625,2.360843580433726,-3.2786306255251167,8.681669818758964
1772896010818998500,3.40999853515625,2.0135960769057273,-2.9067884867057203,9.692186000952123
1772896010828966400,3.41996630859375,1.5610418403841555,-2.695328925283253,9.728032390359044
1772896010838934500,3.4299345703125,1.2713164053678512,-2.498526542505622,10.052160884106158
1772896010848902400,3.43990234375,1.253016340176016,-2.648025322316587,9.789924490648508
1772896010858871600,3.44987158203125,1.9301174370996652,-2.528937170599401,9.115628806534408
1772896010868839400,3.45983935546875,2.0444114864081144,-2.083073225496709,7.340169870096445
1772896010878807600,3.4698076171875,-0.10270794867202639,-0.4611977078348398,1.6059586943447588
1772896010888776400,3.4797763671875,-3.8713112717479463,3.3519629882395265,-6.017957390227913
1772896010898744600,3.48974462890625,-9.491471120905876,8.3799764441818,-15.321859528386591
1772896010908712400,3.49971240234375,-16.68723836528659,10.641538981652259,-30.122596749329563
1772896010918681300,3.509681396484375,-19.835553927159307,7.869443335291743,-51.30878436419964
1772896010928649500,3.5196494140625,-13.294127374100684,1.542519218482822,-67.89556562848091
1772896010938617300,3.529617431640625,-3.313084099268913,-4.143201628735661,-69.21841815981864
1772896010948586500,3.53958642578125,1.3848252956479787,-3.673573069424927,-67.36718122107982
1772896010958554600,3.5495546875,0.7338397599726915,3.2983345661655066,-53.415008455920216
1772896010968522500,3.5595224609375,-4.016891416810453,8.50532424081564,-34.27438558914661
1772896010978490600,3.56949072265625,-9.891724822956323,10.200903000330925,-21.07773776154518
1772896010988459500,3.57945947265625,-11.36668982373476,9.483377830821276,-9.603484219670294
1772896010998427400,3.589427490234375,-9.062667616197466,8.33171071818471,-0.2872802338212728
1772896011008395500,3.5993955078125,-2.445619420443475,6.884941299799085,4.426257522860169
1772896011018364400,3.609364501953125,5.910047050607204,4.9400849971205,6.48460693372786
1772896011028332500,3.61933251953125,9.713563135501742,4.3393744814381,9.97657051333189
1772896011038300400,3.629300537109375,9.643767130219937,4.491637173004448,14.3224252967
1772896011048269600,3.63926953125,7.4650120552957056,3.971166899728775,17.058525500571726
1772896011058237400,3.649237548828125,5.312503766784071,3.2099820367127654,18.053324473673104
1772896011068205600,3.65920556640625,4.990322315451502,3.3404519986659285,18.866089301800727
1772896011078174500,3.669174560546875,4.781698854237795,3.6030788527458903,19.130772503888608
1772896011088142600,3.679142578125,4.870433661006391,3.8734617277801036,18.407001133465766
1772896011098110700,3.68911083984375,5.04140952861011,4.1384336836814875,17.766731053072213
1772896011108079600,3.69907958984375,5.24493771251142,4.489534355506301,17.49772472708821
1772896011118047700,3.7090478515625,5.1151510566473,4.3051893032416695,16.48327880423069
1772896011128016000,3.719015869140625,4.275874653691053,3.231514361824095,13.922228877794742
1772896011137984800,3.72898486328125,3.7527883526980874,1.949433839727193,10.840984864675997
1772896011147953000,3.738952880859375,2.928902411097288,0.6584361439421773,8.021827022889257
1772896011157920800,3.748920654296875,1.8344198055811225,-0.08465762045755981,6.498869852358102
1772896011167888600,3.758888671875,0.6813368347972631,-0.4768468931917101,6.274893923711776
1772896011177857500,3.768857421875,0.24169044903516768,-0.4685955264685675,6.271484407529234
1772896011187825700,3.77882568359375,0.10759192132130264,-0.4255929086314514,6.114594640684127
1772896011197793800,3.788793701171875,-0.3464430552773177,-0.5492744525535032,6.426843311545253
1772896011207762700,3.7987626953125,-0.8382410685591399,-0.8203416931226849,6.366580273762345
1772896011217730800,3.808730712890625,-0.6564477466039359,-0.9940222165752202,6.304719153133035
1772896011227698700,3.81869873046875,-0.42641997057273984,-0.8776810985438526,6.2993368755728
1772896011237667800,3.828667724609375,-0.12080562315955758,-1.0081805788524447,6.781597829702496
1772896011247636000,3.838635986328125,0.3622118484258652,-0.9873905965410172,7.290694768309593
1772896011257603600,3.848603515625,0.7686049300141632,-0.9471450223270803,7.7320888745218515
1772896011267572700,3.85857275390625,1.130118274781853,-0.6197109842285513,8.024081523817777
1772896011277540600,3.86854052734375,1.4527145905256271,-0.16402829522183163,8.681924670302868
1772896011287508700,3.8785087890625,1.5532687221646309,0.16374549622507764,9.238422242510318
1772896011297477600,3.8884775390625,1.3945762898117302,0.5238618884753435,9.787202372208236
1772896011307445800,3.89844580078125,1.1638953836340455,0.7352551066633314,10.690331361871957
1772896011317414000,3.908413818359375,1.0226176119405777,0.614228461164236,10.93669214080572
1772896011327382800,3.9183828125,1.113146681714803,0.5328618816087022,10.589047746914625
1772896011337351000,3.928350830078125,1.1930794656075536,0.13891495155226438,9.876182385909557
1772896011347318500,3.938318603515625,1.4644798471212386,-0.10285218858146108,9.2606855122447
1772896011357286700,3.94828662109375,1.9535690398357808,-0.17286343491598963,9.437568850326537
1772896011367255800,3.958255859375,2.301205396550894,-0.04371049211183563,9.756401575753092
1772896011377223700,3.9682236328125,2.3775370872117576,-0.07687419090657495,9.97071126590967
1772896011387191800,3.97819189453125,2.096587663847208,-0.28146179333347826,9.694564420521258
1772896011397160700,3.98816064453125,1.7822803068906068,-0.5372566459689289,9.801115746748447
1772896011407128800,3.99812890625,1.6688193474054336,-0.5169034476395696,10.153217704570293
1772896011417097000,4.008096923828125,1.6025047544986009,-0.48925607371404767,10.561259576278925
1772896011427065900,4.01806591796875,1.5712527071446178,-0.566616121041961,10.719984157335757
1772896011437033700,4.02803369140625,1.322410632789135,-0.89313731861189,10.267746585547924
1772896011447001600,4.038001708984375,1.1532329737138003,-1.22520610383898,10.176593903982639
1772896011456970800,4.047970703125,0.9734148242890834,-1.4625021173074841,10.345080000597237
1772896011466938600,4.057938720703125,1.1119055956125259,-1.3521429232299327,11.111501595222949
1772896011476906800,4.06790673828125,1.3724421994149685,-1.1174155912056565,11.849652204132079
1772896011486875600,4.077875732421875,1.8130828569114208,-0.9494642590548843,11.967365560364723
1772896011496843800,4.08784375,2.3897411736160517,-0.8619371475756168,11.764487364804744
1772896011506811600,4.097811767578125,2.5364894856750966,-1.0836538991183042,11.264217291253804
1772896011516780800,4.10778076171875,2.7852368674844503,-1.450728092883527,9.916257206666469
1772896011526748700,4.117748779296875,2.9712282256513833,-1.9506386854723095,7.435086872631311
1772896011536716800,4.127716796875,2.635779296466708,-1.3755027560293673,2.9462288089513775
1772896011546684700,4.1376845703125,0.8963532849837094,1.9057462353006005,-3.873268251034617
1772896011556653800,4.14765380859375,-2.606241651815176,8.190926282966137,-14.01175425041914
1772896011566621700,4.15762158203125,-7.570510073077679,10.252806206047534,-24.441284804594517
1772896011576589800,4.16758984375,-11.843824520891904,4.399747993858158,-37.199080611681936
1772896011586558700,4.177558837890625,-14.146719185703992,-2.7266327028244732,-52.49762239284515
1772896011596526600,4.187526611328125,-14.729362422037124,-4.333876468543708,-66.28633010442256
1772896011606494700,4.19749462890625,-11.027526842463017,-4.646850238808989,-68.98936039786338
1772896011616463600,4.207463623046875,-5.508347241401672,-1.876472648412734,-65.18530596830844
1772896011626431700,4.217431640625,-1.1272335131257771,2.0070015009462834,-56.97540142862796
1772896011636399900,4.22739990234375,1.9048666759870945,3.208847479724884,-47.76845685892105
1772896011646368800,4.23736865234375,1.08181981555894,5.040576584917306,-38.694628966283794
1772896011656337000,4.2473369140625,-1.17733624529168,5.464254417175054,-27.451754907310008
1772896011666304800,4.2573046875,-3.244983207467198,5.127108620944619,-18.052130879974364
1772896011676274000,4.26727392578125,-3.7840456607490776,4.394878634256124,-11.629392665660381
1772896011686241500,4.277241455078125,-3.3849954892694947,3.5253751430794593,-6.717618401744962
1772896011696209700,4.287209716796875,-2.1736019299447533,3.0296576182663437,-1.7378233255267141
1772896011706178600,4.297178466796875,-0.8439122460633516,2.26311035143435,4.163503827530145
1772896011716146700,4.307146728515625,0.71802727381289,1.2159943311184644,8.896403287285565
1772896011726114800,4.31711474609375,2.2382180483706295,0.32840120263025163,11.669351751083134
1772896011736082700,4.327082763671875,3.1498090153008698,0.305833981513232,14.028645763987303
1772896011746051800,4.3370517578125,4.102011540213227,1.1144667513374238,16.347520088219643
1772896011756019700,4.347019775390625,4.49479622155726,2.259811309888959,18.045058165109157
1772896011765987600,4.356987548828125,4.347358758190274,3.5855811899781225,19.311680859702825
1772896011775956700,4.366956787109375,3.7379280526965855,4.474545460689067,20.89815627042055
1772896011785924600,4.376924560546875,2.9534938315182924,5.011956639632582,21.739093884587287
1772896011795892700,4.386892822265625,2.0106017173953354,4.780744329991936,20.567555365788934
1772896011805861600,4.396861572265625,1.5820260300934315,4.033915616847574,17.716968366515637
1772896011815829800,4.406829833984375,1.8393718750305472,3.0882100527390834,14.660132818466424
1772896011825798000,4.4167978515625,2.362920532838255,2.0023235722631214,11.845948673439025
1772896011835766800,4.426766845703125,2.743251829192042,0.8664723067872225,9.028096653553844
1772896011845735000,4.43673486328125,2.8844752403497695,-0.17212050759419797,6.595475538632273
1772896011855702500,4.44670263671875,2.816784098392725,-0.545241689906083,5.487933398926258
1772896011865671700,4.456671630859375,2.567788294780254,-0.5076919671799988,5.439928369691968
1772896011875639600,4.4666396484375,2.2152257337093353,-0.44047012323513623,5.970005552485585
1772896011885607700,4.476607666015625,1.5536223579078912,-0.32890104191116987,6.57446314574182
1772896011895576800,4.486576904296875,1.0573328784257172,-0.32779859709460285,6.722236709195375
1772896011905544700,4.496544677734375,0.9289264248736202,-0.3706261140931397,6.465571393868327
1772896011915512800,4.506512939453125,1.0513437210135161,-0.5171916534638032,6.1454521357625715
1772896011925481700,4.516481689453125,1.168751664558798,-0.4698621123382821,6.182502640262245
1772896011935449900,4.526449951171875,1.1897311780929565,-0.21721761349253355,7.029443294236064
1772896011945417700,4.536417724609375,1.0034576419837773,0.1420541994260624,8.165148867630958
1772896011955385600,4.546385498046875,0.5936813476979732,0.5742028133112936,9.030202685922383
1772896011965354800,4.556354736328125,0.20036928147897123,0.7246434770822524,9.56369639916122
1772896011975322600,4.566322509765625,0.006592091741412878,0.7094285914894193,9.45483270433843
1772896011985290800,4.576290771484375,0.055445408368110655,0.6597564327605069,9.46044820613265
1772896011995259600,4.586259765625,0.3116805155843496,0.5885728455778211,9.7645001265347
1772896012005227800,4.596227783203125,0.5275381658352911,0.3833232447113842,9.706543027606607
1772896012015196000,4.60619580078125,0.6837229262161999,0.10448869460895657,9.194493084412812
1772896012025164800,4.616164794921875,1.0472498758286237,-0.08061901259124278,9.085351157170534
1772896012035132700,4.626132568359375,1.5377362219899893,0.023605989580228925,9.551942833003402
1772896012045100800,4.636100830078125,1.9119266775012016,0.1706098838355392,10.104255813002586
1772896012055069700,4.646069580078125,1.8371154744058846,0.27889249083474277,10.518761327767372
1772896012065037800,4.656037841796875,1.487744987374544,0.2276778519041836,10.664396125626563
1772896012075005700,4.666005615234375,1.2206108850032091,-0.04909779290705919,10.260054277479648
1772896012084974800,4.675974853515625,1.1160188761502503,-0.45800694896951316,9.610004561349749
1772896012094942700,4.685942626953125,1.1883155391413718,-0.6973075802586972,9.258350347295403
1772896012104910600,4.69591064453125,1.2176018393803387,-0.8407567046418786,9.253314106693864
1772896012114879500,4.70587939453125,1.0589497390378266,-0.8736642641179263,9.410980703130363
1772896012124847600,4.71584765625,0.9301994404841214,-0.9269729527182876,9.624096215066313
1772896012134815700,4.725815673828125,0.8431290597964077,-1.0749140547584741,9.680333066073059
1772896012144784600,4.73578466796875,0.8882119179736823,-1.0976397543728351,9.809629892593621
1772896012154752800,4.745752685546875,1.0808983898650855,-1.1015668646886945,10.093439819955826
1772896012164721000,4.755720947265625,1.473088100990653,-1.0690990118041634,10.506238530802726
1772896012174689800,4.765689697265625,1.4455799163401126,-1.0697978077232837,10.534721113443373
1772896012184658000,4.775657958984375,1.4293489125072956,-1.1325431638412178,10.072547838574648
1772896012194625500,4.78562548828125,1.5055600455284117,-1.4268623563885687,9.301177681630849
1772896012204593700,4.79559375,1.6321815153598784,-1.42675743470937,7.227108723583817
1772896012214562600,4.8055625,1.4284370583593844,-0.05452880497984588,1.6050982781231402
1772896012224530700,4.81553076171875,0.03418408221788704,4.864419515283405,-9.050542878639698
1772896012234498800,4.825498779296875,-2.7809008841067553,11.511590462100505,-22.973110779130458
1772896012244467700,4.8354677734375,-6.392649365520477,9.76940426518917,-34.87266478602886
1772896012254435800,4.845435791015625,-10.793996319007872,-0.17681093043275176,-46.426202877020835
1772896012264403500,4.855403564453125,-15.335194810777901,-4.547250631415844,-61.11666887443065
1772896012274372600,4.86537255859375,-16.027743359941244,-3.681856036862731,-69.03505598111153
1772896012284340700,4.8753408203125,-11.259331857299804,-3.071744947889447,-66.00503011405468
1772896012294308600,4.88530859375,-7.074014257368445,1.252858957657218,-55.89551828022003
1772896012304277800,4.89527783203125,-4.848524319276214,3.4799756201684473,-44.920521250939366
1772896012314245600,4.90524560546875,-3.159665223404765,3.4350568665117023,-36.244460504233835
1772896012324213800,4.9152138671875,-1.3395090671062468,2.0653379545807837,-27.906604122900962
1772896012334182700,4.9251826171875,0.2578805363357067,1.5614692720159888,-19.24141782143116
1772896012344150800,4.93515087890625,2.0881385460622606,2.3643163711108266,-11.965513795018195
1772896012354118700,4.94511865234375,3.800684076339006,2.8603438386559485,-6.480311282360553
1772896012364087600,4.955087646484375,4.437518337064981,2.761893109036982,-0.9797650700986384
1772896012374055700,4.9650556640625,4.129458350065351,2.2197741907939315,4.682278695064783
1772896012384023600,4.9750234375,3.8908267040789126,1.498028773240745,9.688807464429736
1772896012393991700,4.98499169921875,3.825302969288826,1.331860305918753,13.527007909214495
1772896012403960800,4.9949609375,4.175346825537085,1.631195719192922,16.011964776051045
1772896012413928700,5.0049287109375,4.828080081662535,2.2886788001939653,17.93372778791189
1772896012423896800,5.014896728515625,5.1958144929021595,2.9463743549019097,19.359704009115696
1772896012433865700,5.02486572265625,5.0288352937191725,3.661562605896592,19.843805038154123
1772896012443833600,5.03483349609375,4.476951645047962,4.247203562740982,20.283529165327547
1772896012453801700,5.0448017578125,3.6526188364624974,4.431053524965048,20.320141278409956
1772896012463770600,5.0547705078125,2.8879157361924648,3.8421389532774683,18.926596669733524
1772896012473738800,5.06473876953125,2.727792978775501,2.7680729667156934,16.16593251796961
1772896012483706600,5.07470654296875,3.026495939365029,1.4739726287402213,12.968791842651367
1772896012493675800,5.08467578125,3.6377491841107603,0.1441857863609679,9.852904386174679
1772896012503643600,5.0946435546875,3.973331968808174,-1.229464784196764,6.93862437466979
1772896012513611800,5.10461181640625,4.005913803461194,-1.894973643004149,5.671592514753342
1772896012523580700,5.11458056640625,3.606134148663282,-1.8195029530867932,6.154845987051725
1772896012533548500,5.124548583984375,2.5615853484869002,-1.5627093352049588,7.075354566061496
1772896012543516700,5.1345166015625,1.2283886793978511,-1.3644720973186195,7.4269889063715935
1772896012553485600,5.144485595703125,0.21658830261304973,-1.348658295984566,7.46166508295536
1772896012563453700,5.15445361328125,-0.06574176145493983,-1.4469080962039529,6.941807096359133
1772896012573421800,5.164421875,0.458914565333724,-1.7645619871094822,6.209226396536827
1772896012583390700,5.174390625,1.1847602578125893,-2.049477976017445,5.762281670460105
1772896012593358800,5.18435888671875,1.6400136702902615,-2.086221752655506,6.110047060382366
1772896012603326700,5.19432666015625,1.660053272625804,-2.0639353943064807,6.805571410486102
1772896012613295900,5.2042958984375,1.4658197174228726,-2.033377612826973,7.517387554699182
1772896012623263500,5.214263427734375,1.2368000955209135,-1.8412215945504604,8.004002612385154
1772896012633231600,5.224231689453125,1.0151982025295496,-1.539883170890808,8.575395555907487
1772896012643199700,5.23419970703125,0.9030138388514518,-1.335771341882646,9.149431707414983
1772896012653168600,5.244168701171875,1.0168130903802812,-1.2523729277059434,9.398113622772692
1772896012663136800,5.25413671875,1.0521358943045138,-1.4065394070670008,8.976748159110546
1772896012673104600,5.264104736328125,0.9342067033641039,-1.6768964170075953,8.482620826098323
1772896012683073800,5.27407373046875,0.8165788334578276,-1.7629077901616692,8.369578968808055
1772896012693042000,5.2840419921875,0.9985890130341052,-1.6017334778651595,8.713845995220542
1772896012703009500,5.294009521484375,1.2366237160407005,-1.345353993742168,9.305562764847277
1772896012712978700,5.303978759765625,1.2773626997947691,-1.105042870236188,9.650257661283016
1772896012722946600,5.313946533203125,1.1945295182853937,-0.9262195770677178,9.891777429926394
1772896012732914700,5.323914794921875,1.1072767667680978,-0.7590535500757396,10.155429535400867
1772896012742883600,5.333883544921875,1.2195325151819736,-0.533431242461875,10.523286696237324
1772896012752851700,5.343851806640625,1.2724796039283275,-0.3668653002548963,11.068653802621364
1772896012762819800,5.35381982421875,1.192627703252062,-0.500770680016838,11.144791285884379
1772896012772788700,5.363788818359375,0.9568431903250515,-0.9649282971031963,10.627776998281478
1772896012782756900,5.3737568359375,0.9574620528757571,-1.4868534453622997,10.13457145628929
1772896012792724700,5.383724853515625,1.335216484478861,-1.7261453088231384,9.988962377393245
1772896012802693600,5.393693603515625,1.7920418224483727,-1.6085959109805523,10.609231287765502
1772896012812661800,5.403661865234375,2.105273074606061,-1.237742198676616,11.288370904779434
1772896012822629600,5.413629638671875,2.192081589487195,-1.1456969521857798,11.607999164497851
1772896012832598800,5.423598876953125,1.897423520374298,-1.53311396901682,10.833285542345047
1772896012842566700,5.433566650390625,1.3147620177321135,-2.116468860750645,8.166018636202812
1772896012852534800,5.44353466796875,0.5057428058736027,-2.381262099084258,4.065523345771432
1772896012862503700,5.453503662109375,-1.1277052222907542,-0.09573032821174711,-4.0967759776473045
1772896012872471800,5.463471923828125,-4.580148692411184,5.103908947142958,-18.471155917990206
1772896012882439700,5.473439697265625,-8.204175056117773,7.530150590160488,-33.891939930987355
1772896012892408600,5.48340869140625,-10.944515381777286,2.4550240853875875,-44.63094443061352
1772896012902376700,5.493376708984375,-12.417854242658615,-2.574402159962058,-53.93427432184219
1772896012912344600,5.503344482421875,-13.13745914105177,-0.7950417591061443,-64.76585773644447
1772896012922312700,5.513312744140625,-10.417451993846893,1.6409858763232825,-66.30182694876194
1772896012932281900,5.52328173828125,-5.861796522179246,3.4004385575950145,-56.2855861038208
1772896012942249700,5.533249755859375,-5.651329478925466,4.871178634154797,-45.65314228277206
1772896012952217600,5.543217529296875,-8.14142078604102,5.018748199468851,-37.50103994371891
1772896012962186800,5.553186767578125,-7.838192456981539,4.003662517403066,-29.039835415136814
1772896012972154600,5.563154541015625,-4.154167259386181,3.2506165371790527,-20.20683989340067
1772896012982122800,5.573122802734375,0.9139595957577228,3.2515710614249107,-13.304991297942399
1772896012992091600,5.583091552734375,5.034128723952174,3.630620062883198,-7.75995420204699
1772896013002059800,5.593059814453125,6.611048370817303,3.8470875155955553,-2.075209360253811
1772896013012027600,5.603027587890625,5.876100357341766,3.3737942962974308,2.571571320450306
1772896013021996800,5.612996826171875,4.275753073137999,2.0753946536928414,6.2118216737270355
1772896013031964700,5.622964599609375,2.8620968198031185,1.2270382877022028,9.270991802203655
1772896013041932500,5.6329326171875,2.169737801862508,0.8607483761824667,12.197145791375636
1772896013051901700,5.642901611328125,2.554842303967476,1.3653329519316553,14.365287117826938
1772896013061869600,5.65286962890625,2.962950226649642,1.7974015959158538,15.887765564930438
1772896013071837700,5.662837646484375,3.259254601664841,2.3259088990442454,16.657465158313514
1772896013081806600,5.672806640625,3.646295478659868,2.9204397031784057,17.446470340669155
1772896013091774700,5.682774658203125,3.5617028862625357,3.0952856902137396,17.955002046608925
1772896013101742800,5.692742919921875,3.0176106221199035,2.4816227539777755,16.726889992195368
1772896013111711700,5.702711669921875,2.2188842562168833,1.299744189081341,14.046269098961352
1772896013121680000,5.712679931640625,1.7704741337627172,0.1486036393358372,11.089117913979292
1772896013131647700,5.722647705078125,1.4457507428623735,-0.8837105879664421,9.158668322315812
1772896013141617000,5.732616943359375,1.4918946543999014,-1.554028162229806,7.599287254750728
1772896013151584500,5.74258447265625,1.437802998728305,-2.034981248631328,6.474240438014268
1772896013161552600,5.752552734375,1.3995495481796563,-2.2209113781303165,5.800315925300121
1772896013171524900,5.76252490234375,1.8690572575896978,-1.9245273620076477,6.091584351974725
1772896013181492700,5.77249267578125,2.1292655062206087,-1.4098910555824637,7.185596563500166
1772896013191460900,5.7824609375,1.9780035161294043,-0.9752898243807255,8.101386881816387
1772896013201429800,5.7924296875,1.7135669822789728,-0.7259075056686997,8.797746513700485
1772896013211397600,5.802397705078125,1.3375335292495787,-0.5505096569042652,9.116729461252689
1772896013221365800,5.81236572265625,1.060707323294878,-0.3383802333962172,9.320751566150784
1772896013231334700,5.822334716796875,1.064076653597504,-0.3095775884883478,9.247828953281044
1772896013241302800,5.832302734375,1.0977513980537652,-0.550315851365216,8.980380962654948
1772896013251270700,5.842270751953125,1.1881599832534788,-0.8305486874256283,8.54808435513377
1772896013261239800,5.85223974609375,1.3763070581495762,-1.02727778577134,8.575395555907487
1772896013271208000,5.8622080078125,1.7488306033618748,-0.9977107688948511,8.884044156450033
1772896013281175800,5.87217578125,2.0246822651959953,-0.8110903921093792,9.516797869864106
1772896013291143700,5.882143798828125,2.2523890509337186,-0.6066365447305142,10.23043187715411
1772896013301112600,5.892112548828125,2.2903933490268886,-0.4635577880296856,10.845077686947583
1772896013311080700,5.902080810546875,2.245284771886468,-0.42145789118595417,11.169473307198285
1772896013321048800,5.912048828125,2.1395085216850043,-0.4728388996593654,11.062630889070034
1772896013331017700,5.922017822265625,2.0629338160485027,-0.7382871678356081,10.91211182630062
1772896013340985900,5.93198583984375,1.8257342486917971,-1.239484804560244,10.21943000614643
1772896013350953700,5.94195361328125,1.4927153231330215,-1.7128239088267088,9.423020100492238
1772896013360923000,5.9519228515625,1.4185165528476238,-1.9182430210411547,9.235931010216474
1772896013370890500,5.961890380859375,1.2790708188869058,-1.9833432697221636,9.293374898925423
1772896013380858600,5.971858642578125,1.2318746218174694,-1.8697025697559118,9.501109302344918
1772896013390827800,5.981827880859375,1.185185351356864,-1.7322133766904473,9.815399123644829
1772896013400795600,5.991795654296875,1.217698650818318,-1.8145112822793423,9.842845933496951
1772896013410763800,6.001763671875,1.3859468470238148,-1.9651655157357453,9.615268765488267
1772896013420732700,6.011732666015625,1.6910580672204494,-2.1977700103871523,9.574577274137734
1772896013430700800,6.02170068359375,1.6845885789453983,-2.627778360840678,8.79040901041925
1772896013440669000,6.0316689453125,1.8258178353220222,-2.611935479542613,8.350766716310382
1772896013450637800,6.041637939453125,2.142117827400565,-2.093531491146982,9.607734278330206
1772896013460605700,6.051605712890625,2.3290555265069006,-1.4400199441254138,11.282616871297359
1772896013470573600,6.061573486328125,2.3624369871050117,-1.5804726631715893,10.98294418889284
1772896013480542700,6.071542724609375,2.5968781956642863,-1.9474413507357238,9.058619217589497
1772896013490510600,6.081510498046875,2.12151869148612,-2.0718143109880387,6.278455415585637
1772896013500478700,6.091478759765625,0.45717042508013545,-1.3280761112049222,-0.1796060410439968
1772896013510447600,6.101447509765625,-2.8057266978055235,2.4725422064214944,-13.231454937088488
1772896013520415700,6.111415771484375,-5.977900105127691,6.897944573757052,-31.01767979518175
1772896013530384000,6.1213837890625,-6.532674506804347,4.9716509327292435,-47.15144958069324
1772896013540352800,6.131352783203125,-5.5066497898340225,0.4713792023703456,-56.256233752608296
1772896013550320600,6.141320556640625,-7.1726453119903795,2.1564628713563083,-64.75245114238261
1772896013560288800,6.151288818359375,-7.951611330890655,5.4643198836266995,-68.49500451679229
1772896013570257700,6.161257568359375,-7.10608229728043,5.964307048583031,-57.761798474311824
1772896013580225800,6.171225830078125,-10.211671062582731,7.571675609725713,-42.037907128286356
1772896013590193700,6.181193603515625,-14.034846372193098,8.078549611586332,-32.10961110877991
1772896013600162800,6.191162841796875,-11.957566635406016,6.607033289957046,-25.60602884094715
1772896013610130700,6.201130615234375,-4.91031821988821,4.764460426928102,-18.776984784936904
1772896013620098800,6.211098876953125,2.458119128793478,3.8842280364662405,-11.78935526407957
1772896013630067700,6.221067626953125,7.08310649536252,2.6812638673126696,-7.59137633549571
1772896013640035600,6.23103564453125,8.583643159770965,1.4510541099674998,-3.59065834711194
1772896013650003700,6.241003662109375,6.309047537726164,0.6626433133084326,3.10066533742547
1772896013659972600,6.25097265625,2.6545214063376186,0.10506397374626249,9.414645070856809
1772896013669940700,6.260940673828125,1.4031221459694205,0.11859602081868797,13.609858041858672
1772896013679908900,6.270908935546875,0.6773508339010179,0.5570800117379054,16.606736841595172
1772896013689877800,6.280877685546875,1.474047447542101,0.8823312624372541,17.427541183793544
1772896013699846000,6.290845947265625,3.18255802321434,0.8351311198450625,17.110353887486458
1772896013709813800,6.300813720703125,4.588537750571966,0.7571287925582378,16.151937894886732
1772896013719783000,6.310782958984375,4.803347206944227,0.6561499327011406,15.33528950332403
1772896013729750500,6.32075048828125,4.0507811191916465,0.48002618081495163,14.562368025285005
1772896013739718700,6.33071875,2.984477583324909,0.13235021360865792,13.141436227989196
1772896013749686800,6.340686767578125,2.185300697175413,-0.34669955078903586,11.121277139306068
1772896013759655700,6.35065576171875,2.092152896270156,-0.8875221090786158,9.041931117638946
1772896013769623800,6.360623779296875,1.798176233550161,-1.4359066635876894,6.875900499731302
1772896013779591700,6.370591796875,1.7265270016171037,-2.0228211474992333,5.916428860598802
1772896013789560800,6.380560791015625,1.3895805273510515,-2.0755118503317234,5.644651900857687
1772896013799529000,6.390529052734375,0.7414052267909049,-1.8076305828548966,5.846715857425331
1772896013809496600,6.40049658203125,0.5444084904849529,-1.226806232511997,6.748087189766764
1772896013819465700,6.4104658203125,0.17739830186665057,-0.8517480542555451,7.76198716917932
1772896013829433600,6.42043359375,0.2528255910336971,-0.6820347539335488,8.060994665673375
1772896013839401700,6.430401611328125,0.6961772610545158,-0.6480500667452812,8.190334746813773
1772896013849370600,6.44037060546875,0.8272830366931855,-0.5944682237593457,8.493039344260096
1772896013859338800,6.4503388671875,0.9640696344472467,-0.5004047693138942,9.098279612326621
1772896013869307000,6.460306884765625,1.201336275690794,-0.4644647102741524,9.319829775130748
1772896013879275800,6.47027587890625,1.3313468034386633,-0.5896343007968738,9.030216129925847
1772896013889244000,6.480243896484375,1.4127986135922372,-0.7396169551346451,8.722869844153523
1772896013899211500,6.49021142578125,1.6738105798214673,-0.6366751246415078,8.879514111804962
1772896013909180700,6.5001806640625,1.862169251641631,-0.6326334480352699,9.729234751886128
1772896013919148800,6.510148681640625,1.754902616751939,-0.442133234141767,10.210803632098436
1772896013929116700,6.52011669921875,1.8970979416817426,-0.5142555269466713,10.278845487189292
1772896013939085800,6.5300859375,2.4531121142864225,-0.5724078196533025,10.170560469037294
1772896013949053700,6.5400537109375,2.6276082649707795,-0.7744762332003563,9.792742470678686
1772896013959021800,6.550021728515625,2.5150135669261218,-1.0982681154042482,8.900810582333802
1772896013968990700,6.55999072265625,2.3464859692573548,-1.1759907489668577,9.000435908690095
1772896013978958800,6.569958740234375,1.8994458199821411,-1.1060314428821205,10.047372480785846
1772896013988926700,6.5799267578125,1.147448618158698,-1.07053890841417,10.639292079508303
1772896013998895600,6.5898955078125,1.7692928150236606,-1.190260974120721,10.487073227083682
1772896014008863700,6.59986376953125,1.9631325486034155,-1.2549610445030033,10.598010805571079
1772896014018831600,6.60983154296875,2.220684437506646,-1.3884369102738796,10.265738168334961
1772896014028800800,6.61980078125,2.6937013240814207,-1.683872539630532,9.827713830816744
1772896014038769000,6.629768798828125,2.7814935893028974,-1.744949816405773,9.6552290199548
1772896014048736800,6.63973681640625,2.554192900148034,-1.8584262657210229,10.129912816828488
1772896014058706000,6.649705810546875,2.2966923030406234,-1.8807392198160289,10.896146195405722
1772896014068673800,6.659673828125,2.101203633210063,-1.8091607150316238,11.146647727406025
1772896014078641700,6.6696416015625,2.3910475800395012,-1.7562676214948296,11.664199775147438
1772896014088611000,6.679611083984375,2.809234413665533,-1.7543853148795663,12.017265025043487
1772896014098579200,6.6895791015625,3.2134961823135613,-2.0510843883007763,11.250486872065066
1772896014108547300,6.69954736328125,3.340041079777479,-2.4672099054828283,9.94764603214264
1772896014118516200,6.70951611328125,3.1922195855289694,-3.022917204095423,7.264784081983566
1772896014128484400,6.719484375,1.9703607462912798,-2.503520697531104,1.9736030892133711
1772896014138452200,6.7294521484375,-0.28743155192546543,1.1175870022498071,-7.134326979511976
1772896014148421400,6.73942138671875,-3.8580543152898548,7.1853972415357825,-22.973548001503943
1772896014158389000,6.749388916015625,-6.137731186121702,7.230216626471281,-40.975807473850246
1772896014168357000,6.759357177734375,-5.486287385284901,2.108848010483384,-53.663191774106025
1772896014178326000,6.769325927734375,-6.379407606631517,0.09418788454271852,-61.02556763079166
1772896014188294100,6.779294189453125,-8.776818876484036,2.6640181334793565,-66.66412296833991
1772896014198262300,6.78926220703125,-8.951435438677668,4.423317962276935,-65.39646800808906
1772896014208230100,6.799230224609375,-9.544089781415462,4.0420258580669755,-55.59575675048828
1772896014218199300,6.80919921875,-12.071341483145952,4.996801740598678,-43.44663761565685
1772896014228167200,6.819167236328125,-11.894722348958252,6.131228380098938,-30.58325845059156
1772896014238135000,6.829135009765625,-7.614981082966923,6.600726883289218,-19.466886618983743
1772896014248104200,6.839104248046875,-0.8672760974507778,6.088428518292307,-11.598410667419433
1772896014258072000,6.849072021484375,5.477109222573041,5.248724245312809,-5.770367946282029
1772896014268040200,6.859040283203125,8.092866306230425,4.6182039900392295,-0.9758943661451339
1772896014278009000,6.869009033203125,7.39027157934904,3.873191678667068,3.790021812549233
1772896014287977200,6.878977294921875,5.8420548798769705,2.7253303880542514,8.014858352920413
1772896014297945300,6.8889453125,3.9490427462041375,2.0287848782092333,11.310987225735186
1772896014307914200,6.898914306640625,2.4582833794444796,1.9558048360638318,14.180241516077517
1772896014317882400,6.90888232421875,1.5893730318553745,1.7588130681939422,15.776279704910516
1772896014327850000,6.91885009765625,1.0925105747908352,1.4885942976802586,15.57865402305126
1772896014337819100,6.928819091796875,0.9219136235021054,1.1726569283690302,14.761787020301817
1772896014347787300,6.938787353515625,1.193592529696226,1.2419862659871577,14.411120648241042
1772896014357755100,6.948755126953125,1.2782203395374119,1.5245112681053579,13.585740668690203
1772896014367724300,6.958724365234375,0.9116898972600698,1.516486513212323,12.475495115244389
1772896014377692200,6.968692138671875,0.8052139743566512,1.0573169502042232,10.999703600513934
1772896014387660300,6.978660400390625,0.877524592807889,0.5202521004803479,9.10786927844882
1772896014397629200,6.988629150390625,0.7355337044090032,-0.1335136770306155,7.437015794867277
1772896014407597300,6.998597412109375,0.6880605900943279,-0.33597879827767607,7.033316336277127
1772896014417565200,7.008565185546875,0.4069324491620063,-0.5109451968222857,7.193223989638685
1772896014427534000,7.0185341796875,0.25407223009392615,-0.6405676020354032,7.328831314480304
1772896014437502200,7.028502197265625,0.29160277319550515,-0.6505040357686579,7.740895281311869
1772896014447470000,7.038469970703125,0.344045565681532,-0.429226917752251,8.21958597573936
1772896014457439200,7.048439208984375,0.3127097125016153,-0.15118874219190329,9.03819134658873
1772896014467407000,7.058406982421875,0.5698286168150604,-0.25156075872965156,8.953301232549547
1772896014477375200,7.068375244140625,1.4992583150357006,-0.5135012379806488,8.58212340285778
1772896014487344400,7.078344482421875,2.0591751941673455,-0.5461854735622182,8.886777965328097
1772896014497312300,7.088312255859375,1.6982056008875368,-0.7481357771549373,9.04002090010345
1772896014507280100,7.098280029296875,1.1411492257535456,-1.1662108209695667,8.382076631331444
1772896014517249000,7.1082490234375,1.1692391558147965,-1.128142152403295,8.695934490954876
1772896014527217200,7.118217041015625,1.192418371350318,-0.840565565983951,9.653608140754699
1772896014537185300,7.128185302734375,1.0675520746231077,-0.6255642403014003,10.318445676171779
1772896014547154200,7.138154296875,0.9861017257742584,-0.5191781876385212,10.62296053791046
1772896014557122300,7.148122314453125,1.0724667346715926,-0.7702944905363023,10.587260278975963
1772896014567090200,7.158090087890625,1.3676029426902532,-0.9898444194339215,10.489804113352298
1772896014577059300,7.168059326171875,1.8337538890182972,-1.327831342663616,10.086161353385448
1772896014587027200,7.178027099609375,1.8971452879548072,-1.7180376979522407,9.51468014705777
1772896014596995000,7.1879951171875,1.6797037295132875,-2.0599407717123626,8.98780146804452
1772896014606964200,7.197964111328125,1.7256885049663484,-2.343372221150994,8.919701745286583
1772896014616932000,7.20793212890625,1.9656915854364632,-2.5016473048746586,8.992211685702204
1772896014626900200,7.217900146484375,1.9947101746499538,-2.662569980497658,8.862330337291956
1772896014636868400,7.227868408203125,1.953875475436449,-2.743773807239532,8.951776214939356
1772896014646837200,7.237837158203125,1.9088117603510617,-2.891928478965163,9.266838774177431
1772896014656805400,7.247805419921875,2.1379722520284354,-2.9670874725848435,9.58299848100245
1772896014666773000,7.25777294921875,2.1580700142920017,-3.1783325144737957,9.427020568305254
1772896014676742100,7.2677421875,2.08908649443686,-3.243672124868631,9.047115242278576
1772896014686710000,7.2777099609375,2.075854087898135,-3.405730526523292,9.25525881102085
1772896014696678100,7.28767822265625,2.2207700699634847,-3.502357547846436,9.53942938838899
1772896014706647000,7.29764697265625,2.864572270005941,-3.416114557893574,9.75260276799202
1772896014716615200,7.307615234375,3.4861610308051105,-3.401087961414456,9.872497559916972
1772896014726583300,7.317583251953125,4.008131479510665,-3.308191066530347,9.776841721713541
1772896014736552200,7.32755224609375,4.558604969123006,-3.0379739034518596,9.886893165016174
1772896014746520300,7.337520263671875,5.543379976338148,-2.6137112570434806,10.398487765657901
1772896014756488200,7.34748828125,6.025272681677341,-2.148313467170298,9.748753691348433
1772896014766457000,7.35745703125,5.302336593034863,0.15173825670029037,5.813664651694894
1772896014776425200,7.36742529296875,1.6474644246876238,6.300708748447895,-4.4784483133465045
1772896014786393000,7.37739306640625,-4.171607054486871,15.917091028136014,-22.410503784132004
1772896014796362200,7.3873623046875,-9.905450565969943,16.933370011639592,-41.707437156558036
1772896014806330000,7.397330078125,-13.871319359290599,6.540513529866933,-59.38254206533432
1772896014816298200,7.40729833984375,-15.04110665050745,1.3048181313447653,-68.95655702941417
1772896014826267100,7.41726708984375,-11.948915711438655,0.7469536546982825,-68.68489463596343
1772896014836235300,7.4272353515625,-7.8524822636187075,-0.03372764368727803,-67.96559602704048
1772896014846203100,7.437203125,-6.484937773117423,4.688907173293829,-58.12389809453487
1772896014856172000,7.447172119140625,-4.925523972326517,8.238819668519497,-42.082153097248074
1772896014866140200,7.45714013671875,-3.676887600800395,10.863042382705212,-26.886171526849267
1772896014876108300,7.4671083984375,-2.0288029983878135,11.679621800684929,-13.048671435052155
1772896014886077200,7.4770771484375,0.45935354127287864,10.300845722073316,-4.531097953516245
1772896014896045300,7.48704541015625,4.262518913033604,7.820176907819509,-0.4293997170358896
1772896014906013200,7.49701318359375,7.00225776566863,4.7101039828404785,1.5579209318846463
1772896014915982300,7.506982421875,7.820686026385426,1.8705108173988758,3.6594238403022286
1772896014925950200,7.5169501953125,6.640342854362726,-0.14943629990085028,6.900145298671722
1772896014935918000,7.52691796875,4.926788293173909,-0.8559015206731856,11.100882001531124
1772896014945887000,7.536886962890625,3.1425942616164684,-0.8911462178599089,14.499448920035361
1772896014955855000,7.546855224609375,2.3321232435144483,-0.005041578930360265,16.235653119927644
1772896014965823200,7.5568232421875,1.6904940035969018,1.0690606525551527,16.914240948277712
1772896014975792000,7.566792236328125,1.5893528658501803,2.033452431628853,17.250442741656304
1772896014985760300,7.57676025390625,1.8839964680463075,2.4088496325813233,17.089346170771123
1772896014995728100,7.58672802734375,1.9372388134121894,1.625925085313618,15.639714348691701
1772896015005697300,7.596697265625,2.171242068945616,0.4306503381514922,12.55818508889079
1772896015015665400,7.60666552734375,2.630094821089506,-1.0753807224221528,9.295272841501236
1772896015025633000,7.616633056640625,2.78100375995934,-2.377377804996818,6.862059021383524
1772896015035602200,7.626602294921875,2.7092355778217314,-3.0188346109569073,5.874347376194596
1772896015045570000,7.636570068359375,2.0088532662928102,-3.078205376075208,6.032936348173022
1772896015055538200,7.6465380859375,1.2347229969859121,-2.6296815641134974,6.468070224946737
1772896015065507000,7.656507080078125,0.5601479114085436,-2.2216215722262858,7.24142658727169
1772896015075475200,7.66647509765625,-0.20354513503611085,-1.9754631839968262,7.641535912415385
1772896015085442800,7.67644287109375,-0.558788824949786,-1.8836001622051,8.109907457402349
1772896015095411700,7.68641162109375,-0.9561802694369107,-2.0352353695228693,8.320375669699906
1772896015105379800,7.6963798828125,-1.1130893255043774,-2.1930556952163576,8.415552199953794
1772896015115348000,7.706347900390625,-1.0346171156834811,-2.442965983325243,8.234941365781426
1772896015125316900,7.71631689453125,-0.552092030724883,-2.5514488621369003,7.7798028118550775
1772896015135285000,7.726284912109375,0.05607252729050815,-2.547521751821041,7.81599699178636
1772896015145252600,7.736252685546875,0.10265314974486828,-2.474868603542447,8.156575100553034
1772896015155221800,7.7462216796875,0.08790916959941386,-2.2055700166136023,8.773844829109311
1772896015165189600,7.756189697265625,-0.030589784052968024,-2.0050348770484328,9.415310841289163
1772896015175157800,7.76615771484375,-0.09383212990760803,-1.8705474961474537,9.93772318854332
1772896015185126700,7.776126708984375,-0.34551848777830596,-1.8061444359503684,10.2107206299901
1772896015195094800,7.7860947265625,-0.43224750768244263,-1.7822836678914724,10.228052873063087
1772896015205063000,7.79606298828125,-0.3934843540459871,-1.725507157050073,9.714445763555169
1772896015215031800,7.80603173828125,-0.019105061431787907,-1.6218644117459653,9.315009807628392
1772896015225000000,7.816,0.43554545324929056,-1.5130039317935704,9.49509983279705
1772896015234967800,7.8259677734375,0.7557944021493196,-1.2162612384263425,10.123274986249207
1772896015244936700,7.835936767578125,0.5721008360633626,-1.1580349671680479,10.555920553338527
1772896015254904800,7.84590478515625,0.38573538388703016,-1.3085539568722246,10.830657531929015
1772896015264872700,7.855872802734375,0.45714762872643766,-1.5848533624738455,10.718286705768108
1772896015274840800,7.8658408203125,0.8613643891889602,-1.7795412373155355,10.420997703629732
1772896015284809700,7.875809814453125,1.1788690078169106,-1.9720538139447568,10.12319666031599
1772896015294777900,7.88577783203125,1.3787006752878426,-2.224412518119067,9.909698871064185
1772896015304746000,7.89574609375,1.4644693257272243,-2.4202082080721854,9.706764561402798
1772896015314715000,7.90571484375,1.6092179884016513,-2.5038103281274435,9.673346860447525
1772896015324682800,7.915682861328125,1.6322440592020748,-2.5545401061505078,9.93744027994871
1772896015334651600,7.925651611328125,1.5124877989649772,-2.504624859380722,10.382494077712296
1772896015344619800,7.935619873046875,1.3252017248123884,-2.5549735291317104,10.618647935408353
1772896015354588000,7.945587890625,1.316492933177948,-2.5996274943724273,10.281114601165056
1772896015364555800,7.9555556640625,1.3904770377993583,-2.6886951863572,9.962074370467663
1772896015374525000,7.96552490234375,1.7171289125442504,-2.9980715166524052,9.550300326493382
1772896015384492800,7.975492919921875,2.085645414072275,-3.2467671682745216,8.459334058535099
1772896015394461000,7.9854609375,1.7315818007886408,-3.2736317943245172,6.63121612957716
1772896015404429800,7.995429931640625,1.2698287971585989,-2.8215456137061117,3.5863837385326622
1772896015414397700,8.005397705078124,1.0755682078182696,-0.7187129910547286,-2.476515786227584
1772896015424365800,8.01536572265625,-1.2954057214856147,4.355091982790827,-15.60618266596794
1772896015434334700,8.025334716796875,-5.154692793440819,7.990072286710142,-31.942921832454203
1772896015444302800,8.035302734375,-7.400608264446258,6.144817344990372,-43.508110613751406
1772896015454270700,8.045270751953124,-8.601065419214963,2.4422823849752544,-52.24054966576099
1772896015464239900,8.055239990234375,-8.98058145366311,3.683588267482817,-62.117057045841214
1772896015474208000,8.0652080078125,-5.912803071317076,4.293192283716798,-66.7931012304306
1772896015484176000,8.07517578125,-4.20225061455369,3.3974545733481643,-62.08936941297054
1772896015494145000,8.08514501953125,-6.4285179667592045,4.990080323389172,-51.14609555568695
1772896015504112600,8.095112548828125,-7.885034287655353,6.376607746779919,-36.841736661553384
1772896015514080800,8.105080810546875,-6.262299815076589,6.755049429994821,-25.57619016752243
1772896015524049700,8.115049560546876,-1.9614695838272571,5.925411208477616,-17.807307393610476
1772896015534017800,8.125017822265624,3.2439608786821363,4.989453131401539,-11.739195102638005
1772896015543986000,8.13498583984375,6.9778709279090165,4.149909309680759,-5.93456072961688
1772896015553954800,8.144954833984375,8.240507183215021,3.2574574891149997,-1.1763982337892054
1772896015563923000,8.1549228515625,7.0895338980615135,2.4518814034476875,3.5165877332508564
1772896015573890800,8.164890869140624,4.0158384006261825,1.94050161460042,8.99294701423943
1772896015583860000,8.17485986328125,0.6500963317506014,1.7076354002729057,13.766715659999846
1772896015593827800,8.184827880859375,-1.2015350131332874,2.0180682538837194,16.580080305337905
1772896015603795700,8.194795654296875,-1.677240115878731,2.1191905407994986,18.030309508788584
1772896015613764900,8.204764892578124,-0.6821333920024335,2.2103829698532818,18.071207336366175
1772896015623732700,8.214732666015625,0.7400784351665526,2.334015779262781,17.798118709504603
1772896015633700900,8.224700927734375,1.8008862231612204,2.339923834262788,17.109944722163675
1772896015643669800,8.234669677734376,2.304270190948993,2.1070368694081902,15.397349361395834
1772896015653638000,8.244637939453124,2.0567495744556186,1.569058265840262,13.065439029979705
1772896015663606000,8.25460595703125,1.8070383160501717,0.8635613147113471,10.619805288749932
1772896015673575000,8.264574951171875,1.5034440762877463,0.32894137392155826,9.001249563160538
1772896015683542800,8.274542724609375,1.1018746154636143,-0.2156499805833213,7.99528096126914
1772896015693510700,8.2845107421875,0.9511123915880918,-0.5902301477981731,7.008989119750261
1772896015703479800,8.294479736328125,1.272919602780789,-0.8897996986217797,6.482033868369459
1772896015713448000,8.304447998046875,1.6125521012604236,-0.8986743483424187,6.700504769858718
1772896015723415800,8.314415771484375,2.017010415393859,-0.7909143769778311,7.060691834458709
1772896015733385000,8.324385009765624,2.2002070282757282,-0.7183877776883542,7.372041510653496
1772896015743352800,8.334352783203125,2.2543800786204633,-0.7153694527804851,7.755730446872115
1772896015753321000,8.344321044921875,2.268688443827629,-0.7497481807876378,8.332890283358097
1772896015763289900,8.354289794921876,1.8520219516366718,-0.8309421437226235,8.865341209545731
1772896015773257700,8.3642578125,1.1827671842992304,-0.9668557580344378,8.968267915534973
1772896015783225900,8.374225830078124,0.7758061666298657,-1.0192885405831038,9.219809896498917
1772896015793194800,8.38419482421875,0.5196254199493676,-1.090438006300479,9.363165643510222
1772896015803163000,8.394162841796875,0.5290531735081225,-1.2092077397182583,9.548673017552494
1772896015813130800,8.404130859375,0.6891190861713141,-1.3132555586919188,9.601894904652237
1772896015823100000,8.414099853515625,0.9569505231570452,-1.4864192917287349,9.737744221556186
1772896015833067800,8.42406787109375,1.1838952384810895,-1.6113722438260911,9.707136901846528
1772896015843036000,8.434035888671875,1.2466811458051203,-1.6391786807708442,9.671515553367138
1772896015853005000,8.444005126953124,1.2139251236289739,-1.6927955585375427,9.652406948271393
1772896015862972700,8.45397265625,1.1960440875668077,-1.565310749875009,9.744107326847315
1772896015872940800,8.46394091796875,1.26027770948112,-1.489284764162451,9.912897374844551
1772896015882909700,8.47390966796875,1.3380489314258097,-1.5704124569281934,9.449460948172211
1772896015892877800,8.4838779296875,1.6007932744055986,-1.8698054456084965,8.809196128475666
1772896015902846000,8.493845947265624,1.7503057904809711,-2.0237170734256504,8.794481374424695
1772896015912814800,8.50381494140625,1.854910658815503,-2.107012173358351,9.120567431980371
1772896015922783000,8.513782958984375,2.184616075912118,-2.0822201157987115,9.417042195126413
1772896015932750600,8.52375048828125,2.1201701994866133,-2.2074906094126403,9.483087907963991
1772896015942720000,8.533719970703125,1.7304361378848552,-2.2826913963474333,9.501416760858893
1772896015952687600,8.5436875,1.1241279483258724,-2.364847409247607,9.800610719835758
1772896015962655700,8.55365576171875,0.6352198112666606,-2.411714374362677,10.359404294025897
1772896015972625000,8.563625,0.20147651206851006,-2.5631416380181906,10.987077927696705
1772896015982592800,8.5735927734375,0.08183539351052604,-2.762730144383013,11.146384692555666
1772896015992561000,8.583560791015625,0.3040881607592106,-2.9860248127669093,10.48733743097782
1772896016002529800,8.59352978515625,0.7093219893097877,-2.837136273808777,10.156648848062753
1772896016012498000,8.603497802734376,1.0441524943351745,-2.6961116000935434,10.58030914466381
1772896016022465800,8.6134658203125,1.208708265763521,-2.6850650131613016,10.188950696730613
1772896016032434700,8.6234345703125,0.6254208863079548,-2.83347599773556,8.165187446075677
1772896016042402800,8.63340283203125,-0.971436802214384,-2.4518378565669057,3.4308079768955704
1772896016052370700,8.64337060546875,-3.3936943440318106,1.3014492394335566,-8.10960584410727
1772896016062339800,8.65333984375,-7.029595854449272,7.776054857498407,-25.872591865432263
1772896016072307700,8.6633076171875,-9.191765120753645,9.490130812212824,-42.34165743539333
1772896016082275800,8.67327587890625,-8.506299807849526,5.69792873301506,-49.97416190009117
1772896016092245200,8.683245361328124,-7.836935150396823,5.020749602419138,-53.46510899612903
1772896016102213000,8.693213134765625,-4.3417040934294455,6.380077468717098,-60.165469389081
1772896016112181200,8.70318115234375,0.9493751925319432,3.3114883545100686,-62.83659881587028
1772896016122150100,8.713150146484375,1.621531526529789,2.5123902326852083,-57.24567032189369
1772896016132118300,8.7231181640625,-1.444229086253047,4.567061831822991,-44.122826566171646
1772896016142086100,8.733086181640624,-3.7528888904631135,5.47966825940609,-31.66517573517561
1772896016152055300,8.74305517578125,-2.9345296033293007,4.677239824114739,-22.64723514945507
1772896016162023400,8.7530234375,0.33863990724571047,3.4605163019388914,-14.949500379955767
1772896016171991300,8.7629912109375,4.27698173815012,3.262237124606967,-8.149902783182263
1772896016181960400,8.77296044921875,6.55987932459414,2.9163179470732805,-2.522750883179903
1772896016191928000,8.782927978515625,6.752081812360882,1.8708081929102538,2.101531549990177
1772896016201896200,8.792896240234375,4.499264306882024,0.7767484159160405,6.181510122093558
1772896016211865000,8.802864990234376,1.9922224494874476,0.1414282860800624,10.16707905666232
1772896016221833200,8.812833251953125,0.10564356373250484,-0.133051868205145,13.939869748425483
1772896016231801300,8.82280126953125,-0.8438117082983255,0.12843436447232962,16.08562154841423
1772896016241770200,8.832770263671875,-0.31835750913023947,0.7509233620468526,17.078799057793617
1772896016251738400,8.84273828125,0.9068121351558714,1.3010101173639297,17.329930704391003
1772896016261706200,8.852706298828124,1.9606629436194896,1.563130483226478,16.835586513757704
1772896016271675400,8.86267529296875,2.7771400702685116,1.4013289789423347,15.918042629772424
1772896016281643300,8.872643310546875,3.174516171056032,0.9418055609952658,14.139275883960723
1772896016291611100,8.882611083984376,3.5189158839374777,0.3639421428171918,12.031010641801357
1772896016301580300,8.892580322265625,3.9165111804336306,-0.3831615878762677,9.813350958943367
1772896016311548200,8.902548095703125,4.376508864828944,-1.1704628523908556,7.784978753188252
1772896016321516300,8.912516357421875,4.076512941819429,-1.9740037789687512,6.233368319624662
1772896016331485200,8.922485107421876,3.292878931108117,-2.329841270057112,5.450289604708552
1772896016341453300,8.932453369140624,2.153778454577923,-2.3757243387013673,5.729255599170923
1772896016351421200,8.942421142578125,1.0928332308739424,-2.2308010501123965,6.489221149525046
1772896016361390300,8.952390380859375,0.014726444488763809,-2.158272989518195,7.165821603450179
1772896016371358200,8.962358154296876,-0.8194856608152389,-2.253166611177474,7.5146005543291565
1772896016381326000,8.972326171875,-1.1317974600404501,-2.1895411112241447,8.002468826946616
1772896016391295200,8.982295166015625,-1.1987199557125567,-2.1269354558378457,8.701779125329852
1772896016401263400,8.992263427734375,-0.9560592003405094,-2.0670675548523665,9.171993667834997
1772896016411231200,9.002231201171876,-0.6783126646704971,-2.1930796606138347,9.204110223063825
1772896016421200400,9.012200439453125,-0.4337310242384672,-2.2506448376148938,9.21680370042026
1772896016431168300,9.022168212890625,-0.1443846516676247,-2.1952847694426776,9.48656055251062
1772896016441136000,9.03213623046875,0.24492818884737788,-2.0961678309999403,9.813423439657688
1772896016451105000,9.04210498046875,0.5539169811297208,-1.9402184137448668,9.941868617784976
1772896016461073200,9.0520732421875,0.9518949202679097,-1.7317301232181488,10.165553454530238
1772896016471041300,9.062041259765625,1.3758862023890017,-1.4525136611260472,10.47064582389593
1772896016481010200,9.07201025390625,1.952909260752797,-1.1181566188313066,11.012733762478828
1772896016490978300,9.081978271484376,2.400391746968031,-0.9434539857894182,11.460336075681447
1772896016500946200,9.0919462890625,2.6320944704741236,-1.0576233127396553,11.376696838486193
1772896016510915300,9.101915283203125,2.8256191467553378,-1.3537804613038897,10.890207453006505
1772896016520883200,9.11188330078125,2.9935668987095356,-1.677846703469753,10.50776062580347
1772896016530851000,9.12185107421875,3.146815094181895,-1.8416740144930779,10.32700307663679
1772896016540820200,9.1318203125,3.104970341143012,-2.050486130146682,10.237303516489266
1772896016550788000,9.1417880859375,3.065202978900075,-2.2558856608778237,9.816472305834292
1772896016560756200,9.151756103515625,2.9170699344843625,-2.4691554865926504,9.375880748176574
1772896016570725000,9.16172509765625,2.6461586516618727,-2.639270061191916,9.160614195686579
1772896016580693200,9.171693359375,2.504188806051016,-2.668601954138279,9.504052954581379
1772896016590661400,9.181661376953125,2.2971400468081233,-2.7729619078010317,9.937898545110226
1772896016600630300,9.19163037109375,2.0055970409758386,-2.884244938725233,10.03729532340765
1772896016610598400,9.201598388671876,1.908469815045595,-3.0679481859549877,9.732784553322196
1772896016620566000,9.21156591796875,2.0643584420241416,-3.243344208088517,9.401021034651993
1772896016630535200,9.22153515625,2.748856225070357,-3.1792928839385506,9.203522194042801
1772896016640503300,9.23150341796875,3.559818972212076,-2.934163984887302,9.385863213008642
1772896016650471200,9.24147119140625,3.6301100675344466,-2.525225456599891,9.585089900323748
1772896016660440300,9.2514404296875,3.3542397009998557,-2.1089777743428946,9.727049224540592
1772896016670408200,9.261408203125,3.2308126432955264,-1.9022656997084617,8.795226055312156
1772896016680376300,9.271376220703125,2.8814333884358403,-0.3880912262981757,5.647801304799318
1772896016690345200,9.28134521484375,-1.407938606340438,4.552859411208331,-5.067591433092952
1772896016700313300,9.291313232421874,-7.937306911206245,12.797723328328132,-23.928310732293127
1772896016710281200,9.30128125,-12.413159362840652,13.565686891698837,-39.83712609951496
1772896016720250000,9.31125,-14.123007470726966,5.089024097222089,-48.7513608115673
1772896016730218200,9.32121826171875,-13.066804473114013,0.42786081703081724,-59.91974573900699
1772896016740186000,9.33118603515625,-8.29472626465857,0.40601898757889865,-69.01674875552654
1772896016750152400,9.34115234375,-2.3745361518301067,-3.2123271385341883,-68.89965265440941
1772896016760120000,9.3511201171875,-2.2087720275253058,-1.910266050812602,-67.61838534839153
1772896016770088200,9.361088134765625,-4.902303255736827,3.01750482365787,-55.43743081336021
1772896016780057000,9.37105712890625,-4.92784920040369,6.701131961846351,-36.30264848930835
1772896016790025200,9.381025146484374,-4.0060838993310925,8.355710017931461,-20.76809079761505
1772896016799993300,9.390993408203125,-3.1355554490208624,8.966882598656415,-10.741728371632098
1772896016809962200,9.400962158203125,-2.3761140686713156,9.181883193686604,-4.201048837548494
1772896016819930400,9.410930419921876,-0.8702987332075833,8.905762651783228,1.3987906926363707
1772896016829898200,9.420898193359376,0.8451680913433433,7.740388500833511,6.384273166841268
1772896016839867400,9.430867431640625,1.5571411796838044,5.892832880955934,10.59403605672121
1772896016849835300,9.440835205078125,0.900613207450509,4.495272022375464,13.337984051483868
1772896016859803100,9.45080322265625,0.22304069362282752,4.102757390144467,15.161515821695327
1772896016869772300,9.460772216796874,-0.1336636434279382,3.701415892857313,16.31830217704177
1772896016879740200,9.470740234375,0.3868114521533251,3.5362104253485795,17.374445553421975
1772896016889708300,9.480708251953125,1.327796417480707,3.439339073875546,17.922942190003393
1772896016899677200,9.49067724609375,2.125628172631562,3.0522584493920206,17.273431987577677
1772896016909645300,9.500645263671874,2.879889958386123,2.6613141352176664,15.813791981703043
1772896016919613200,9.51061328125,3.5461031660705804,2.239521970576048,14.35635094717741
1772896016929582000,9.52058203125,3.7645226296335457,1.5762626442611216,13.14805067769289
1772896016939550200,9.53055029296875,4.085031763839721,0.9642151803977786,11.349410187631845
1772896016949518000,9.54051806640625,3.847399358023703,0.002022153477370739,8.839166319325566
1772896016959487200,9.5504873046875,3.5806998476773497,-0.7663425380401313,6.87099928368628
1772896016969455400,9.560455322265625,3.5360593264400957,-1.0297131962247192,6.490085072878003
1772896016979423200,9.57042333984375,3.2226471647575496,-0.9593184213321655,6.909108941850066
1772896016989392400,9.580392333984374,2.7885490607723593,-0.7994046304907649,7.4592334718942634
1772896016999360300,9.5903603515625,1.9931202751100061,-0.7208953765951096,7.8655884134292595
1772896017009328000,9.600328125,1.0674725796461104,-0.806635166266188,8.020650964847206
1772896017019297000,9.610297119140625,0.4246583677276969,-0.9675072807457298,8.338244503867626
1772896017029265200,9.62026513671875,0.16313830584585665,-1.1902462149430066,8.851965010622143
1772896017039233300,9.6302333984375,-0.012342179700732231,-1.3720533462278544,9.239672534832359
1772896017049202200,9.6402021484375,-0.23434651601314543,-1.679511567942053,9.186351279011369
1772896017059170300,9.65017041015625,-0.1615845005325973,-1.8443854654088616,9.069849052134156
1772896017069138200,9.66013818359375,0.14765271355286239,-1.972274324827641,9.21909911788106
1772896017079107300,9.670107421875,0.7638824315369128,-1.9218717329323292,9.403552014434338
1772896017089075200,9.6800751953125,1.4648600786104797,-1.7133906027987598,9.489960716342926
1772896017099042600,9.69004248046875,2.0102995195783673,-1.4539157830089329,9.708988667193054
1772896017109011700,9.70001171875,2.3042902108237144,-1.3483021760232745,10.07189200501442
1772896017118979600,9.7099794921875,2.4841575331524015,-1.325426181218028,10.11851580902338
1772896017128947700,9.71994775390625,2.612360426956415,-1.277074238242209,9.837592250752449
1772896017138916600,9.72991650390625,2.654862182599306,-1.3241954703792929,9.335981283986568
1772896017148884700,9.739884765625,2.40223942066133,-1.4976571634493767,8.838939524832368
1772896017158852900,9.749852783203124,2.5089655189335343,-1.3390657072529195,8.652951673796773
1772896017168824600,9.759824462890625,2.22050367411226,-1.1780690165456384,9.065591394689678
1772896017178792700,9.769792724609376,2.0810826362013817,-0.9179392399784178,9.450131979301572
1772896017188761600,9.77976171875,1.918402887777984,-0.5448785191494971,9.669171036067604
1772896017198729700,9.789729736328125,1.5135346776694059,-0.5589177850916981,9.88343279542923
1772896017208697900,9.79969775390625,1.5227134249031542,-0.6126082760838791,10.066346061325072
1772896017218666800,9.809666748046874,1.8222933144576847,-0.732569082449749,10.058700515007972
1772896017228635000,9.819634765625,1.9575947882205247,-1.1276008851334451,9.957421576225757
1772896017238602800,9.829602783203125,2.274785737789422,-1.4403651043012737,9.713741999199986
1772896017248571600,9.839571533203125,2.5912252844691275,-1.8065961252406237,9.597522096395492
1772896017258539800,9.849539794921874,2.9558921248316765,-1.952792502505332,9.705227853354812
1772896017268507600,9.859507568359374,3.662446402993798,-1.8397610204786061,10.014695369064807
1772896017278476800,9.869476806640625,4.331463854444027,-1.817715923539549,10.119649781489372
1772896017288444700,9.879444580078125,4.855933134227991,-1.7103753466308116,9.917903220307826
1772896017298412800,9.889412841796876,4.86991285200268,-1.8245590674325822,9.346214508709311
1772896017308381700,9.899381591796875,4.953126265001297,-2.233534712859988,7.838679363715648
1772896017318349800,9.909349853515625,5.116974764943123,-1.5252785992160438,2.9617852745234963
1772896017328317700,9.919317626953125,3.4249800013944505,2.4386624409124256,-5.246009141135215
1772896017338286600,9.92928662109375,0.2333335395783186,10.814213762128352,-15.673636492037772
1772896017348254700,9.939254638671875,-4.483265358239412,17.355093202698228,-24.877974094116688
1772896017358222800,9.949222900390625,-10.064520014941692,13.57886669126749,-29.791109709513186
1772896017368191700,9.959191650390625,-13.021672368967533,6.464160358026623,-35.66863396217823
1772896017378159900,9.969159912109374,-14.329422023719548,6.347177069634199,-48.802999813389775
1772896017388127700,9.979127685546874,-11.315206304734945,3.737498429107666,-61.011623276591294
1772896017398097000,9.989096923828125,-6.803034000962972,0.7081393553964793,-67.06447837719917
1772896017408064800,9.999064697265625,-4.653082995718718,-0.16853132399581372,-64.25905855338573
1772896017418032600,10.00903271484375,-5.743644190007448,-1.7523121618673205,-52.09154334564209
1772896017428001500,10.01900146484375,-6.812356540581583,-0.7075834750793873,-38.41111480699777
1772896017437969700,10.0289697265625,-6.125448043131828,1.4650741597525774,-26.308439443433283
1772896017447937800,10.038937744140625,-4.54071158503592,2.5383371593683957,-16.512364613461493
1772896017457906700,10.04890673828125,-3.212867821282148,3.0920564990341664,-9.543715687406063
1772896017467874800,10.058874755859375,-2.3147378089495003,3.246505010206997,-4.370887517815828
1772896017477842700,10.0688427734375,-1.4719259253434835,2.7846505920290947,0.3465034071624279
1772896017487811800,10.078811767578125,-0.7581820279382169,1.8122027130760252,5.1959822506845
1772896017497780000,10.088780029296874,0.00969838719367981,0.5986757219191641,9.292619112122058
1772896017507747600,10.09874755859375,0.7897761667281389,-0.07996942610871047,11.798111401987075
1772896017517716700,10.108716796875,1.1222509024076164,-0.39594880793076004,13.053714689916372
1772896017527684600,10.1186845703125,1.426301361504942,-0.09512443474046886,13.424181156468391
1772896017537652700,10.12865283203125,1.768793194938451,0.5062138939840719,14.070508052682875
1772896017547621600,10.13862158203125,2.238522876536101,1.1933955458194017,14.630627322518825
1772896017557589800,10.14858984375,2.6551053437054155,1.9219376377753912,15.063051940333843
1772896017567558000,10.158557861328125,2.8665228195518253,2.1753385444790125,15.55043798239231
1772896017577526800,10.16852685546875,2.5294863289147616,2.2233706078507005,15.146207193404436
1772896017587495000,10.178494873046875,2.2650006952255963,1.9575690692573784,14.130388813149928
1772896017597463800,10.1884638671875,2.0555233936615287,1.6321458595246077,13.045352519762515
1772896017607431700,10.198431640625,2.1377759988039733,1.1817048157647252,11.966375380283594
1772896017617399800,10.20839990234375,2.5163041912585498,0.7898603378802538,10.537242740875483
1772896017627368700,10.21836865234375,2.8696149403482676,0.325732385279797,9.260847424808144
1772896017637336800,10.2283369140625,3.175229872283339,-0.1022519667991437,8.544704649567604
1772896017647304700,10.2383046875,2.9852842235326764,-0.34310273187346757,7.993701583123206
1772896017657273900,10.24827392578125,2.4814228474915025,-0.6430768814425916,7.759377863463759
1772896017667241700,10.25824169921875,2.0599283506222066,-0.7090287785168736,7.887306908762454
1772896017677209900,10.2682099609375,1.6230397391356526,-0.7016335536990315,8.108258521151543
1772896017687178800,10.2781787109375,0.9947389134772121,-0.6913481603976339,8.43068547167778
1772896017697146600,10.288146728515626,0.6363011767625808,-0.8361367897562683,8.728649012076854
1772896017707114800,10.29811474609375,0.3292858765102923,-0.9123481419730931,8.847057949358224
1772896017717083600,10.308083740234375,0.30902970881462094,-0.9330614788517355,9.119322400355339
1772896017727051800,10.3180517578125,0.12289061274006963,-1.0147654371354728,9.236994255533814
1772896017737020000,10.32802001953125,-0.09208367880508303,-1.1621322464190422,9.366074808955192
1772896017746988800,10.33798876953125,-0.058183162768930194,-1.312741325559467,9.443526297426223
1772896017756957000,10.34795703125,0.40736382631659507,-1.1981759850289673,9.368359120500088
1772896017766924500,10.357924560546875,0.828320855308324,-0.9681114571839571,9.727263744074106
1772896017776894000,10.36789404296875,1.3417672212965785,-0.6331402285136282,10.49231638843417
1772896017786861600,10.377861572265624,1.6424100639075039,-0.3938050008350983,10.994328337216377
1772896017796829700,10.38782958984375,1.7147838107228277,-0.3314328984763473,10.874484983217716
1772896017806798600,10.397798583984375,1.800175590673834,-0.26628090134179216,10.483024828475713
1772896017816766700,10.4077666015625,1.9037603221803903,-0.32050018371474,10.359219585108756
1772896017826734800,10.41773486328125,1.9828531481176614,-0.32144648812152443,10.23461237770915
1772896017836703700,10.427703857421875,2.039611977171898,-0.33168296424727883,10.263801062792538
1772896017846672000,10.437671875,2.0399654667846856,-0.27611069636279717,10.63290325525403
1772896017856639700,10.4476396484375,2.2093786151163277,-0.20832115379888563,11.185986050581931
1772896017866608600,10.457608642578125,2.2482670025676486,-0.299014510756731,11.405151364076136
1772896017876576800,10.46757666015625,2.3330185849189755,-0.4162876124085858,11.383264526438712
1772896017886544600,10.477544677734375,2.6304431961357593,-0.7028164068080485,11.42476558060646
1772896017896513800,10.487513671875,2.7793910640656945,-1.0639362952787428,11.233870083785057
1772896017906481700,10.497481689453124,2.6663544674724338,-1.4368981588430703,11.119135451102256
1772896017916449800,10.50744970703125,2.9028941096156835,-1.5924087462894618,11.519523593187332
1772896017926418700,10.517418701171875,3.0702076553195714,-1.5699467391125856,12.029385670948027
1772896017936386800,10.52738671875,3.4677690495461224,-1.388896929001063,11.923902850735187
1772896017946354700,10.537354736328124,3.604289982101321,-0.7068627595894038,9.856100551867485
1772896017956323600,10.547323486328125,2.1579414194762707,2.160222077759355,4.390942463850974
1772896017966291700,10.557291748046875,-0.7845918959580361,9.062091862136125,-7.013088371762633
1772896017976260600,10.567260498046876,-5.859749526521563,17.03343548297882,-23.83714402220249
1772896017986228700,10.577228759765624,-9.595966683647037,16.038352432239055,-38.83433905026912
1772896017996196900,10.58719677734375,-10.73534539259672,7.100230648642778,-48.376289481568335
1772896018006165800,10.597165771484375,-14.609410346966982,5.068589211958646,-56.80472103683948
1772896018016134000,10.6071337890625,-16.90286732134819,8.712089506942034,-64.5071249671936
1772896018026101800,10.617101806640624,-12.204731716459989,5.562037915056943,-62.88958923230171
1772896018036071000,10.62707080078125,-9.496621343275905,0.4452266701124608,-55.078945876502985
1772896018046038500,10.63703857421875,-9.17207959255278,-0.1742296087026596,-46.65709369962215
1772896018056006700,10.647006591796876,-5.609384188121557,-0.5532724726811051,-35.84234685353041
1772896018065975600,10.6569755859375,-1.014938090288639,0.15525442072823642,-26.54807705159187
1772896018075943700,10.666943603515625,1.9897015527077018,2.4555203444719313,-18.73463968116045
1772896018085911800,10.676911865234375,3.5769507242769,3.382676690933108,-9.536668691504001
1772896018095881500,10.686881591796874,4.31245461806953,3.6297274979576466,-0.32948563686609267
1772896018105849600,10.696849609375,4.2931992979794735,3.3017946434915064,6.454165033712982
1772896018115817500,10.7068173828125,3.3439068152949214,2.480718790875375,10.182350275552272
1772896018125786600,10.71678662109375,1.3036464572168887,1.4672092720851302,12.045565236854552
1772896018135754200,10.726754150390626,-0.2730018253609538,0.5080898804564029,13.71400464503169
1772896018145722400,10.736722412109375,-0.8574205469340086,0.15779150145780294,14.408970776730776
1772896018155691300,10.746691162109375,0.21812617970481513,0.2747848728528246,14.785008905935287
1772896018165659400,10.756659423828125,1.8378871894307434,0.2927040124356747,14.879210453677176
1772896018175627500,10.76662744140625,3.071490096345544,0.1407343855317682,14.62493174122572
1772896018185596400,10.776596435546875,3.8889386983752248,-0.2549204809537157,13.97917066220045
1772896018195564500,10.786564453125,4.568179437676072,-0.8832522497396915,12.702114251875877
1772896018205532700,10.79653271484375,5.216704720717669,-1.076957031828165,11.02138234835863
1772896018215501600,10.80650146484375,5.553616708192229,-1.0850915307059883,9.760987149977684
1772896018225469400,10.816469482421875,5.752482160979509,-0.7558947207186371,9.26363384065628
1772896018235437300,10.826437255859375,5.214387091425061,-0.3190633558446541,9.228987474688887
1772896018245406500,10.836406494140626,4.840000236558914,0.11257248621284961,9.579280337262153
1772896018255374300,10.846374267578126,4.687101000654697,0.4090900290546938,10.411883838325739
1772896018265342500,10.856342529296874,4.029452792219818,0.47717141243834044,10.572473044210671
1772896018275311400,10.866311279296875,3.378584453183412,0.3834241478025913,10.226285278868675
1772896018285279500,10.876279541015625,2.842161408494413,0.052670171501114964,9.561434299448132
1772896018295247600,10.88624755859375,2.4587895754009486,-0.2745836146596819,8.742834189295769
1772896018305216500,10.896216552734375,2.180142291498929,-0.6803302881032228,8.057247295838595
1772896018315184400,10.906184326171875,1.9284723002411424,-0.9115674399241804,8.188878118264675
1772896018325153300,10.9161533203125,1.5175915518447756,-1.009177334804833,8.678724412956834
1772896018335121400,10.926121337890624,1.201016103825718,-1.03429029488191,9.208098415917158
1772896018345089500,10.936089599609375,0.8547031046688556,-1.0555355466801672,9.649520579180122
1772896018355058400,10.946058349609375,0.5757575684726238,-1.0602337144337595,9.804135971352457
1772896018365026600,10.956026611328125,0.5877450895167887,-1.2546022941932082,9.590020926985144
1772896018374994400,10.965994384765626,0.7546548767253756,-1.5643442429304122,9.209525233849883
1772896018384963600,10.975963623046875,1.0588292544633149,-1.786632949142158,8.725498439091444
1772896018394931500,10.985931396484375,1.3348207631595432,-1.918268740004301,8.416853930202127
1772896018404899300,10.9958994140625,1.4818272877633571,-1.9966626238919793,8.597440798977017
1772896018414868500,11.005868408203124,1.457194366288185,-1.9412008489109576,8.81657396376729
1772896018424836400,11.01583642578125,1.4635270764410495,-1.9191987143307923,8.995500205853581
1772896018434804500,11.025804443359375,1.517296076029539,-1.8809683523967862,9.015377457234264
1772896018444773400,11.0357734375,1.523440131742507,-1.8660441933788359,9.00973156030178
1772896018454741500,11.045741455078126,1.6246623719014226,-1.982965668581426,8.924049419102072
1772896018464709600,11.055709716796875,1.859792147246748,-2.1446315637871622,9.017239743974804
1772896018474678500,11.065678466796875,2.2422078486591577,-2.3251982665568587,9.044276803982257
1772896018484646700,11.075646728515625,2.7122365132033823,-2.569547705668211,8.936877921015023
1772896018494614300,11.0856142578125,3.234409206482768,-2.98816825453639,8.897189469227195
1772896018504583400,11.09558349609375,3.5972266195863485,-3.0025469085007903,9.483457910320162
1772896018514551300,11.10555126953125,3.937673210927844,-2.7489059094309805,10.817768824261426
1772896018524519400,11.11551953125,3.988447704875469,-2.335012242954224,12.386468924313784
1772896018534488300,11.12548828125,4.0321828017055985,-1.7835493039131163,13.612203143680095
1772896018544456400,11.13545654296875,4.434687497553229,-1.2634181994639335,13.913594320440291
1772896018554424600,11.145424560546875,5.297872599363327,-0.5380416953993961,13.640564145767687
1772896018564393500,11.1553935546875,5.60589108530879,1.3066159745469688,9.806124514821171
1772896018574361600,11.165361572265626,4.077261714360118,7.249380761146545,0.24548925679624078
1772896018584329500,11.17532958984375,0.9386721583403647,17.159058589422703,-15.088092858088016
1772896018594298400,11.18529833984375,-2.993793693202734,21.29153950217962,-29.767761567151545
1772896018604266500,11.1952666015625,-5.866207324358821,13.328373342573641,-40.93605998535156
1772896018614234400,11.205234375,-9.715273446550965,7.969332281020283,-56.09615424981117
1772896018624203500,11.21520361328125,-11.77986145954728,5.014164378809928,-68.44981863663196
1772896018634171400,11.22517138671875,-10.6153524009943,-1.0442648686684668,-69.08118644864558
1772896018644139500,11.235139404296875,-11.243895803236962,-4.366290837675333,-67.28046155352592
1772896018654108400,11.2451083984375,-10.947435653138161,-0.023599048382788895,-55.79231509537696
1772896018664076300,11.255076171875,-6.3515726742446414,1.9036301199294625,-40.550350356960294
1772896018674045400,11.26504541015625,-1.2361090445168315,4.415928436547517,-29.841565639030932
1772896018684013300,11.275013427734375,1.9827249916933476,6.320217166516184,-19.2829305660367
1772896018693981400,11.2849814453125,3.298544701784849,7.841558718544245,-8.17480575377047
1772896018703950300,11.294950439453125,3.4340029735445974,8.860475064814091,1.2957324692219494
1772896018713918500,11.30491845703125,2.9409084907114504,8.529947809940577,8.352966272181272
1772896018723886600,11.314886474609375,2.066047564154863,6.345434025359153,11.493458593082428
1772896018733855500,11.32485546875,2.2659961360037326,3.392344390727579,11.879392677879332
1772896018743823600,11.33482373046875,3.734122230672836,1.5879808468446135,13.04896252695322
1772896018753791200,11.344791259765625,4.863876202186942,0.302811893745698,15.396335800439118
1772896018763760400,11.354760498046875,5.697390388354659,-0.28432810601741076,16.926750885760782
1772896018773728300,11.364728271484376,5.785428737291693,-0.6174418702527881,17.43832210552692
1772896018783696400,11.3746962890625,4.948742935350537,-0.8228560140311717,16.556549792146683
1772896018793665500,11.38466552734375,3.512910506042838,-1.1653132145427167,14.821581271529197
1772896018803633400,11.39463330078125,2.6321879939764736,-1.3347992819800971,13.354267662286757
1772896018813601500,11.4046015625,1.7793559438765048,-1.5884607393160461,11.797146940869093
1772896018823570400,11.4145703125,1.0406829185284674,-1.763984479482472,10.374052412581444
1772896018833538600,11.42453857421875,0.6504360850989818,-1.8594672992065548,9.858687645751237
1772896018843506400,11.43450634765625,0.6927531318247317,-1.7646039265550673,9.706696172341704
1772896018853475300,11.444475341796876,0.7673750959582626,-1.676382037744671,9.577092471829056
1772896018863443500,11.454443359375,0.7192470248661935,-1.5256819193199276,9.07116481090784
1772896018873411300,11.464411376953125,0.48098494284451004,-1.516899916318804,8.529650288298726
1772896018883380500,11.47438037109375,0.06946048971712589,-1.5320000164255498,8.013298848518728
1772896018893348400,11.484348388671876,-0.08766308588385581,-1.625005632381141,8.001438314855099
1772896018903316500,11.49431640625,-0.06414820865318178,-1.64178345644176,8.188871688523887
1772896018913285400,11.504285400390625,-0.24325170700252055,-1.6710536823287605,8.104912133333087
1772896018923253500,11.51425341796875,-0.5674010974071919,-1.8020245795413852,7.903397042819857
1772896018933221400,11.524221435546876,-0.9025741322599351,-1.9204503218270836,7.700383822703361
1772896018943190300,11.534190185546874,-0.9570129939340054,-1.9844944855839013,7.8020228269696235
1772896018953158400,11.544158447265625,-0.892427562907338,-2.1968686776332556,7.965992322942614
1772896018963127300,11.554127197265625,-0.7551892758630215,-2.2527708898581564,8.168919618341326
1772896018973095400,11.564095458984376,-0.5395335779249668,-2.293021213312447,8.415735739827156
1772896018983063600,11.5740634765625,-0.15607143619954586,-2.3016950797639786,8.461242522504925
1772896018993032400,11.584032470703125,0.38253114448562264,-2.2420117415651677,8.559208975738287
1772896019003000600,11.59400048828125,0.8072365662254393,-2.2900249541059137,8.546229082655906
1772896019012968400,11.603968505859376,1.2738545455433428,-2.3192593780271706,8.483328097584844
1772896019022937600,11.6139375,1.6839011812031268,-2.315317508533597,8.910073500719665
1772896019032905200,11.6239052734375,1.7155004345595835,-2.2586671082898975,9.288368468940257
1772896019042873300,11.633873291015625,1.9545237102121114,-2.0792169884599745,9.666813659286499
1772896019052842500,11.643842529296874,2.176998294384777,-1.882999273702502,9.970722956347466
1772896019062810400,11.653810302734374,2.3760651149630547,-1.7347842500917612,10.087112955021858
1772896019072778500,11.663778564453125,2.530824299520254,-1.6461302534744142,10.119733952641486
1772896019082747400,11.673747314453125,2.5800831282079217,-1.7329207943074405,10.28729767371416
1772896019092715300,11.68371533203125,2.719122473324835,-1.8136033736541866,10.316848762369155
1772896019102683400,11.693683349609374,3.116771838095784,-1.9336726453632116,10.321859284007548
1772896019112652300,11.70365234375,3.807833363571763,-1.8394512238770722,10.523509983599185
1772896019122620400,11.713620361328125,4.3782092390060425,-1.7417713325001298,10.989217277812957
1772896019132588300,11.72358837890625,4.779354336938262,-1.6808873863399028,11.093201383900642
1772896019142557400,11.733557373046875,5.380632715636492,-1.5365626481659709,11.031726047718525
1772896019152525300,11.743525390625,5.826486139345168,-1.4476315881729125,10.97393787561655
1772896019162493200,11.7534931640625,6.168076640024781,-1.2218942758772522,10.846081895554065
1772896019172462300,11.76346240234375,6.338714361715317,-1.0317102883260696,10.576637178152799
1772896019182430200,11.77343017578125,5.9388581345498554,-0.5638734347376972,9.393534478288888
1772896019192398300,11.7833984375,4.93420879856348,2.0981363545939327,5.538229753968119
1772896019202367200,11.7933671875,1.3348708859115839,7.650661468157172,-3.059036857485771
1772896019212335400,11.80333544921875,-4.40475179349482,15.472414831513165,-18.32190877485275
1772896019222303500,11.813303466796874,-9.787505739068985,19.56665982937813,-35.248582503724094
1772896019232272400,11.8232724609375,-11.945796702635288,13.176183716243505,-47.820872105813024
1772896019242240500,11.833240478515625,-13.640786264085769,4.336708184838295,-57.376112226796145
1772896019252209400,11.84320947265625,-13.667608804559707,3.496362691345811,-68.11207721259593
1772896019262177300,11.85317724609375,-11.334454610562323,-0.5182799236245453,-69.07725846154689
1772896019272145200,11.863145263671875,-13.263767307150363,-3.8860926612943407,-68.36290256972312
1772896019282114300,11.8731142578125,-15.303663361960648,2.6681255687981844,-59.430781487846374
1772896019292082400,11.88308251953125,-12.76953066854477,8.06024063243568,-39.27073374075889
1772896019302050300,11.89305029296875,-9.551816576275229,9.388337494167684,-20.553697520828244
1772896019312019500,11.90301953125,-5.830317680332064,10.746521451127528,-9.255608939632772
1772896019321987300,11.9129873046875,-2.2550302130922675,10.112989739078282,-2.1409441074460744
1772896019331955500,11.92295556640625,1.227087972062826,8.864442799401283,2.210602750083804
1772896019341924400,11.93292431640625,4.443301304380595,7.297633627662062,5.125906259417533
1772896019351892200,11.942892333984375,6.74688249015212,4.885004038150608,8.317077797198294
1772896019361860400,11.9528603515625,7.439104876101016,2.9423893769189715,10.82374848319292
1772896019371829200,11.962829345703126,6.935497182559967,1.871018620790541,12.627298957127332
1772896019381797400,11.97279736328125,5.814860583481193,1.4031293063625692,13.591120608162878
1772896019391765200,11.98276513671875,4.466422944509983,1.1354925151661037,14.033316093885897
1772896019401734400,11.992734375,3.628261517058313,1.3712383765831588,14.320816692459582
1772896019411702300,12.002702392578126,3.1136583822503683,1.6753515256531535,15.060236882913111
1772896019421670400,12.01267041015625,2.408395605203509,1.8689362615585325,15.675751292234658
1772896019431639600,12.0226396484375,1.881608111605048,1.7916903786621987,16.094550704801083
1772896019441607200,12.032607177734375,1.8199787539049983,1.5411638583511114,15.666007312333583
1772896019451575300,12.0425751953125,1.7947484510585665,1.0222118076186626,14.01128429481983
1772896019461544200,12.052544189453124,1.9585630487307906,0.27831783275194466,11.787540908133982
1772896019471512300,12.06251220703125,2.132724268372357,-0.6565322100169956,9.3147543715626
1772896019481480400,12.07248046875,2.386827039735019,-1.353825615619868,7.433941209727525
1772896019491449300,12.082449462890626,2.8695351531103253,-1.7490610511168836,6.643907853367924
1772896019501417500,12.09241748046875,2.96614288521111,-1.923852385355532,6.678646573793888
1772896019511385000,12.102385009765625,2.702391411015391,-1.9113276886947452,6.795304868015647
1772896019521354500,12.1123544921875,2.2641890865817667,-1.9058488188922404,6.702758101743459
1772896019531322400,12.122322265625,1.9104621579065917,-1.7235618682011962,6.88084555491805
1772896019541291300,12.132291259765625,1.395716692018509,-1.775567949770391,7.198598668414354
1772896019551259400,12.14225927734375,1.0610127359822392,-1.804298077431321,7.2320415038108825
1772896019561227300,12.152227294921875,1.028246776933968,-1.7418300769500434,7.421819979301095
1772896019571196400,12.162196533203126,0.95851039288491,-1.6705391569353638,7.698133413428068
1772896019581164300,12.172164306640624,1.2524077067583799,-1.557071037057042,8.010749748557805
1772896019591132400,12.18213232421875,1.8117329036071896,-1.3196198330268263,8.34797036359012
1772896019601101300,12.192101318359375,2.474262454342842,-1.099347215877846,8.520027304428815
1772896019611069200,12.202069091796876,2.92856338840127,-1.0514183936849235,8.572952838930487
1772896019621037300,12.212037353515624,3.1654677722036837,-0.9674383802279829,8.715820510163903
1772896019631006200,12.222006103515625,3.279502732184529,-0.7606978101514279,9.150759156626462
1772896019640974300,12.231974365234375,3.3073405871808528,-0.5775433559108525,9.617618543484806
1772896019650942200,12.241942138671876,3.1501369320809838,-0.4916124641144648,9.816965642309189
1772896019660911400,12.251911376953124,2.8523335506796834,-0.4380555363740772,9.880267024874687
1772896019670879500,12.26187939453125,2.671990427532792,-0.3522640165157616,9.920373409813642
1772896019680847400,12.271847412109375,2.474031568196416,-0.2978688478529453,9.822163210952281
1772896019690816500,12.28181640625,2.4556632600739596,-0.27010131814647464,9.834931507110594
1772896019700784000,12.2917841796875,2.3936665303662417,-0.28236440472900864,9.97334395250082
1772896019710752300,12.301752197265625,2.2732702186599374,-0.30967301168683914,10.254115535080432
1772896019720721200,12.31172119140625,1.9233067341715095,-0.4457259248714894,10.516166050577164
1772896019730689300,12.321689208984376,1.4645453135728834,-0.6857973213374614,10.551627824580669
1772896019740657400,12.331657470703124,1.1852455571115017,-1.0602079954706132,10.364571467530727
1772896019750626300,12.341626220703125,1.0433914468348027,-1.354055771113932,10.17545408629775
1772896019760594400,12.351594482421875,1.4634747617319226,-1.639207760734856,10.788585984396933
1772896019770562300,12.361562255859376,2.2381477596133945,-1.8659604606181381,11.558845549750327
1772896019780531500,12.371531494140624,2.851121544541418,-1.7847301842607557,12.038622285848856
1772896019790499300,12.381499267578125,3.240809428913891,-1.6610696100614963,11.98613455824256
1772896019800468200,12.39146826171875,3.6390193501770494,-1.597468806158006,11.417077948713303
1772896019810436400,12.401436279296876,4.109744180291891,-1.3992020499162374,10.262527974116802
1772896019820404200,12.411404296875,4.550798679286241,-0.34194048316106196,8.130709422412513
1772896019830373400,12.421373291015625,3.177697723701596,3.1344846049189568,2.018725256487727
1772896019840341200,12.43134130859375,-0.8324978487320244,9.275302066618204,-9.437514489790797
1772896019850309400,12.441309326171876,-7.771398556125163,15.491674827778338,-25.537728627181053
1772896019860278300,12.4512783203125,-14.016763603013754,13.621039945608377,-40.09147261650562
1772896019870246400,12.461246337890625,-16.932322548413275,3.1426959684252735,-51.282621164417264
1772896019880214300,12.47121435546875,-17.80272941817045,3.8762636334583163,-64.5300335490942
1772896019890183200,12.48118310546875,-13.540347867780923,10.24695631097555,-69.22239290866851
1772896019900151300,12.4911513671875,-5.88996930821836,1.772089460004866,-68.49989111979008
1772896019910119200,12.501119140625,-4.733541849312186,-5.676990574404597,-59.036958695626254
1772896019920088300,12.51108837890625,-5.783623733696341,-2.241833608519286,-41.839183714318274
1772896019930056400,12.521056396484376,-5.7060746300697325,0.0076699775054585185,-26.554913619613647
1772896019940024300,12.5310244140625,-5.119301162064075,2.638138719074428,-14.059766878437996
1772896019949993500,12.540993408203125,-3.9478693185105915,5.2035710983783,-4.057649835917354
1772896019959961300,12.55096142578125,-3.137435855939984,4.780187865152954,4.620218252471089
1772896019969929200,12.56092919921875,-2.255121690768003,3.6817172129139304,9.044686553826928
1772896019979898000,12.570898193359374,-1.4170198845490813,2.1641855745628473,10.25068789871931
1772896019989866200,12.5808662109375,0.5703071941122413,0.328490049957484,10.91466735600233
1772896019999834400,12.59083447265625,3.6137478385373947,-0.12086137193478644,12.843796512717008
1772896020009803300,12.60080322265625,4.921984107762575,-0.2889217904832214,15.191085615050792
1772896020019771400,12.610771484375,4.900364688889682,-0.42108014391474424,15.940730262398718
1772896020029740300,12.620740234375,4.746128359162808,-0.9906730522777885,15.130805041611193
1772896020039708400,12.63070849609375,5.217222607111931,-1.1731899392671883,13.614289886826276
1772896020049676500,12.640676513671876,5.41295619161427,-1.020163715982437,13.136125262099503
1772896020059645400,12.6506455078125,5.05800761218965,-0.46089258740842337,13.294824124193191
1772896020069613300,12.66061328125,3.8136423421114682,0.2102928557306528,13.241995035803317
1772896020079581200,12.670581298828125,2.952088348634541,0.3108816568242386,12.710095313757657
1772896020089550300,12.68055029296875,3.060435910628736,-0.0641314401814714,11.70263208939433
1772896020099518200,12.690518310546874,3.3255922831863165,-0.6000730214964598,10.209924511176347
1772896020109486000,12.700486083984375,3.2383395316690207,-1.0952793088518082,7.908872259360551
1772896020119455000,12.710455078125,3.235829594674706,-1.5528024198271333,6.645363312873244
1772896020129423000,12.720423095703126,3.36617768381387,-1.519652429897338,6.809089647740125
