time,seconds_elapsed,z,y,x
1772896007489580800,0.080580810546875,-0.043623026460409164,0.43039894104003906,0.2724423408508301
1772896007499549000,0.090548828125,-0.22768022119998932,0.4316926896572113,0.38816869258880615
1772896007509516800,0.100516845703125,-0.5398696660995483,0.5480923056602478,0.5511369109153748
1772896007519485700,0.110485595703125,-0.6829988956451416,0.3612808585166931,0.7731465101242065
1772896007529453800,0.120453857421875,-0.6323745846748352,0.04028339311480522,1.118994951248169
1772896007539421700,0.130421630859375,-0.5415554642677307,-0.4108808636665344,1.4164831638336182
1772896007549390800,0.140390869140625,-0.5161966681480408,-0.9690452814102173,1.6046688556671143
1772896007559358700,0.150358642578125,-0.5459116697311401,-1.5000977516174316,1.8208065032958984
1772896007569326800,0.160326904296875,-0.5881324410438538,-2.054973840713501,1.916122317314148
1772896007579296000,0.1702958984375,-0.6347154378890991,-2.3538601398468018,1.7284168004989624
1772896007589264000,0.180263916015625,-0.76726895570755,-2.1517910957336426,1.4168305397033691
1772896007599231700,0.190231689453125,-0.9562061429023743,-1.5157036781311035,1.2586305141448975
1772896007609200600,0.20020068359375,-1.134942889213562,-0.9772233366966248,1.070295810699463
1772896007619168800,0.210168701171875,-1.0543029308319092,-1.0303055047988892,0.9243005514144897
1772896007629137000,0.220136962890625,-0.9872686266899109,-1.24299955368042,0.966899573802948
1772896007639105800,0.230105712890625,-1.0376969575881958,-1.6188149452209473,1.104320764541626
1772896007649074000,0.240073974609375,-1.2253544330596924,-1.7513275146484375,1.2934046983718872
1772896007659041800,0.250041748046875,-1.5099188089370728,-1.2066823244094849,1.3861538171768188
1772896007669011000,0.260010986328125,-1.685808777809143,-0.5495879054069519,1.4731788635253906
1772896007678978800,0.269978759765625,-1.773223638534546,0.001107468269765377,1.5544688701629639
1772896007688946700,0.27994677734375,-1.8267701864242554,0.12556126713752747,1.4648398160934448
1772896007698915800,0.289915771484375,-1.8499948978424072,-0.18115845322608948,1.0402799844741821
1772896007708883700,0.2998837890625,-1.8058066368103027,-0.3243267834186554,0.36746323108673096
1772896007718851800,0.309851806640625,-1.8599947690963745,-0.8395573496818542,-0.44551488757133484
1772896007728820000,0.319820068359375,-1.4374957084655762,-1.9001165628433228,-0.9680430889129639
1772896007738788900,0.329788818359375,-0.7070238590240479,-2.732590436935425,-1.2059046030044556
1772896007748757000,0.339757080078125,0.14118929207324982,-2.5869083404541016,-1.1121022701263428
1772896007758724900,0.349724853515625,0.9701365232467651,-1.8910940885543823,-0.8646184206008911
1772896007768694000,0.359694091796875,1.579109787940979,-1.550481915473938,-0.547339677810669
1772896007778661600,0.36966162109375,1.778160572052002,-1.5758849382400513,-0.22504714131355286
1772896007788629800,0.379629638671875,1.6309093236923218,-1.5762245655059814,0.07017739117145538
1772896007798598700,0.3895986328125,1.2674764394760132,-1.3162344694137573,0.29575830698013306
1772896007808566800,0.39956689453125,0.784976601600647,-0.956112802028656,0.3647684156894684
1772896007818535000,0.409534912109375,0.34330251812934875,-0.5933132767677307,0.12604981660842896
1772896007828503800,0.41950390625,0.2775917947292328,-0.33269551396369934,-0.261339396238327
1772896007838472000,0.429471923828125,0.4375542998313904,-0.22518770396709442,-0.6247016191482544
1772896007848439800,0.439439697265625,0.5638699531555176,0.05803842842578888,-0.8353955745697021
1772896007858409000,0.449408935546875,0.5422797203063965,0.47236981987953186,-0.7187525629997253
1772896007868376800,0.459376953125,0.476489782333374,0.34513065218925476,-0.6736903190612793
1772896007878344700,0.4693447265625,0.28597575426101685,0.09833232313394547,-0.5329433083534241
1772896007888313900,0.47931396484375,-0.003137769177556038,0.046535175293684006,-0.4668944180011749
1772896007898281700,0.48928173828125,-0.12316857278347015,0.1986301690340042,-0.5318185091018677
1772896007908249900,0.499249755859375,-0.058043383061885834,0.19884668290615082,-0.6934240460395813
1772896007918218800,0.50921875,0.08589727431535721,-0.056439679116010666,-0.8256694674491882
1772896007928187000,0.519186767578125,0.21008695662021637,-0.32707250118255615,-0.9151005148887634
1772896007938155000,0.529155029296875,0.3579384982585907,-0.8164547085762024,-1.015726089477539
1772896007948122600,0.53912255859375,0.5839555263519287,-1.1461799144744873,-1.0705842971801758
1772896007958091800,0.549091796875,0.8442108631134033,-1.0888079404830933,-1.0169719457626343
1772896007968060000,0.559059814453125,0.7434226274490356,-0.38706740736961365,-0.9210500717163086
1772896007978027800,0.56902783203125,0.3232820928096771,0.7049221396446228,-0.8798874616622925
1772896007987997000,0.578996826171875,0.15256066620349884,1.2013726234436035,-0.9754108786582947
1772896007997964800,0.58896484375,0.48372530937194824,1.871642827987671,-1.212685227394104
1772896008007933000,0.598932861328125,0.6971790790557861,1.9926248788833618,-1.2940349578857422
1772896008017901800,0.60890185546875,0.6424388885498047,2.1224074363708496,-1.333939790725708
1772896008027869700,0.61886962890625,0.42339444160461426,2.1089401245117188,-1.2678649425506592
1772896008037837800,0.628837890625,0.28460830450057983,2.292353868484497,-1.2295300960540771
1772896008047806700,0.638806640625,0.36331871151924133,2.4414138793945312,-1.2112482786178589
1772896008057774800,0.64877490234375,0.4914364814758301,2.4604671001434326,-1.1193863153457642
1772896008067742700,0.65874267578125,0.44476622343063354,2.1802940368652344,-1.070780873298645
1772896008077712000,0.6687119140625,0.15291890501976013,1.4756758213043213,-1.0462702512741089
1772896008087680000,0.678679931640625,-0.18742920458316803,0.8107965588569641,-0.981099009513855
1772896008097648000,0.688648193359375,-0.15154576301574707,0.5254351496696472,-0.8635950088500977
1772896008107617000,0.698616943359375,0.010443324223160744,0.5297356843948364,-0.6581066250801086
1772896008117585200,0.708585205078125,0.1035144105553627,0.6122204065322876,-0.4705364406108856
1772896008127553300,0.71855322265625,0.21445657312870026,0.46692684292793274,-0.41961032152175903
1772896008137522200,0.728522216796875,0.2957090735435486,0.17152264714241028,-0.4284781217575073
1772896008147490300,0.738490234375,0.31811341643333435,-0.050013963133096695,-0.41070207953453064
1772896008157458400,0.74845849609375,0.3089260160923004,-0.17174679040908813,-0.3740718960762024
1772896008167426000,0.758426025390625,0.27531859278678894,-0.2807508409023285,-0.3306325078010559
1772896008177395200,0.768395263671875,0.3398621678352356,-0.2672102451324463,-0.3231700658798218
1772896008187363000,0.778363037109375,0.4071769714355469,-0.33964791893959045,-0.36066734790802
1772896008197331200,0.788331298828125,0.2776019275188446,-0.3611569404602051,-0.39497098326683044
1772896008207300000,0.798300048828125,0.09476058185100555,-0.35199034214019775,-0.42877256870269775
1772896008217268200,0.808268310546875,-0.02857467345893383,-0.23604139685630798,-0.4458317160606384
1772896008227236400,0.818236328125,-0.0441502220928669,-0.055418360978364944,-0.41559937596321106
1772896008237205200,0.828205322265625,-0.019109316170215607,0.040987271815538406,-0.41752082109451294
1772896008247173400,0.83817333984375,0.029923485592007637,0.06861570477485657,-0.45355844497680664
1772896008257141000,0.84814111328125,0.10426855832338333,0.17655707895755768,-0.45149582624435425
1772896008267110100,0.858110107421875,0.2384049892425537,0.5920733213424683,-0.42145296931266785
1772896008277078300,0.868078369140625,0.4474357068538666,1.0041509866714478,-0.3735208511352539
1772896008287046100,0.878046142578125,0.658355176448822,1.1825785636901855,-0.3056536316871643
1772896008297015300,0.888015380859375,0.8066136240959167,1.2474302053451538,-0.2559364140033722
1772896008306983200,0.897983154296875,0.7950562834739685,1.3013389110565186,-0.17197972536087036
1772896008316951300,0.907951416015625,0.7038586735725403,1.3059914112091064,-0.08006124943494797
1772896008326920200,0.917920166015625,0.634350061416626,1.2141478061676025,-0.017159076407551765
1772896008336888300,0.927888427734375,0.6314061880111694,1.015573263168335,0.042066432535648346
1772896008346856200,0.937856201171875,0.6497031450271606,0.9208746552467346,0.10066602379083633
1772896008356825000,0.9478251953125,0.6503095626831055,0.8346966505050659,0.1509678065776825
1772896008366793200,0.957793212890625,0.6660144329071045,0.650370180606842,0.16725660860538483
1772896008376761000,0.967760986328125,0.663501501083374,0.4756242036819458,0.20572809875011444
1772896008386730200,0.977730224609375,0.6444865465164185,0.39511770009994507,0.2975594401359558
1772896008396698000,0.987697998046875,0.6565250754356384,0.4172389805316925,0.41692230105400085
1772896008406666200,0.997666259765625,0.685757577419281,0.3792295455932617,0.5163745880126953
1772896008416634000,1.007634033203125,0.7323703169822693,0.295526921749115,0.5459790825843811
1772896008426603000,1.01760302734375,0.7251744270324707,0.15562495589256287,0.5167303085327148
1772896008436571100,1.027571044921875,0.6734651327133179,0.00262422114610672,0.4892403185367584
1772896008446539300,1.037539306640625,0.6084716320037842,-0.12396303564310074,0.48268023133277893
1772896008456508200,1.047508056640625,0.47657570242881775,0.5457460880279541,0.6863672733306885
1772896008466476300,1.057476318359375,0.2787657082080841,0.5137618184089661,1.0705170631408691
1772896008476444200,1.067444091796875,0.30254215002059937,-0.029487594962120056,0.9665046334266663
1772896008486413300,1.077413330078125,0.25974562764167786,0.18977326154708862,0.8511986136436462
1772896008496381200,1.087381103515625,0.22104161977767944,0.30197593569755554,0.7460367679595947
1772896008506349000,1.09734912109375,0.34373384714126587,0.23834159970283508,0.692076563835144
1772896008516318200,1.107318115234375,0.346871554851532,0.30312007665634155,0.58687424659729
1772896008526286000,1.1172861328125,0.3643577992916107,0.2965839207172394,0.43553534150123596
1772896008536254200,1.127254150390625,0.42594873905181885,0.2712572515010834,0.33552059531211853
1772896008546223000,1.13722314453125,0.4309282898902893,0.2336297184228897,0.2914777100086212
1772896008556191200,1.147191162109375,0.38610169291496277,0.1948208063840866,0.2739911377429962
1772896008566159400,1.157159423828125,0.3083835542201996,0.15761592984199524,0.2826008200645447
1772896008576128300,1.167128173828125,0.19599974155426025,0.10390370339155197,0.319606751203537
1772896008586096400,1.177096435546875,0.0975005254149437,0.03807833045721054,0.34898653626441956
1772896008596064000,1.18706396484375,0.038841474801301956,-0.04260559752583504,0.33262115716934204
1772896008606033200,1.197033203125,0.02212575078010559,-0.09590932726860046,0.28785043954849243
1772896008616001000,1.2070009765625,0.051816537976264954,-0.11800530552864075,0.22866833209991455
1772896008625969200,1.21696923828125,0.08802278339862823,-0.12055601179599762,0.1714993268251419
1772896008635937300,1.226937255859375,0.10542227327823639,-0.12869064509868622,0.13426247239112854
1772896008645906200,1.23690625,0.10592741519212723,-0.15778814256191254,0.1178639829158783
1772896008655874300,1.246874267578125,0.1057140901684761,-0.19423961639404297,0.13006551563739777
1772896008665842200,1.25684228515625,0.12083937972784042,-0.19288378953933716,0.1556607037782669
1772896008675811300,1.266811279296875,0.14061467349529266,-0.215590700507164,0.1571217030286789
1772896008685779200,1.276779296875,0.13011890649795532,-0.29225584864616394,0.13026444613933563
1772896008695747000,1.2867470703125,0.048039473593235016,-0.3581081032752991,0.06735338270664215
1772896008705716200,1.29671630859375,-0.01331384852528572,-0.2618047893047333,-0.006471875123679638
1772896008715684000,1.30668408203125,-0.08160315454006195,-0.03170101344585419,-0.07143542170524597
1772896008725652200,1.31665234375,-0.12729781866073608,0.1444862335920334,-0.10154522955417633
1772896008735621000,1.32662109375,-0.13642527163028717,0.1642301082611084,-0.12904983758926392
1772896008745589200,1.33658935546875,-0.09796018153429031,0.11666318774223328,-0.13098526000976562
1772896008755557400,1.346557373046875,-0.0466112345457077,0.12114076316356659,-0.08795285224914551
1772896008765526300,1.3565263671875,-0.02666991576552391,0.09320016950368881,-0.046472955495119095
1772896008775494100,1.366494140625,-0.037477556616067886,0.06927379220724106,-0.03024871088564396
1772896008785462000,1.3764619140625,-0.06478352099657059,0.09065338224172592,-0.04135552793741226
1772896008795431200,1.38643115234375,-0.08212682604789734,0.15005038678646088,-0.06918901950120926
1772896008805399300,1.3963994140625,-0.1058107390999794,0.1854347586631775,-0.10119085758924484
1772896008815367200,1.4063671875,-0.11888232827186584,0.1839255690574646,-0.14174200594425201
1772896008825335300,1.416335205078125,-0.09487820416688919,0.17239272594451904,-0.16956807672977448
1772896008835304200,1.42630419921875,-0.06531365215778351,0.1971910148859024,-0.14867398142814636
1772896008845272300,1.436272216796875,-0.03222472593188286,0.18476338684558868,-0.11460617184638977
1772896008855240200,1.446240234375,-0.008206210099160671,0.14258317649364471,-0.07799622416496277
1772896008865209000,1.456208984375,-0.006512031890451908,0.09829449653625488,-0.044708650559186935
1772896008875177200,1.46617724609375,0.004087882116436958,0.021974429488182068,-0.013817314058542252
1772896008885145000,1.47614501953125,-0.00933508574962616,-0.08360415697097778,-0.03510724753141403
1772896008895114200,1.4861142578125,-0.009141473099589348,-0.12177897244691849,-0.05836303532123566
1772896008905082000,1.49608203125,0.015028678812086582,-0.1590445637702942,-0.04952160269021988
1772896008915050200,1.50605029296875,0.006612823344767094,-0.16144752502441406,-0.026974748820066452
1772896008925019400,1.516019287109375,-0.02553040161728859,-0.14463476836681366,-0.02789035253226757
1772896008934987300,1.5259873046875,-0.03059466928243637,-0.17817649245262146,-0.05623837187886238
1772896008944955100,1.535955078125,-0.012099205516278744,-0.1966841071844101,-0.048405811190605164
1772896008954924000,1.545924072265625,-0.005087901838123798,-0.1901891976594925,-0.024474911391735077
1772896008964892200,1.55589208984375,0.011251074261963367,-0.17865319550037384,-0.010730206035077572
1772896008974860300,1.5658603515625,0.0292295403778553,-0.20429809391498566,0.0027211541309952736
1772896008984829200,1.5758291015625,0.024550393223762512,-0.23893997073173523,0.051675181835889816
1772896008994797300,1.58579736328125,0.01517926249653101,-0.2531239688396454,0.13574159145355225
1772896009004765200,1.59576513671875,0.0023331008851528168,-0.2653803825378418,0.19704905152320862
1772896009014734300,1.605734375,-0.030640292912721634,-0.22640450298786163,0.2245595008134842
1772896009024702200,1.6157021484375,-0.0775488093495369,-0.1565803736448288,0.22147034108638763
1772896009034670000,1.625670166015625,-0.1164352297782898,-0.11253754794597626,0.14840145409107208
1772896009044638200,1.63563818359375,-0.1436176300048828,-0.105948306620121,0.09800833463668823
1772896009054607000,1.645607177734375,-0.17442481219768524,-0.13130107522010803,0.04573766887187958
1772896009064575200,1.6555751953125,-0.034902751445770264,-0.2660581171512604,0.06942958384752274
1772896009074543400,1.66554345703125,-0.020471079275012016,-0.22734108567237854,0.046497900038957596
1772896009084511500,1.675511474609375,-0.09302587062120438,-0.1300092488527298,0.06049024313688278
1772896009094479600,1.685479736328125,-0.15023483335971832,-0.0911656990647316,0.09065080434083939
1772896009104447500,1.695447509765625,-0.15661470592021942,-0.15372414886951447,0.11857134848833084
1772896009114416400,1.70541650390625,-0.1241995170712471,-0.21466687321662903,0.1748572587966919
1772896009124384500,1.715384521484375,-0.11347085237503052,-0.20993675291538239,0.22707460820674896
1772896009134352400,1.725352294921875,-0.1378965675830841,-0.14969179034233093,0.23250772058963776
1772896009144321500,1.735321533203125,-0.08806562423706055,-0.010027683340013027,0.16968947649002075
1772896009154289400,1.745289306640625,-0.0719846561551094,0.18759378790855408,0.055059827864170074
1772896009164257500,1.755257568359375,0.004702589008957148,0.30000606179237366,-0.02970852516591549
1772896009174226400,1.765226318359375,0.07389231026172638,0.3685856759548187,-0.15671546757221222
1772896009184194300,1.7751943359375,0.06420129537582397,0.3008822202682495,-0.2445269227027893
1772896009194162400,1.785162353515625,-0.046681806445121765,0.11127634346485138,-0.2398882359266281
1772896009204131300,1.79513134765625,-0.13794952630996704,-0.15174034237861633,-0.19005265831947327
1772896009214099500,1.805099365234375,-0.16252171993255615,-0.25916212797164917,-0.11430010199546814
1772896009224067300,1.8150673828125,-0.15466605126857758,-0.24954122304916382,0.002267714124172926
1772896009234035500,1.825035400390625,-0.11618843674659729,-0.12295479327440262,0.06392894685268402
1772896009244004600,1.835004638671875,-0.06358655542135239,-0.055732570588588715,0.02903059311211109
1772896009253972500,1.844972412109375,-0.021926993504166603,0.009041901677846909,-0.05926384776830673
1772896009263940400,1.8549404296875,-0.028118304908275604,0.06045801192522049,-0.1038907989859581
1772896009273909200,1.8649091796875,-0.03355754539370537,0.08531196415424347,-0.08929800987243652
1772896009283877400,1.87487744140625,-0.03588766232132912,0.0668807327747345,-0.05066676437854767
1772896009293845500,1.884845458984375,-0.05775647237896919,0.029995152726769447,-0.010142771527171135
1772896009303814400,1.894814453125,-0.09922456741333008,-0.02903786674141884,0.013782858848571777
1772896009313782500,1.904782470703125,-0.14627677202224731,-0.11524998396635056,0.04809129983186722
1772896009323750400,1.91475048828125,-0.18283237516880035,-0.24187104403972626,0.045559465885162354
1772896009333719600,1.924719482421875,-0.2364995926618576,-0.2853982746601105,0.015008746646344662
1772896009343687400,1.9346875,-0.1603313386440277,-0.3573954999446869,0.0068969568237662315
1772896009353655300,1.9446552734375,-0.1221325621008873,-0.4444372057914734,0.01623346656560898
1772896009363624400,1.95462451171875,-0.13161084055900574,-0.5128266215324402,0.026988882571458817
1772896009373592300,1.96459228515625,-0.12516358494758606,-0.3671985864639282,0.053862571716308594
1772896009383560400,1.974560546875,0.01080037746578455,-0.19470109045505524,0.09253673255443573
1772896009393528600,1.984528564453125,0.11704862862825394,-0.10283832252025604,0.12515655159950256
1772896009403497500,1.99449755859375,0.0970320850610733,-0.007615387439727783,0.0990382730960846
1772896009413465600,2.004465576171875,0.051384441554546356,0.07470105588436127,0.021411919966340065
1772896009423433500,2.01443359375,0.05301821231842041,0.10044874995946884,-0.033662185072898865
1772896009433402600,2.024402587890625,0.042154114693403244,0.11488761007785797,-0.05396932363510132
1772896009443370200,2.034370361328125,0.005767751019448042,0.18125547468662262,-0.097097247838974
1772896009453338400,2.04433837890625,-0.0034854020923376083,0.18169543147087097,-0.16933442652225494
1772896009463307300,2.054307373046875,0.011482590809464455,0.16740275919437408,-0.23227433860301971
1772896009473275400,2.064275390625,-0.014512524008750916,0.16128122806549072,-0.28237611055374146
1772896009483243500,2.074243408203125,-0.04546886682510376,0.13494549691677094,-0.29092279076576233
1772896009493212400,2.08421240234375,-0.0514436699450016,0.07492449879646301,-0.2206350713968277
1772896009503180500,2.0941806640625,-0.03285551816225052,0.045800719410181046,-0.1601507067680359
1772896009513148700,2.104148681640625,-0.007962683215737343,0.05129269137978554,-0.12178654223680496
1772896009523117600,2.11411767578125,0.01961529068648815,0.05226898193359375,-0.07699864357709885
1772896009533085400,2.12408544921875,0.012012231163680553,0.032806865870952606,-0.03975673019886017
1772896009543053300,2.13405322265625,-0.010559403337538242,0.02841450832784176,-0.04339277744293213
1772896009553022500,2.1440224609375,-0.01718774437904358,0.02661021612584591,-0.02372400090098381
1772896009562990300,2.153990234375,0.026852861046791077,-0.01962834596633911,-0.008799174800515175
1772896009572958500,2.16395849609375,0.07533783465623856,-0.08268880844116211,-0.02718537300825119
1772896009582927400,2.17392724609375,0.0797906368970871,-0.11750617623329163,-0.09591066837310791
1772896009592895500,2.1838955078125,0.06892173737287521,-0.10947621613740921,-0.15287809073925018
1772896009602863600,2.193863525390625,0.08185424655675888,-0.11628460139036179,-0.1588810235261917
1772896009612831200,2.203831298828125,0.08811108022928238,-0.16210614144802094,-0.11187196522951126
1772896009622800400,2.21380029296875,0.061111561954021454,-0.1767551600933075,-0.03494662791490555
1772896009632768500,2.2237685546875,0.03630474954843521,-0.19141559302806854,0.051412761211395264
1772896009642736400,2.233736328125,0.004611293785274029,-0.14311569929122925,0.11161091923713684
1772896009652705500,2.24370556640625,-0.022235766053199768,-0.1012825071811676,0.119976706802845
1772896009662673400,2.25367333984375,-0.04678097739815712,-0.05776702240109444,-0.0244574137032032
1772896009672641500,2.2636416015625,-0.019613273441791534,-0.0749308317899704,-0.1407233029603958
1772896009682610400,2.2736103515625,0.057332854717969894,-0.1971144825220108,-0.1681777834892273
1772896009692578600,2.28357861328125,0.11737621575593948,-0.4186583459377289,-0.22251400351524353
1772896009702546400,2.29354638671875,0.06887437403202057,-0.6331562995910645,-0.10838118940591812
1772896009712515300,2.303515380859375,0.0029456941410899162,-0.5501219034194946,0.05838009715080261
1772896009722483500,2.3134833984375,-0.07831458002328873,-0.4481269121170044,0.15712787210941315
1772896009732451300,2.323451416015625,-0.08565797656774521,-0.5250584483146667,0.2209063172340393
1772896009742420500,2.33342041015625,-0.06952539086341858,-0.5364200472831726,0.26395419239997864
1772896009752388400,2.343388427734375,-0.08935156464576721,-0.44256842136383057,0.2685318887233734
1772896009762356500,2.3533564453125,-0.11092454195022583,-0.27163049578666687,0.27320030331611633
1772896009772325600,2.36332568359375,-0.1409415751695633,-0.11346111446619034,0.31259697675704956
1772896009782293500,2.37329345703125,-0.14178787171840668,0.11377204954624176,0.35858747363090515
1772896009792261400,2.383261474609375,-0.1154089868068695,0.16820092499256134,0.43452566862106323
1772896009802229500,2.3932294921875,-0.17539453506469727,-0.052214790135622025,0.5240268707275391
1772896009812198400,2.403198486328125,-0.2041843682527542,-0.17532072961330414,0.6576626896858215
1772896009822166500,2.41316650390625,-0.1896006315946579,-0.05113467201590538,0.6988754272460938
1772896009832134400,2.423134521484375,-0.09609093517065048,-0.05800402909517288,0.7235711812973022
1772896009842103600,2.433103515625,-0.03643623739480972,-0.2572185695171356,0.8342099785804749
1772896009852071400,2.443071533203125,-0.06347823888063431,-0.4359763264656067,1.0378494262695312
1772896009862039300,2.453039306640625,-0.07511889189481735,-0.47090500593185425,1.1713913679122925
1772896009872008400,2.463008544921875,-0.1654607653617859,-0.39768457412719727,1.118304967880249
1772896009881976300,2.472976318359375,-0.32824963331222534,-0.23466795682907104,0.8859037756919861
1772896009891944400,2.4829443359375,-0.15324293076992035,-0.3862130045890808,0.6252703070640564
1772896009901913300,2.492913330078125,0.09935310482978821,-0.5957757830619812,0.3053290545940399
1772896009911881500,2.502881591796875,0.40547946095466614,-1.1562426090240479,0.061196282505989075
1772896009921849600,2.512849609375,0.5690824389457703,-1.7739005088806152,0.026888977736234665
1772896009931818500,2.522818603515625,0.5773608684539795,-2.1054317951202393,0.05777685344219208
1772896009941786600,2.53278662109375,0.4940648078918457,-2.3774044513702393,0.02444864995777607
1772896009951754200,2.542754150390625,0.2900589406490326,-2.615934133529663,-0.1057671457529068
1772896009961723400,2.552723388671875,0.15093091130256653,-2.4552793502807617,-0.2943228781223297
1772896009971691300,2.562691162109375,0.05595751851797104,-1.8378167152404785,-0.49475958943367004
1772896009981659400,2.572659423828125,-0.1269550621509552,-0.7725580930709839,-0.7691182494163513
1772896009991627500,2.58262744140625,-0.3211010992527008,0.02795749343931675,-1.0276013612747192
1772896010001596400,2.592596435546875,-0.40433400869369507,0.1870129108428955,-1.2380019426345825
1772896010011564500,2.602564453125,-0.5353045463562012,0.07443869113922119,-1.3049458265304565
1772896010021532400,2.612532470703125,-0.38480231165885925,-0.2646506130695343,-1.2358789443969727
1772896010031501600,2.62250146484375,-0.18628869950771332,-0.6776392459869385,-0.9876607656478882
1772896010041469400,2.632469482421875,0.15125949680805206,-1.454865574836731,-0.7095441818237305
1772896010051437300,2.642437255859375,0.34361404180526733,-1.8086575269699097,-0.3386382758617401
1772896010061406500,2.652406494140625,0.20107023417949677,-1.9948726892471313,0.011552894487977028
1772896010071374300,2.662374267578125,0.09269050508737564,-2.037999153137207,0.20544327795505524
1772896010081342500,2.672342529296875,0.13595466315746307,-1.696752667427063,0.1171930804848671
1772896010091311400,2.682311279296875,0.04863441362977028,-1.1788972616195679,-0.12137288600206375
1772896010101279500,2.692279541015625,-0.14966516196727753,-0.81747967004776,-0.32078975439071655
1772896010111247600,2.70224755859375,-0.20356087386608124,-0.5166513919830322,-0.4442879855632782
1772896010121216500,2.712216552734375,-0.13847215473651886,-0.24235814809799194,-0.5871683359146118
1772896010131184600,2.7221845703125,-0.028195451945066452,-0.10545062273740768,-0.7435323596000671
1772896010141152300,2.73215234375,0.12927649915218353,-0.12749120593070984,-0.6604728698730469
1772896010151120400,2.742120361328125,0.385877400636673,-0.22662071883678436,-0.47207626700401306
1772896010161089500,2.752089599609375,0.6156235337257385,-0.45017579197883606,-0.2054506242275238
1772896010171057400,2.762057373046875,0.7327837347984314,-0.9181908965110779,0.28072381019592285
1772896010181025500,2.772025634765625,0.7983444333076477,-1.5983855724334717,0.5688730478286743
1772896010190994400,2.781994384765625,0.8092061281204224,-1.9278053045272827,0.20708180963993073
1772896010200962600,2.791962646484375,0.7804539203643799,-1.9652234315872192,-0.23815880715847015
1772896010210930700,2.8019306640625,0.6516802310943604,-2.616985321044922,0.14917321503162384
1772896010220899600,2.811899658203125,0.6956464052200317,-3.3236849308013916,0.8412778377532959
1772896010230867500,2.821867431640625,0.84565669298172,-3.7273128032684326,1.1225942373275757
1772896010240835300,2.83183544921875,0.9802474975585938,-3.912144660949707,1.2939144372940063
1772896010250804500,2.841804443359375,1.0942243337631226,-3.887151002883911,1.3889251947402954
1772896010260772400,2.8517724609375,1.2544567584991455,-3.7115185260772705,1.251323938369751
1772896010270740500,2.861740478515625,1.483742117881775,-3.482269287109375,0.9090421795845032
1772896010280709600,2.871709716796875,1.6796901226043701,-3.2436468601226807,0.5421051979064941
1772896010290677500,2.881677490234375,1.722804069519043,-3.0360422134399414,0.3156648576259613
1772896010300645600,2.891645751953125,1.609897255897522,-3.0235543251037598,0.24300284683704376
1772896010310614500,2.901614501953125,1.4726595878601074,-3.182262659072876,0.15062977373600006
1772896010320582400,2.91158251953125,1.3849583864212036,-3.430812120437622,-0.060274094343185425
1772896010330550500,2.921550537109375,1.4416091442108154,-3.437159776687622,-0.325813353061676
1772896010340518400,2.931518310546875,1.5555752515792847,-3.2680699825286865,-0.5892447233200073
1772896010350487600,2.941487548828125,1.6706229448318481,-2.9829394817352295,-0.7149773836135864
1772896010360455400,2.951455322265625,1.8573462963104248,-2.8279876708984375,-0.7725391387939453
1772896010370423600,2.961423583984375,2.0437538623809814,-2.6931307315826416,-0.9205906391143799
1772896010380392400,2.971392333984375,2.1237998008728027,-2.3040664196014404,-1.1282202005386353
1772896010390360600,2.981360595703125,2.1088991165161133,-1.8923333883285522,-1.1345641613006592
1772896010400328400,2.991328369140625,2.11383318901062,-1.6220568418502808,-1.0534571409225464
1772896010410297300,3.00129736328125,2.2200098037719727,-1.4155439138412476,-1.1454787254333496
1772896010420265500,3.011265380859375,2.434934377670288,-1.342362642288208,-1.2057818174362183
1772896010430233600,3.021233642578125,2.605071783065796,-1.3892576694488525,-1.0685118436813354
1772896010440202500,3.031202392578125,2.413043737411499,-1.4256205558776855,-0.868067741394043
1772896010450170600,3.041170654296875,2.0223636627197266,-1.3863966464996338,-1.0109330415725708
1772896010460138500,3.051138427734375,1.8863784074783325,-1.6760764122009277,-1.4055330753326416
1772896010470107600,3.061107666015625,1.8834630250930786,-1.734113335609436,-1.4806057214736938
1772896010480075500,3.071075439453125,1.6480640172958374,-1.2484761476516724,-0.9436776638031006
1772896010490043400,3.08104345703125,1.2161349058151245,-0.48358190059661865,-0.2788567841053009
1772896010500011500,3.091011474609375,0.8572031259536743,0.030059807002544403,0.19119679927825928
1772896010509980400,3.10098046875,0.6949910521507263,0.2895936369895935,0.3298470973968506
1772896010519948500,3.110948486328125,0.5897437930107117,0.37759461998939514,0.3719088137149811
1772896010529916400,3.12091650390625,0.3389566242694855,0.3872794806957245,0.3419187068939209
1772896010539885600,3.130885498046875,-0.08558463305234909,0.15041716396808624,0.23239374160766602
1772896010549853400,3.140853515625,-0.4297254681587219,-0.2964599132537842,-0.05214451625943184
1772896010559821600,3.150821533203125,-0.7165346145629883,-0.7056072950363159,-0.1881788820028305
1772896010569790700,3.160790771484375,-0.8926534652709961,-0.8754842281341553,-0.1266540139913559
1772896010579758300,3.17075830078125,-0.9322656989097595,-0.7406435012817383,0.06850213557481766
1772896010589726500,3.1807265625,-0.7793959975242615,-0.4825475513935089,0.23811860382556915
1772896010599695400,3.1906953125,-0.5531923770904541,-0.22939465939998627,0.33361971378326416
1772896010609663500,3.20066357421875,-0.3449517786502838,0.03141295909881592,0.28416162729263306
1772896010619631600,3.210631591796875,-0.2872595489025116,0.3468228578567505,0.20678870379924774
1772896010629600500,3.2206005859375,-0.38284599781036377,0.4893778860569,0.06360411643981934
1772896010639568600,3.230568603515625,-0.49185308814048767,0.2575201392173767,-0.1495906114578247
1772896010649536300,3.240536376953125,-0.5986860394477844,-0.16597440838813782,-0.3531666398048401
1772896010659505700,3.250505615234375,-0.651296854019165,-0.3840028643608093,-0.3619700074195862
1772896010669473500,3.2604736328125,-0.4780324101448059,-0.3567768335342407,-0.17582544684410095
1772896010679441400,3.27044140625,-0.12592224776744843,-0.24675948917865753,0.1280648112297058
1772896010689409500,3.280409423828125,0.12605832517147064,-0.19147704541683197,0.3305811583995819
1772896010699378400,3.29037841796875,0.10045250505208969,-0.20281679928302765,0.28275540471076965
1772896010709346600,3.3003466796875,-0.03194202855229378,-0.3549443185329437,-0.07488980889320374
1772896010719314700,3.310314697265625,-0.17693056166172028,-0.5140117406845093,-0.5222027897834778
1772896010729283600,3.32028369140625,-0.3503156304359436,-0.6198287010192871,-0.9666236639022827
1772896010739251500,3.33025146484375,-0.43080705404281616,-0.559255838394165,-1.2270786762237549
1772896010749219300,3.34021923828125,-0.3779020309448242,-0.4029506742954254,-1.2795120477676392
1772896010759188500,3.3501884765625,-0.20635603368282318,-0.1915988028049469,-1.1695375442504883
1772896010769156400,3.36015625,-0.01853899657726288,-0.04419470578432083,-0.9606114625930786
1772896010779124500,3.37012451171875,-0.08094144612550735,0.03925948590040207,-0.7652145028114319
1772896010789093400,3.38009326171875,-0.33572208881378174,-0.006313059013336897,-0.6567429304122925
1772896010799061500,3.3900615234375,-0.509654700756073,-0.16659939289093018,-0.6441038250923157
1772896010809029600,3.400029541015625,-0.5318023562431335,-0.4012891352176666,-0.6087708473205566
1772896010818998500,3.40999853515625,-0.511210560798645,-0.557434618473053,-0.5625700354576111
1772896010828966400,3.41996630859375,-0.46741142868995667,-0.4459943473339081,-0.5740464329719543
1772896010838934500,3.4299345703125,-0.43641236424446106,-0.1473190039396286,-0.6249528527259827
1772896010848902400,3.43990234375,-0.40837913751602173,0.16513317823410034,-0.7229832410812378
1772896010858871600,3.44987158203125,-0.3132810592651367,0.29930248856544495,-0.8562121391296387
1772896010868839400,3.45983935546875,-0.22861279547214508,0.39171844720840454,-0.9003393650054932
1772896010878807600,3.4698076171875,-0.03850429505109787,0.388820081949234,-0.6362366080284119
1772896010888776400,3.4797763671875,0.7012938857078552,-0.12331138551235199,0.15275707840919495
1772896010898744600,3.48974462890625,2.035092353820801,-0.8241845369338989,1.5269626379013062
1772896010908712400,3.49971240234375,3.0240843296051025,-0.9953400492668152,3.2318873405456543
1772896010918681300,3.509681396484375,2.573794364929199,-0.5015497207641602,4.121702194213867
1772896010928649500,3.5196494140625,0.4409986138343811,0.07980422675609589,3.198728322982788
1772896010938617300,3.529617431640625,-2.1816511154174805,0.7432050704956055,1.0150920152664185
1772896010948586500,3.53958642578125,-3.9133384227752686,1.2946410179138184,-1.1016712188720703
1772896010958554600,3.5495546875,-4.28905725479126,1.1388765573501587,-2.104282855987549
1772896010968522500,3.5595224609375,-3.7695810794830322,0.7095051407814026,-1.7431472539901733
1772896010978490600,3.56949072265625,-3.128880262374878,0.5275695323944092,-0.5264177918434143
1772896010988459500,3.57945947265625,-2.3977155685424805,0.2592030465602875,0.9094473123550415
1772896010998427400,3.589427490234375,-1.7188384532928467,-0.14301684498786926,2.106954336166382
1772896011008395500,3.5993955078125,-1.515519142150879,-0.38165631890296936,2.180602550506592
1772896011018364400,3.609364501953125,-1.5602550506591797,-0.11308001726865768,1.1954994201660156
1772896011028332500,3.61933251953125,-1.4160643815994263,0.3477054536342621,-0.03304772451519966
1772896011038300400,3.629300537109375,-1.028158187866211,0.4551008641719818,-0.780803918838501
1772896011048269600,3.63926953125,-0.6381159424781799,0.36851564049720764,-0.9275781512260437
1772896011058237400,3.649237548828125,-0.3464408814907074,0.3579029440879822,-0.8976996541023254
1772896011068205600,3.65920556640625,-0.1296398788690567,0.2956196069717407,-0.7774914503097534
1772896011078174500,3.669174560546875,-0.029508087784051895,0.19699978828430176,-0.593894898891449
1772896011088142600,3.679142578125,0.025849977508187294,0.014456077478826046,-0.3898719549179077
1772896011098110700,3.68911083984375,0.1982489675283432,-0.3146938383579254,-0.1940717101097107
1772896011108079600,3.69907958984375,0.5328445434570312,-0.692671537399292,-0.08784087002277374
1772896011118047700,3.7090478515625,0.8331392407417297,-0.8630149960517883,-0.08304352313280106
1772896011128016000,3.719015869140625,0.9721272587776184,-0.8854582905769348,-0.19753654301166534
1772896011137984800,3.72898486328125,0.907680332660675,-0.8724523782730103,-0.36766332387924194
1772896011147953000,3.738952880859375,0.7319173216819763,-0.6970411539077759,-0.5920512080192566
1772896011157920800,3.748920654296875,0.5746229290962219,-0.4397568702697754,-0.7364946603775024
1772896011167888600,3.758888671875,0.5121046900749207,-0.26929670572280884,-0.7417448163032532
1772896011177857500,3.768857421875,0.48810452222824097,-0.2618391513824463,-0.6160764098167419
1772896011187825700,3.77882568359375,0.5096307992935181,-0.36225685477256775,-0.43360084295272827
1772896011197793800,3.788793701171875,0.5108516216278076,-0.4500183165073395,-0.18371230363845825
1772896011207762700,3.7987626953125,0.4511371850967407,-0.5179603695869446,0.0516621395945549
1772896011217730800,3.808730712890625,0.3340209424495697,-0.5838786959648132,0.2444324791431427
1772896011227698700,3.81869873046875,0.19938775897026062,-0.5628730058670044,0.35179224610328674
1772896011237667800,3.828667724609375,0.07837416231632233,-0.44750410318374634,0.3545563817024231
1772896011247636000,3.838635986328125,-0.015310786664485931,-0.328060507774353,0.2936115264892578
1772896011257603600,3.848603515625,-0.12092847377061844,-0.23389646410942078,0.22989535331726074
1772896011267572700,3.85857275390625,-0.2083006501197815,-0.18710018694400787,0.18649780750274658
1772896011277540600,3.86854052734375,-0.2633029818534851,-0.20524346828460693,0.17523664236068726
1772896011287508700,3.8785087890625,-0.2978561520576477,-0.21424947679042816,0.18590925633907318
1772896011297477600,3.8884775390625,-0.24029244482517242,-0.19266028702259064,0.22437229752540588
1772896011307445800,3.89844580078125,-0.12256050109863281,-0.20481443405151367,0.2904069721698761
1772896011317414000,3.908413818359375,-0.021197576075792313,-0.2424432635307312,0.37914448976516724
1772896011327382800,3.9183828125,0.014932731166481972,-0.2896217107772827,0.4374626576900482
1772896011337351000,3.928350830078125,-0.05904023349285126,-0.2674429416656494,0.45861002802848816
1772896011347318500,3.938318603515625,-0.16199485957622528,-0.2632990777492523,0.41566523909568787
1772896011357286700,3.94828662109375,-0.22174589335918427,-0.301680326461792,0.32167693972587585
1772896011367255800,3.958255859375,-0.227913498878479,-0.3475668430328369,0.19007577002048492
1772896011377223700,3.9682236328125,-0.24294909834861755,-0.3530883491039276,0.034982830286026
1772896011387191800,3.97819189453125,-0.28193482756614685,-0.23099014163017273,-0.1142205074429512
1772896011397160700,3.98816064453125,-0.29059961438179016,-0.11387121677398682,-0.23309126496315002
1772896011407128800,3.99812890625,-0.26263242959976196,-0.08809421211481094,-0.29132023453712463
1772896011417097000,4.008096923828125,-0.21150998771190643,-0.16772162914276123,-0.30758002400398254
1772896011427065900,4.01806591796875,-0.23508241772651672,-0.25902438163757324,-0.29788240790367126
1772896011437033700,4.02803369140625,-0.32347357273101807,-0.265263170003891,-0.3093627989292145
1772896011447001600,4.038001708984375,-0.4500855803489685,-0.22909903526306152,-0.31609871983528137
1772896011456970800,4.047970703125,-0.5399198532104492,-0.18168678879737854,-0.277399480342865
1772896011466938600,4.057938720703125,-0.5348265171051025,-0.18572254478931427,-0.22015482187271118
1772896011476906800,4.06790673828125,-0.49986258149147034,-0.18862402439117432,-0.17672079801559448
1772896011486875600,4.077875732421875,-0.45059865713119507,-0.15105800330638885,-0.18845361471176147
1772896011496843800,4.08784375,-0.3877995014190674,-0.08440309017896652,-0.2546570301055908
1772896011506811600,4.097811767578125,-0.3162510395050049,0.004601349122822285,-0.3617866635322571
1772896011516780800,4.10778076171875,-0.2595025300979614,0.10915865004062653,-0.5100206136703491
1772896011526748700,4.117748779296875,-0.24320317804813385,0.26440975069999695,-0.668063223361969
1772896011536716800,4.127716796875,-0.04201358184218407,0.4238167107105255,-0.8046852350234985
1772896011546684700,4.1376845703125,0.6987153887748718,0.5975973606109619,-0.8900818824768066
1772896011556653800,4.14765380859375,1.9981716871261597,0.7412620782852173,-0.7248145937919617
1772896011566621700,4.15762158203125,3.1592931747436523,0.6705567836761475,-0.16155439615249634
1772896011576589800,4.16758984375,3.273411512374878,0.5580730438232422,0.727526843547821
1772896011586558700,4.177558837890625,2.4524035453796387,0.36227473616600037,1.7915840148925781
1772896011596526600,4.187526611328125,0.876799464225769,0.12009654939174652,2.759108543395996
1772896011606494700,4.19749462890625,-0.5900353193283081,-0.23289772868156433,2.9599387645721436
1772896011616463600,4.207463623046875,-1.3988350629806519,-0.30330321192741394,2.3730554580688477
1772896011626431700,4.217431640625,-1.8357892036437988,-0.07376083731651306,0.9848878383636475
1772896011636399900,4.22739990234375,-2.088942527770996,0.49849551916122437,-0.48004063963890076
1772896011646368800,4.23736865234375,-2.035093307495117,0.9513415694236755,-1.3927959203720093
1772896011656337000,4.2473369140625,-1.664765477180481,1.0024609565734863,-1.532183289527893
1772896011666304800,4.2573046875,-1.25835120677948,0.8591163158416748,-1.1565827131271362
1772896011676274000,4.26727392578125,-1.0111335515975952,0.494037926197052,-0.5414436459541321
1772896011686241500,4.277241455078125,-0.9024648070335388,0.11818919330835342,0.025029398500919342
1772896011696209700,4.287209716796875,-0.7548123002052307,-0.15088382363319397,0.40950286388397217
1772896011706178600,4.297178466796875,-0.5256158709526062,-0.26171445846557617,0.5874390602111816
1772896011716146700,4.307146728515625,-0.392074316740036,-0.22106264531612396,0.5636975169181824
1772896011726114800,4.31711474609375,-0.4084886908531189,-0.10956807434558868,0.4632526636123657
1772896011736082700,4.327082763671875,-0.46213653683662415,-0.02799632027745247,0.3418305814266205
1772896011746051800,4.3370517578125,-0.48558861017227173,-0.018306143581867218,0.20221328735351562
1772896011756019700,4.347019775390625,-0.48781344294548035,-0.03300541639328003,0.10955553501844406
1772896011765987600,4.356987548828125,-0.36190399527549744,-0.0686797946691513,0.11234865337610245
1772896011775956700,4.366956787109375,-0.026540955528616905,-0.1717854142189026,0.19989119470119476
1772896011785924600,4.376924560546875,0.4537372589111328,-0.21401889622211456,0.3553742468357086
1772896011795892700,4.386892822265625,0.8484971523284912,-0.14427867531776428,0.5388858914375305
1772896011805861600,4.396861572265625,1.106215000152588,-0.07842829078435898,0.6844832897186279
1772896011815829800,4.406829833984375,1.220524787902832,-0.03137049451470375,0.7317523956298828
1772896011825798000,4.4167978515625,1.200812816619873,-0.08838584274053574,0.6922475695610046
1772896011835766800,4.426766845703125,1.0054517984390259,-0.20313610136508942,0.6029395461082458
1772896011845735000,4.43673486328125,0.7127493023872375,-0.2981710135936737,0.47648707032203674
1772896011855702500,4.44670263671875,0.4705462157726288,-0.35346248745918274,0.34492602944374084
1772896011865671700,4.456671630859375,0.348635733127594,-0.36650267243385315,0.23674844205379486
1772896011875639600,4.4666396484375,0.3455069363117218,-0.35196635127067566,0.16432583332061768
1772896011885607700,4.476607666015625,0.3959466814994812,-0.30980345606803894,0.14026284217834473
1772896011895576800,4.486576904296875,0.40727731585502625,-0.2589733302593231,0.11457861214876175
1772896011905544700,4.496544677734375,0.3110421299934387,-0.203339621424675,0.056440211832523346
1772896011915512800,4.506512939453125,0.12386099994182587,-0.15859073400497437,-0.03988199308514595
1772896011925481700,4.516481689453125,-0.07133591920137405,-0.12530122697353363,-0.1416996866464615
1772896011935449900,4.526449951171875,-0.18103818595409393,-0.16268934309482574,-0.1949802190065384
1772896011945417700,4.536417724609375,-0.18935969471931458,-0.2374485731124878,-0.16588330268859863
1772896011955385600,4.546385498046875,-0.11082001030445099,-0.26595526933670044,-0.08655671775341034
1772896011965354800,4.556354736328125,-0.0418153777718544,-0.2237820029258728,0.006379612721502781
1772896011975322600,4.566322509765625,0.0010825162753462791,-0.10114264488220215,0.07866808772087097
1772896011985290800,4.576290771484375,0.051084164530038834,0.0019190236926078796,0.12935949862003326
1772896011995259600,4.586259765625,0.09688098728656769,0.01765112392604351,0.18424387276172638
1772896012005227800,4.596227783203125,0.08538465201854706,-0.031719885766506195,0.2685321271419525
1772896012015196000,4.60619580078125,-0.020405374467372894,-0.0942000299692154,0.35711514949798584
1772896012025164800,4.616164794921875,-0.11280667781829834,-0.1646007001399994,0.4007558226585388
1772896012035132700,4.626132568359375,-0.13851933181285858,-0.23075230419635773,0.3691691756248474
1772896012045100800,4.636100830078125,-0.09613964706659317,-0.25833627581596375,0.3067534565925598
1772896012055069700,4.646069580078125,-0.01463619526475668,-0.2525675892829895,0.2512328326702118
1772896012065037800,4.656037841796875,0.054261911660432816,-0.2047547698020935,0.2220083773136139
1772896012075005700,4.666005615234375,0.04468751698732376,-0.14874611794948578,0.1949145495891571
1772896012084974800,4.675974853515625,-0.023580484092235565,-0.08718527853488922,0.16721047461032867
1772896012094942700,4.685942626953125,-0.10148744285106659,-0.09313317388296127,0.13547061383724213
1772896012104910600,4.69591064453125,-0.14794975519180298,-0.127142533659935,0.12582437694072723
1772896012114879500,4.70587939453125,-0.16687706112861633,-0.14243678748607635,0.12779176235198975
1772896012124847600,4.71584765625,-0.1934061348438263,-0.1490536779165268,0.15820665657520294
1772896012134815700,4.725815673828125,-0.2277756929397583,-0.14346879720687866,0.2162579447031021
1772896012144784600,4.73578466796875,-0.2634979784488678,-0.14914478361606598,0.29427656531333923
1772896012154752800,4.745752685546875,-0.29250776767730713,-0.19890034198760986,0.35052719712257385
1772896012164721000,4.755720947265625,-0.30642837285995483,-0.2009967863559723,0.3848273754119873
1772896012174689800,4.765689697265625,-0.3198208212852478,-0.07620105147361755,0.3934963345527649
1772896012184658000,4.775657958984375,-0.2957291007041931,0.08269831538200378,0.4055623412132263
1772896012194625500,4.78562548828125,-0.144095778465271,0.20898911356925964,0.4187477231025696
1772896012204593700,4.79559375,0.14801889657974243,0.38371163606643677,0.3709232211112976
1772896012214562600,4.8055625,0.706876814365387,0.5951501727104187,0.2511368691921234
1772896012224530700,4.81553076171875,1.6923086643218994,0.7253800630569458,0.14042872190475464
1772896012234498800,4.825498779296875,2.845552444458008,0.5391209125518799,0.11418986320495605
1772896012244467700,4.8354677734375,3.3156909942626953,-0.006087525747716427,0.3604763448238373
1772896012254435800,4.845435791015625,2.8459312915802,-0.02686493843793869,0.91422039270401
1772896012264403500,4.855403564453125,1.5774457454681396,0.5518977642059326,1.6545100212097168
1772896012274372600,4.86537255859375,-0.05401524156332016,0.525962233543396,2.2061493396759033
1772896012284340700,4.8753408203125,-1.1307499408721924,0.17172348499298096,2.1105477809906006
1772896012294308600,4.88530859375,-1.4640649557113647,0.2998148798942566,1.469054102897644
1772896012304277800,4.89527783203125,-1.44425368309021,0.9382904767990112,0.6214578151702881
1772896012314245600,4.90524560546875,-1.4906444549560547,1.4246805906295776,-0.013637004420161247
1772896012324213800,4.9152138671875,-1.4980623722076416,1.467458963394165,-0.24935312569141388
1772896012334182700,4.9251826171875,-1.3564995527267456,1.1644115447998047,-0.24862760305404663
1772896012344150800,4.93515087890625,-1.2101138830184937,0.6974895596504211,-0.2684292793273926
1772896012354118700,4.94511865234375,-1.1310217380523682,0.24822205305099487,-0.40883657336235046
1772896012364087600,4.955087646484375,-0.991837739944458,0.03748106211423874,-0.6358511447906494
1772896012374055700,4.9650556640625,-0.858920156955719,0.05130786821246147,-0.8512308597564697
1772896012384023600,4.9750234375,-0.7263461351394653,0.20335359871387482,-0.9906145930290222
1772896012393991700,4.98499169921875,-0.600357711315155,0.36857667565345764,-1.0208100080490112
1772896012403960800,4.9949609375,-0.499365895986557,0.4135950207710266,-0.9629443883895874
1772896012413928700,5.0049287109375,-0.36067473888397217,0.27272146940231323,-0.8635335564613342
1772896012423896800,5.014896728515625,-0.20474877953529358,0.07566405832767487,-0.6953693628311157
1772896012433865700,5.02486572265625,0.01800457015633583,-0.1580333411693573,-0.46461156010627747
1772896012443833600,5.03483349609375,0.40239351987838745,-0.3335188925266266,-0.17833131551742554
1772896012453801700,5.0448017578125,0.8771675825119019,-0.3458815813064575,0.10173262655735016
1772896012463770600,5.0547705078125,1.2612334489822388,-0.27182573080062866,0.3242296278476715
1772896012473738800,5.06473876953125,1.4571205377578735,-0.19243097305297852,0.43076950311660767
1772896012483706600,5.07470654296875,1.456953525543213,-0.12013625353574753,0.40029335021972656
1772896012493675800,5.08467578125,1.2488096952438354,-0.12110193073749542,0.24876974523067474
1772896012503643600,5.0946435546875,0.9064227342605591,-0.18579809367656708,0.04716872051358223
1772896012513611800,5.10461181640625,0.6431562900543213,-0.30093032121658325,-0.15402068197727203
1772896012523580700,5.11458056640625,0.5674170851707458,-0.4311721920967102,-0.259695440530777
1772896012533548500,5.124548583984375,0.6146274209022522,-0.504104733467102,-0.24047327041625977
1772896012543516700,5.1345166015625,0.7182358503341675,-0.4613330364227295,-0.10677966475486755
1772896012553485600,5.144485595703125,0.7992843985557556,-0.34083297848701477,0.05786117911338806
1772896012563453700,5.15445361328125,0.7574557065963745,-0.2239694893360138,0.16966333985328674
1772896012573421800,5.164421875,0.5823860168457031,-0.21102522313594818,0.21471309661865234
1772896012583390700,5.174390625,0.36218151450157166,-0.2496008425951004,0.19052228331565857
1772896012593358800,5.18435888671875,0.19560520350933075,-0.27735015749931335,0.11192397773265839
1772896012603326700,5.19432666015625,0.0999886691570282,-0.28650397062301636,0.045802485197782516
1772896012613295900,5.2042958984375,0.042731642723083496,-0.2867971360683441,0.005308688618242741
1772896012623263500,5.214263427734375,0.02319629117846489,-0.25201305747032166,-0.009701952338218689
1772896012633231600,5.224231689453125,0.03609459102153778,-0.17379307746887207,-0.014053892344236374
1772896012643199700,5.23419970703125,0.07095057517290115,-0.11752235144376755,-0.023888148367404938
1772896012653168600,5.244168701171875,0.07157652825117111,-0.11857465654611588,-0.022280698642134666
1772896012663136800,5.25413671875,-0.00915506761521101,-0.13822293281555176,0.005867049563676119
1772896012673104600,5.264104736328125,-0.13000446557998657,-0.1407347470521927,0.042860258370637894
1772896012683073800,5.27407373046875,-0.23291701078414917,-0.1617225855588913,0.08449532091617584
1772896012693042000,5.2840419921875,-0.2843305468559265,-0.23985685408115387,0.11954105645418167
1772896012703009500,5.294009521484375,-0.28189295530319214,-0.30002936720848083,0.12670469284057617
1772896012712978700,5.303978759765625,-0.2538212239742279,-0.27751395106315613,0.1027144342660904
1772896012722946600,5.313946533203125,-0.2314961850643158,-0.20848695933818817,0.07171870023012161
1772896012732914700,5.323914794921875,-0.21610096096992493,-0.15315312147140503,0.040979497134685516
1772896012742883600,5.333883544921875,-0.16395626962184906,-0.16763699054718018,0.03853418305516243
1772896012752851700,5.343851806640625,-0.08297362923622131,-0.2201337218284607,0.04726073145866394
1772896012762819800,5.35381982421875,-0.04650777950882912,-0.26157915592193604,0.10907267034053802
1772896012772788700,5.363788818359375,-0.10087434947490692,-0.25181815028190613,0.1993093490600586
1772896012782756900,5.3737568359375,-0.20858396589756012,-0.18924881517887115,0.27416813373565674
1772896012792724700,5.383724853515625,-0.30662184953689575,-0.1236860603094101,0.2987419366836548
1772896012802693600,5.393693603515625,-0.2964363098144531,-0.06739741563796997,0.2849675118923187
1772896012812661800,5.403661865234375,-0.19147898256778717,0.019655723124742508,0.2006789892911911
1772896012822629600,5.413629638671875,-0.037837132811546326,0.09238667786121368,0.15093432366847992
1772896012832598800,5.423598876953125,0.09585222601890564,0.17070971429347992,0.15440335869789124
1772896012842566700,5.433566650390625,0.2180463820695877,0.273663729429245,0.2640042006969452
1772896012852534800,5.44353466796875,0.4478289783000946,0.33471164107322693,0.4032275974750519
1772896012862503700,5.453503662109375,0.9895353317260742,0.41200530529022217,0.6244150996208191
1772896012872471800,5.463471923828125,1.6887824535369873,0.26917198300361633,0.9736779928207397
1772896012882439700,5.473439697265625,2.11338472366333,-0.12699203193187714,1.47002112865448
1772896012892408600,5.48340869140625,1.9230093955993652,-0.39510366320610046,1.7814682722091675
1772896012902376700,5.493376708984375,1.1764811277389526,-0.12801022827625275,1.892654538154602
1772896012912344600,5.503344482421875,-0.11086724698543549,0.33313289284706116,1.8422472476959229
1772896012922312700,5.513312744140625,-1.1516774892807007,0.29583504796028137,1.1985814571380615
1772896012932281900,5.52328173828125,-1.575825572013855,0.2503615915775299,0.1001172885298729
1772896012942249700,5.533249755859375,-1.6461395025253296,0.7840558886528015,-0.6316760182380676
1772896012952217600,5.543217529296875,-1.6846832036972046,1.262372612953186,-0.6070867776870728
1772896012962186800,5.553186767578125,-1.5732018947601318,1.2302844524383545,-0.11963258683681488
1772896012972154600,5.563154541015625,-1.368467092514038,0.7879722714424133,0.26087453961372375
1772896012982122800,5.573122802734375,-1.2551980018615723,0.3382747173309326,0.12379728257656097
1772896012992091600,5.583091552734375,-1.1168955564498901,0.046781886368989944,-0.4710721969604492
1772896013002059800,5.593059814453125,-0.875796377658844,-0.023205984383821487,-1.1960448026657104
1772896013012027600,5.603027587890625,-0.6331714391708374,0.07131652534008026,-1.7528377771377563
1772896013021996800,5.612996826171875,-0.5215182900428772,0.2714565098285675,-1.9865812063217163
1772896013031964700,5.622964599609375,-0.4466347396373749,0.41254866123199463,-1.910191535949707
1772896013041932500,5.6329326171875,-0.3798708915710449,0.4478782117366791,-1.6668307781219482
1772896013051901700,5.642901611328125,-0.2639823853969574,0.3203623294830322,-1.3644112348556519
1772896013061869600,5.65286962890625,-0.1489408314228058,0.12570972740650177,-1.0372570753097534
1772896013071837700,5.662837646484375,-0.018927711993455887,-0.09759153425693512,-0.7497829794883728
1772896013081806600,5.672806640625,0.27827775478363037,-0.30135247111320496,-0.5481469631195068
1772896013091774700,5.682774658203125,0.6694806814193726,-0.3765369653701782,-0.4216734766960144
1772896013101742800,5.692742919921875,0.9720169305801392,-0.3516581654548645,-0.322336882352829
1772896013111711700,5.702711669921875,1.0881352424621582,-0.2368820607662201,-0.2303134948015213
1772896013121680000,5.712679931640625,1.0957393646240234,-0.09145725518465042,-0.16785164177417755
1772896013131647700,5.722647705078125,1.021103858947754,-0.024708855897188187,-0.09764166176319122
1772896013141617000,5.732616943359375,0.8746243119239807,-0.0692174956202507,-0.039578963071107864
1772896013151584500,5.74258447265625,0.6457767486572266,-0.15118160843849182,0.028708748519420624
1772896013161552600,5.752552734375,0.4172880947589874,-0.26017141342163086,0.06451798230409622
1772896013171524900,5.76252490234375,0.2842128872871399,-0.38395941257476807,0.03989626094698906
1772896013181492700,5.77249267578125,0.2505917251110077,-0.47437620162963867,0.007063902448862791
1772896013191460900,5.7824609375,0.29594749212265015,-0.49077513813972473,-0.019847339019179344
1772896013201429800,5.7924296875,0.3497471809387207,-0.4584999680519104,-0.005596356000751257
1772896013211397600,5.802397705078125,0.3948296904563904,-0.3699895441532135,0.03298379108309746
1772896013221365800,5.81236572265625,0.42941784858703613,-0.26486554741859436,0.0881805345416069
1772896013231334700,5.822334716796875,0.4172573387622833,-0.23538914322853088,0.15983927249908447
1772896013241302800,5.832302734375,0.33633801341056824,-0.2294904887676239,0.2384667694568634
1772896013251270700,5.842270751953125,0.22796517610549927,-0.268107146024704,0.3245529234409332
1772896013261239800,5.85223974609375,0.12406156957149506,-0.3650301992893219,0.4046632945537567
1772896013271208000,5.8622080078125,0.06921535730361938,-0.46691182255744934,0.4555680453777313
1772896013281175800,5.87217578125,0.07516041398048401,-0.49356764554977417,0.42908042669296265
1772896013291143700,5.882143798828125,0.12068741768598557,-0.432577520608902,0.34597861766815186
1772896013301112600,5.892112548828125,0.2023407518863678,-0.39295127987861633,0.2641562223434448
1772896013311080700,5.902080810546875,0.27619683742523193,-0.3716212213039398,0.20440368354320526
1772896013321048800,5.912048828125,0.3449428975582123,-0.3593195378780365,0.1384911984205246
1772896013331017700,5.922017822265625,0.3741835951805115,-0.3481675684452057,0.07476842403411865
1772896013340985900,5.93198583984375,0.3095379173755646,-0.3424971401691437,0.04960537701845169
1772896013350953700,5.94195361328125,0.209690660238266,-0.3275189697742462,0.03363626450300217
1772896013360923000,5.9519228515625,0.1437036544084549,-0.3214440941810608,0.014589440077543259
1772896013370890500,5.961890380859375,0.12757527828216553,-0.29104945063591003,-0.01536686159670353
1772896013380858600,5.971858642578125,0.15097752213478088,-0.2387271225452423,-0.06948898732662201
1772896013390827800,5.981827880859375,0.1934024840593338,-0.1575680822134018,-0.13385598361492157
1772896013400795600,5.991795654296875,0.19170720875263214,-0.11053824424743652,-0.17539258301258087
1772896013410763800,6.001763671875,0.17643584311008453,-0.11238168925046921,-0.23407959938049316
1772896013420732700,6.011732666015625,0.07798920571804047,-0.15094050765037537,-0.2942711412906647
1772896013430700800,6.02170068359375,-0.14756456017494202,-0.12511718273162842,-0.3343906104564667
1772896013440669000,6.0316689453125,-0.3299727141857147,-0.07127051800489426,-0.37784823775291443
1772896013450637800,6.041637939453125,-0.29812610149383545,-0.08516502380371094,-0.382030725479126
1772896013460605700,6.051605712890625,-0.15546709299087524,-0.14875781536102295,-0.3373151123523712
1772896013470573600,6.061573486328125,-0.0972711518406868,-0.18333549797534943,-0.26879438757896423
1772896013480542700,6.071542724609375,-0.04966169595718384,-0.13607661426067352,-0.23272444307804108
1772896013490510600,6.081510498046875,0.09262940287590027,-0.06823419034481049,-0.12593434751033783
1772896013500478700,6.091478759765625,0.4614606201648712,-0.13365395367145538,0.18039558827877045
1772896013510447600,6.101447509765625,1.1074438095092773,-0.1692660003900528,0.5999302864074707
1772896013520415700,6.111415771484375,1.4782905578613281,-0.1827525496482849,0.8932600617408752
1772896013530384000,6.1213837890625,1.0749808549880981,-0.2967859208583832,0.5459415316581726
1772896013540352800,6.131352783203125,0.4331780970096588,0.15133462846279144,-0.4388531446456909
1772896013550320600,6.141320556640625,-0.7373259663581848,0.7973040342330933,-1.273815631866455
1772896013560288800,6.151288818359375,-1.9670566320419312,0.8947044014930725,-1.9221153259277344
1772896013570257700,6.161257568359375,-2.327698230743408,0.7298504710197449,-2.2773735523223877
1772896013580225800,6.171225830078125,-1.9323276281356812,0.9949788451194763,-1.7811516523361206
1772896013590193700,6.181193603515625,-1.4821194410324097,1.152215600013733,-0.54972243309021
1772896013600162800,6.191162841796875,-1.179439902305603,0.8356817960739136,0.6284361481666565
1772896013610130700,6.201130615234375,-0.9401428699493408,0.5246935486793518,0.945509135723114
1772896013620098800,6.211098876953125,-0.8166540861129761,0.2766289710998535,0.41522327065467834
1772896013630067700,6.221067626953125,-0.9954802989959717,0.06372441351413727,-0.49772512912750244
1772896013640035600,6.23103564453125,-1.122228980064392,-0.01989620178937912,-1.2958464622497559
1772896013650003700,6.241003662109375,-1.0347710847854614,0.030681487172842026,-1.5031460523605347
1772896013659972600,6.25097265625,-0.8151132464408875,0.08461875468492508,-1.2394704818725586
1772896013669940700,6.260940673828125,-0.4643528163433075,0.15393871068954468,-0.7617998123168945
1772896013679908900,6.270908935546875,-0.12973003089427948,0.22375616431236267,-0.2650644779205322
1772896013689877800,6.280877685546875,0.07699678093194962,0.1917652040719986,0.059641432017087936
1772896013699846000,6.290845947265625,0.16776317358016968,0.05223233625292778,0.12184862047433853
1772896013709813800,6.300813720703125,0.23405857384204865,-0.07768730819225311,0.037558235228061676
1772896013719783000,6.310782958984375,0.38584744930267334,-0.24185630679130554,-0.04942382872104645
1772896013729750500,6.32075048828125,0.6009988784790039,-0.32104912400245667,-0.0928458720445633
1772896013739718700,6.33071875,0.7790435552597046,-0.21007712185382843,-0.1400059312582016
1772896013749686800,6.340686767578125,0.8686714172363281,-0.05550245940685272,-0.21329931914806366
1772896013759655700,6.35065576171875,0.8079833984375,0.0720052570104599,-0.3260096311569214
1772896013769623800,6.360623779296875,0.6357210874557495,0.19072072207927704,-0.46107637882232666
1772896013779591700,6.370591796875,0.4467962980270386,0.22475427389144897,-0.5695945620536804
1772896013789560800,6.380560791015625,0.2653311789035797,0.1694481521844864,-0.5362600088119507
1772896013799529000,6.390529052734375,0.1404690444469452,0.05746214836835861,-0.4105490744113922
1772896013809496600,6.40049658203125,0.12872956693172455,-0.04910663515329361,-0.2266884297132492
1772896013819465700,6.4104658203125,0.16808077692985535,-0.1105877012014389,-0.032342392951250076
1772896013829433600,6.42043359375,0.1953938901424408,-0.16068336367607117,0.1054367795586586
1772896013839401700,6.430401611328125,0.20761391520500183,-0.17211800813674927,0.1864815354347229
1772896013849370600,6.44037060546875,0.22684380412101746,-0.12479789555072784,0.23695163428783417
1772896013859338800,6.4503388671875,0.23687124252319336,-0.032146818935871124,0.21892856061458588
1772896013869307000,6.460306884765625,0.19857871532440186,0.0021283291280269623,0.2196422815322876
1772896013879275800,6.47027587890625,0.11317728459835052,-0.07211201637983322,0.27779421210289
1772896013889244000,6.480243896484375,0.021607158705592155,-0.1452256441116333,0.3519235849380493
1772896013899211500,6.49021142578125,-0.010062736459076405,-0.20452654361724854,0.40580329298973083
1772896013909180700,6.5001806640625,0.03857430815696716,-0.21053223311901093,0.4409381151199341
1772896013919148800,6.510148681640625,0.09795055538415909,-0.19430506229400635,0.470234751701355
1772896013929116700,6.52011669921875,0.13965165615081787,-0.19306455552577972,0.4245050549507141
1772896013939085800,6.5300859375,0.1467100828886032,-0.17592552304267883,0.29552462697029114
1772896013949053700,6.5400537109375,0.06010141223669052,-0.1255560964345932,0.1291327327489853
1772896013959021800,6.550021728515625,-0.11760366708040237,-0.09725917130708694,-0.021889278665184975
1772896013968990700,6.55999072265625,-0.20945236086845398,-0.17608873546123505,-0.07259133458137512
1772896013978958800,6.569958740234375,-0.18199074268341064,-0.24999333918094635,-0.004862089175730944
1772896013988926700,6.5799267578125,-0.14170697331428528,-0.2990868389606476,0.06973598152399063
1772896013998895600,6.5898955078125,-0.09826868772506714,-0.29594749212265015,0.056527502834796906
1772896014008863700,6.59986376953125,-0.046067532151937485,-0.27560070157051086,0.005899212323129177
1772896014018831600,6.60983154296875,-0.08162009716033936,-0.2715713381767273,-0.118018738925457
1772896014028800800,6.61980078125,-0.1547611653804779,-0.2759591341018677,-0.26991480588912964
1772896014038769000,6.629768798828125,-0.24447311460971832,-0.29264408349990845,-0.39925339818000793
1772896014048736800,6.63973681640625,-0.2566642761230469,-0.35280755162239075,-0.43467557430267334
1772896014058706000,6.649705810546875,-0.26732540130615234,-0.38164034485816956,-0.4050377905368805
1772896014068673800,6.659673828125,-0.28329741954803467,-0.30585476756095886,-0.3747060000896454
1772896014078641700,6.6696416015625,-0.2303101122379303,-0.19197185337543488,-0.39367571473121643
1772896014088611000,6.679611083984375,-0.17031387984752655,-0.1886381059885025,-0.40431904792785645
1772896014098579200,6.6895791015625,-0.12354163825511932,-0.21521002054214478,-0.3803311288356781
1772896014108547300,6.69954736328125,-0.06921715289354324,-0.20902083814144135,-0.40022629499435425
1772896014118516200,6.70951611328125,-0.020209530368447304,-0.09272675216197968,-0.38211125135421753
1772896014128484400,6.719484375,0.2608990967273712,0.03741687536239624,-0.2601962685585022
1772896014138452200,6.7294521484375,1.0605071783065796,-0.06308974325656891,0.05072370544075966
1772896014148421400,6.73942138671875,1.8560850620269775,-0.14449432492256165,0.4791296422481537
1772896014158389000,6.749388916015625,1.7096025943756104,-0.21753817796707153,0.6221078038215637
1772896014168357000,6.759357177734375,1.0331164598464966,-0.1358339935541153,0.2751404941082001
1772896014178326000,6.769325927734375,0.19005130231380463,0.18003608286380768,-0.09594476222991943
1772896014188294100,6.779294189453125,-0.6872844696044922,0.43344196677207947,-0.3317048251628876
1772896014198262300,6.78926220703125,-1.4819339513778687,0.46115243434906006,-0.7028473019599915
1772896014208230100,6.799230224609375,-1.9841456413269043,0.7901143431663513,-0.8519824743270874
1772896014218199300,6.80919921875,-2.056267499923706,1.126413106918335,-0.3449362814426422
1772896014228167200,6.819167236328125,-1.6771773099899292,1.12321138381958,0.5337747931480408
1772896014238135000,6.829135009765625,-1.2558661699295044,0.9243845343589783,1.168697714805603
1772896014248104200,6.839104248046875,-1.035561203956604,0.4638957679271698,1.1850868463516235
1772896014258072000,6.849072021484375,-0.9223847389221191,0.02977871149778366,0.6481307148933411
1772896014268040200,6.859040283203125,-0.8200503587722778,-0.18684440851211548,-0.020551210269331932
1772896014278009000,6.869009033203125,-0.6382532119750977,-0.20805466175079346,-0.591387152671814
1772896014287977200,6.878977294921875,-0.4790010452270508,-0.11922439187765121,-0.9687983393669128
1772896014297945300,6.8889453125,-0.2749461531639099,0.08924759924411774,-1.154112696647644
1772896014307914200,6.898914306640625,0.004693233873695135,0.22900603711605072,-1.1473909616470337
1772896014317882400,6.90888232421875,0.24082745611667633,0.253108412027359,-0.9734684228897095
1772896014327850000,6.91885009765625,0.35011348128318787,0.1330675184726715,-0.6964357495307922
1772896014337819100,6.928819091796875,0.4214670658111572,-0.06074381247162819,-0.4149412214756012
1772896014347787300,6.938787353515625,0.5206159949302673,-0.215923011302948,-0.22599446773529053
1772896014357755100,6.948755126953125,0.653616726398468,-0.2705601453781128,-0.08045215159654617
1772896014367724300,6.958724365234375,0.8016943335533142,-0.2696879804134369,0.039321381598711014
1772896014377692200,6.968692138671875,0.8725040555000305,-0.2041429877281189,0.07359796017408371
1772896014387660300,6.978660400390625,0.8077799081802368,-0.08581022173166275,0.046564482152462006
1772896014397629200,6.988629150390625,0.6565595865249634,0.022802498191595078,0.0002034432254731655
1772896014407597300,6.998597412109375,0.5318671464920044,0.017801612615585327,0.007721547037363052
1772896014417565200,7.008565185546875,0.4127490222454071,-0.010093401186168194,0.04713713005185127
1772896014427534000,7.0185341796875,0.31641316413879395,-0.04368012398481369,0.08722702413797379
1772896014437502200,7.028502197265625,0.26878684759140015,-0.08184560388326645,0.12832076847553253
1772896014447470000,7.038469970703125,0.3084556758403778,-0.07638213038444519,0.15142102539539337
1772896014457439200,7.048439208984375,0.39032474160194397,0.02984710782766342,0.14964376389980316
1772896014467407000,7.058406982421875,0.39006003737449646,0.13655544817447662,0.07345445454120636
1772896014477375200,7.068375244140625,0.3574080467224121,0.18531665205955505,-0.07876674830913544
1772896014487344400,7.078344482421875,0.35586076974868774,0.23160213232040405,-0.22727473080158234
1772896014497312300,7.088312255859375,0.25558117032051086,0.20936869084835052,-0.25021466612815857
1772896014507280100,7.098280029296875,0.09412118047475815,0.1278059333562851,-0.1777292639017105
1772896014517249000,7.1082490234375,0.008638226427137852,-0.007270671892911196,-0.09170360863208771
1772896014527217200,7.118217041015625,0.012431100010871887,-0.13148875534534454,-0.0036840096581727266
1772896014537185300,7.128185302734375,0.08239442110061646,-0.1022307500243187,0.026349924504756927
1772896014547154200,7.138154296875,0.14827463030815125,-0.00011663511395454407,0.03146825358271599
1772896014557122300,7.148122314453125,0.21004924178123474,0.06864243745803833,0.050868917256593704
1772896014567090200,7.158090087890625,0.2640818655490875,0.053213682025671005,0.055027175694704056
1772896014577059300,7.168059326171875,0.2715202867984772,-0.003147604875266552,0.04584955796599388
1772896014587027200,7.178027099609375,0.21646741032600403,-0.03679291903972626,0.058807432651519775
1772896014596995000,7.1879951171875,0.12614494562149048,-0.10104461759328842,0.10999755561351776
1772896014606964200,7.197964111328125,0.051866449415683746,-0.26687246561050415,0.16928963363170624
1772896014616932000,7.20793212890625,-0.027215365320444107,-0.4373709261417389,0.2186787873506546
1772896014626900200,7.217900146484375,-0.12154852598905563,-0.5136609077453613,0.22663764655590057
1772896014636868400,7.227868408203125,-0.20438043773174286,-0.5460126996040344,0.20846079289913177
1772896014646837200,7.237837158203125,-0.25268858671188354,-0.5476987361907959,0.16748060286045074
1772896014656805400,7.247805419921875,-0.2882579565048218,-0.5899956226348877,0.11477349698543549
1772896014666773000,7.25777294921875,-0.3611835539340973,-0.5668511390686035,0.06273134052753448
1772896014676742100,7.2677421875,-0.440158486366272,-0.43483585119247437,0.009511420503258705
1772896014686710000,7.2777099609375,-0.5088350176811218,-0.3241990804672241,0.011360453441739082
1772896014696678100,7.28767822265625,-0.5808120965957642,-0.2823176980018616,0.047994568943977356
1772896014706647000,7.29764697265625,-0.672419548034668,-0.28550124168395996,0.07970482110977173
1772896014716615200,7.307615234375,-0.7916250824928284,-0.32102757692337036,0.1040765792131424
1772896014726583300,7.317583251953125,-0.9081330299377441,-0.3791060745716095,0.13064560294151306
1772896014736552200,7.32755224609375,-0.9186566472053528,-0.5447767376899719,0.12333103269338608
1772896014746520300,7.337520263671875,-0.798931360244751,-0.6490738391876221,-0.034914530813694
1772896014756488200,7.34748828125,-0.5453107357025146,-0.5811334252357483,-0.3716205656528473
1772896014766457000,7.35745703125,0.0979773998260498,-0.35952192544937134,-0.8372281789779663
1772896014776425200,7.36742529296875,1.5060559511184692,0.08867529034614563,-1.120928168296814
1772896014786393000,7.37739306640625,3.112198829650879,0.7203683257102966,-0.9707072377204895
1772896014796362200,7.3873623046875,3.5963146686553955,0.6717408299446106,-0.07241693139076233
1772896014806330000,7.397330078125,2.8751296997070312,0.3395228981971741,1.2069214582443237
1772896014816298200,7.40729833984375,1.2918975353240967,-0.0037505030632019043,2.1440441608428955
1772896014826267100,7.41726708984375,-0.508231520652771,-0.3226030468940735,2.1230266094207764
1772896014836235300,7.4272353515625,-1.7772296667099,-0.20458613336086273,1.387386679649353
1772896014846203100,7.437203125,-2.3370325565338135,0.5455379486083984,0.44025513529777527
1772896014856172000,7.447172119140625,-2.3567259311676025,1.1427092552185059,0.021794648841023445
1772896014866140200,7.45714013671875,-1.851015567779541,1.14017653465271,0.29383814334869385
1772896014876108300,7.4671083984375,-1.0095267295837402,0.6593265533447266,0.9916773438453674
1772896014886077200,7.4770771484375,-0.289102703332901,-0.04338102042675018,1.5083057880401611
1772896014896045300,7.48704541015625,0.0876496285200119,-0.6446908712387085,1.4196895360946655
1772896014906013200,7.49701318359375,0.13340194523334503,-0.7430067658424377,0.679296612739563
1772896014915982300,7.506982421875,-0.03637214004993439,-0.3699077069759369,-0.3011005222797394
1772896014925950200,7.5169501953125,-0.19068075716495514,0.13706547021865845,-1.1172667741775513
1772896014935918000,7.52691796875,-0.20338700711727142,0.45375365018844604,-1.4890753030776978
1772896014945887000,7.536886962890625,-0.10547960549592972,0.5733836889266968,-1.4916918277740479
1772896014955855000,7.546855224609375,0.0332724004983902,0.5554091930389404,-1.2753914594650269
1772896014965823200,7.5568232421875,0.22970928251743317,0.37993907928466797,-0.8944782614707947
1772896014975792000,7.566792236328125,0.5630539655685425,0.05867823585867882,-0.5040135383605957
1772896014985760300,7.57676025390625,0.9510214328765869,-0.2262573540210724,-0.1734018474817276
1772896014995728100,7.58672802734375,1.2326488494873047,-0.35401451587677,-0.01695963367819786
1772896015005697300,7.596697265625,1.2855616807937622,-0.29872915148735046,-0.06662013381719589
1772896015015665400,7.60666552734375,1.1108542680740356,-0.18975579738616943,-0.27974823117256165
1772896015025633000,7.616633056640625,0.8209559321403503,-0.061258528381586075,-0.569366455078125
1772896015035602200,7.626602294921875,0.5585722327232361,-0.05021253973245621,-0.788435161113739
1772896015045570000,7.636570068359375,0.35302653908729553,-0.10372369736433029,-0.8781943917274475
1772896015055538200,7.6465380859375,0.2432425320148468,-0.1934674233198166,-0.871819257736206
1772896015065507000,7.656507080078125,0.2089487463235855,-0.29867640137672424,-0.7747374176979065
1772896015075475200,7.66647509765625,0.2329321801662445,-0.34733846783638,-0.6299608945846558
1772896015085442800,7.67644287109375,0.2857450842857361,-0.360604465007782,-0.4703610837459564
1772896015095411700,7.68641162109375,0.33232831954956055,-0.2777352035045624,-0.32708173990249634
1772896015105379800,7.6963798828125,0.3343352675437927,-0.19836901128292084,-0.1787111759185791
1772896015115348000,7.706347900390625,0.23850616812705994,-0.1903638243675232,-0.03636721894145012
1772896015125316900,7.71631689453125,0.09625528752803802,-0.2358175814151764,0.05072001367807388
1772896015135285000,7.726284912109375,-0.04166252166032791,-0.3156213164329529,0.11426732689142227
1772896015145252600,7.736252685546875,-0.1273537278175354,-0.3230445981025696,0.1533351093530655
1772896015155221800,7.7462216796875,-0.14193212985992432,-0.2866460680961609,0.1665908396244049
1772896015165189600,7.756189697265625,-0.09919825941324234,-0.21086423099040985,0.1788533627986908
1772896015175157800,7.76615771484375,-0.025512034073472023,-0.14723443984985352,0.21523578464984894
1772896015185126700,7.776126708984375,0.03734149783849716,-0.055819038301706314,0.26756423711776733
1772896015195094800,7.7860947265625,0.05934405326843262,0.0350421741604805,0.330541729927063
1772896015205063000,7.79606298828125,-0.011758885346353054,0.09159280359745026,0.4053640365600586
1772896015215031800,7.80603173828125,-0.09960857033729553,0.05140943080186844,0.48713377118110657
1772896015225000000,7.816,-0.12134875357151031,-0.09839338064193726,0.5603720545768738
1772896015234967800,7.8259677734375,-0.0712020993232727,-0.23722906410694122,0.6350661516189575
1772896015244936700,7.835936767578125,0.02510233037173748,-0.26814648509025574,0.6747980713844299
1772896015254904800,7.84590478515625,0.10316650569438934,-0.2271803617477417,0.682891309261322
1772896015264872700,7.855872802734375,0.13931331038475037,-0.1598609834909439,0.6238855123519897
1772896015274840800,7.8658408203125,0.13548552989959717,-0.08719217032194138,0.5064817070960999
1772896015284809700,7.875809814453125,0.09432397037744522,0.005120719783008099,0.3436294198036194
1772896015294777900,7.88577783203125,0.03424258902668953,0.06973061710596085,0.1705978810787201
1772896015304746000,7.89574609375,-0.05927004665136337,0.08242430537939072,0.018735380843281746
1772896015314715000,7.90571484375,-0.14007437229156494,0.021137509495019913,-0.08950673788785934
1772896015324682800,7.915682861328125,-0.18417233228683472,-0.032408006489276886,-0.1473495215177536
1772896015334651600,7.925651611328125,-0.1724182665348053,-0.0807688981294632,-0.16223332285881042
1772896015344619800,7.935619873046875,-0.17936965823173523,-0.10355756431818008,-0.16388636827468872
1772896015354588000,7.945587890625,-0.20925435423851013,-0.041160181164741516,-0.21706323325634003
1772896015364555800,7.9555556640625,-0.2745018005371094,0.050979066640138626,-0.27924832701683044
1772896015374525000,7.96552490234375,-0.38151970505714417,0.08710621297359467,-0.3416373133659363
1772896015384492800,7.975492919921875,-0.48325514793395996,0.1523994654417038,-0.3258167803287506
1772896015394461000,7.9854609375,-0.4954427182674408,0.22753597795963287,-0.11879851669073105
1772896015404429800,7.995429931640625,-0.2547915279865265,-0.023399032652378082,0.12040448188781738
1772896015414397700,8.005397705078124,0.3964751064777374,-0.1953311264514923,0.1679150015115738
1772896015424365800,8.01536572265625,1.0739760398864746,0.06574945896863937,0.1636291891336441
1772896015434334700,8.025334716796875,1.2532085180282593,0.39666855335235596,0.33698570728302
1772896015444302800,8.035302734375,0.9191016554832458,0.2933181822299957,0.5835477709770203
1772896015454270700,8.045270751953124,0.5604273676872253,0.28993862867355347,0.8868802785873413
1772896015464239900,8.055239990234375,-0.14336860179901123,0.3747294247150421,0.865597128868103
1772896015474208000,8.0652080078125,-1.2480366230010986,-0.026023058220744133,0.23675546050071716
1772896015484176000,8.07517578125,-2.2437517642974854,0.17423519492149353,-0.5229109525680542
1772896015494145000,8.08514501953125,-2.46757435798645,0.908110499382019,-0.8065633773803711
1772896015504112600,8.095112548828125,-2.0945956707000732,1.1885401010513306,-0.3795028030872345
1772896015514080800,8.105080810546875,-1.678563117980957,0.8538166284561157,0.399411678314209
1772896015524049700,8.115049560546876,-1.415924072265625,0.31493958830833435,0.8750717043876648
1772896015534017800,8.125017822265624,-1.2600290775299072,-0.1661258488893509,0.6941394805908203
1772896015543986000,8.13498583984375,-1.1507571935653687,-0.40024858713150024,-0.0867358148097992
1772896015553954800,8.144954833984375,-1.1115754842758179,-0.3334602415561676,-1.133313536643982
1772896015563923000,8.1549228515625,-1.05724036693573,-0.0862930417060852,-1.9763530492782593
1772896015573890800,8.164890869140624,-0.8663358688354492,0.1915135383605957,-2.2331106662750244
1772896015583860000,8.17485986328125,-0.6040664315223694,0.35566064715385437,-1.959910273551941
1772896015593827800,8.184827880859375,-0.3093036115169525,0.33076706528663635,-1.3236128091812134
1772896015603795700,8.194795654296875,-0.05462605878710747,0.1787727326154709,-0.6227348446846008
1772896015613764900,8.204764892578124,0.18098880350589752,0.022524740546941757,-0.12634319067001343
1772896015623732700,8.214732666015625,0.45057928562164307,-0.07837177813053131,0.10481520742177963
1772896015633700900,8.224700927734375,0.7027394771575928,-0.10410240292549133,0.12821470201015472
1772896015643669800,8.234669677734376,0.886737585067749,-0.0750768780708313,0.0898476094007492
1772896015653638000,8.244637939453124,0.9727410078048706,-0.04483858495950699,0.07350122928619385
1772896015663606000,8.25460595703125,0.994367778301239,-0.045794662088155746,0.11373014003038406
1772896015673575000,8.264574951171875,0.975612223148346,-0.05457742512226105,0.20718501508235931
1772896015683542800,8.274542724609375,0.9060352444648743,-0.01268856506794691,0.3363025188446045
1772896015693510700,8.2845107421875,0.7766743302345276,-0.02673088014125824,0.4871889650821686
1772896015703479800,8.294479736328125,0.6428345441818237,-0.13358968496322632,0.6305029988288879
1772896015713448000,8.304447998046875,0.5562566518783569,-0.24092042446136475,0.7037913203239441
1772896015723415800,8.314415771484375,0.5013212561607361,-0.3153485953807831,0.6752683520317078
1772896015733385000,8.324385009765624,0.4731495976448059,-0.29666388034820557,0.5850071310997009
1772896015743352800,8.334352783203125,0.459921658039093,-0.2966596484184265,0.4459017515182495
1772896015753321000,8.344321044921875,0.47885963320732117,-0.32437777519226074,0.32828399538993835
1772896015763289900,8.354289794921876,0.47135430574417114,-0.3288428485393524,0.284747451543808
1772896015773257700,8.3642578125,0.4361205995082855,-0.2959804832935333,0.2990146279335022
1772896015783225900,8.374225830078124,0.392226904630661,-0.2419939637184143,0.3465808033943176
1772896015793194800,8.38419482421875,0.34291040897369385,-0.22856418788433075,0.4255004823207855
1772896015803163000,8.394162841796875,0.2921673655509949,-0.28076454997062683,0.5227455496788025
1772896015813130800,8.404130859375,0.25278303027153015,-0.34712037444114685,0.5839266180992126
1772896015823100000,8.414099853515625,0.2003839910030365,-0.38114359974861145,0.5682256817817688
1772896015833067800,8.42406787109375,0.1312306970357895,-0.39694786071777344,0.5203849673271179
1772896015843036000,8.434035888671875,0.06557604670524597,-0.43011006712913513,0.46349427103996277
1772896015853005000,8.444005126953124,0.020281046628952026,-0.44243597984313965,0.41707444190979004
1772896015862972700,8.45397265625,-0.005746559239923954,-0.4533573389053345,0.34880536794662476
1772896015872940800,8.46394091796875,-0.03865213692188263,-0.46324676275253296,0.2772529125213623
1772896015882909700,8.47390966796875,-0.15211185812950134,-0.5538535714149475,0.21565426886081696
1772896015892877800,8.4838779296875,-0.2961972951889038,-0.6572707891464233,0.12367900460958481
1772896015902846000,8.493845947265624,-0.4031623601913452,-0.6911914944648743,-0.009769598953425884
1772896015912814800,8.50381494140625,-0.4732714593410492,-0.6990064978599548,-0.22484812140464783
1772896015922783000,8.513782958984375,-0.5178956389427185,-0.6850582361221313,-0.49936142563819885
1772896015932750600,8.52375048828125,-0.5682177543640137,-0.6194451451301575,-0.7969158887863159
1772896015942720000,8.533719970703125,-0.6218783259391785,-0.5447794795036316,-1.0421838760375977
1772896015952687600,8.5436875,-0.6445414423942566,-0.4598117768764496,-1.2222658395767212
1772896015962655700,8.55365576171875,-0.6411690711975098,-0.37132957577705383,-1.306262493133545
1772896015972625000,8.563625,-0.6259164214134216,-0.30504077672958374,-1.287542462348938
1772896015982592800,8.5735927734375,-0.6900738477706909,-0.2681235074996948,-1.228042483329773
1772896015992561000,8.583560791015625,-0.8080520629882812,-0.1947774589061737,-1.1956582069396973
1772896016002529800,8.59352978515625,-0.8710862398147583,-0.06294485926628113,-1.2283415794372559
1772896016012498000,8.603497802734376,-0.8076484203338623,0.0352831706404686,-1.290495753288269
1772896016022465800,8.6134658203125,-0.6940432786941528,0.11213108152151108,-1.3613598346710205
1772896016032434700,8.6234345703125,-0.49654120206832886,0.26967036724090576,-1.3381671905517578
1772896016042402800,8.63340283203125,-0.12101256847381592,0.5179107785224915,-1.196007490158081
1772896016052370700,8.64337060546875,0.5146897435188293,0.874853789806366,-0.8239433169364929
1772896016062339800,8.65333984375,0.9666715860366821,1.0419882535934448,0.0551280751824379
1772896016072307700,8.6633076171875,0.7836490273475647,0.4438944160938263,1.1315251588821411
1772896016082275800,8.67327587890625,0.7002220749855042,0.07837234437465668,1.9170691967010498
1772896016092245200,8.683245361328124,0.8910524845123291,0.3088950216770172,2.117976188659668
1772896016102213000,8.693213134765625,0.33624517917633057,0.2432824671268463,1.4743512868881226
1772896016112181200,8.70318115234375,-0.9249951839447021,0.20341147482395172,0.22070921957492828
1772896016122150100,8.713150146484375,-1.6748098134994507,0.7329869270324707,-0.8348733186721802
1772896016132118300,8.7231181640625,-1.6102246046066284,1.1198451519012451,-1.0409290790557861
1772896016142086100,8.733086181640624,-1.2851306200027466,0.9844300746917725,-0.4027006924152374
1772896016152055300,8.74305517578125,-1.03926682472229,0.569247305393219,0.3559747338294983
1772896016162023400,8.7530234375,-0.7883365154266357,0.27203983068466187,0.5974411368370056
1772896016171991300,8.7629912109375,-0.48922085762023926,0.11420248448848724,0.2152274250984192
1772896016181960400,8.77296044921875,-0.24082013964653015,0.05429547280073166,-0.5071393251419067
1772896016191928000,8.782927978515625,-0.08302513509988785,0.2102838158607483,-1.175958514213562
1772896016201896200,8.792896240234375,0.013836166821420193,0.40832313895225525,-1.4104151725769043
1772896016211865000,8.802864990234376,0.12517763674259186,0.4590032994747162,-1.195369005203247
1772896016221833200,8.812833251953125,0.27580520510673523,0.38065603375434875,-0.628596842288971
1772896016231801300,8.82280126953125,0.39936333894729614,0.34245404601097107,-0.006920316256582737
1772896016241770200,8.832770263671875,0.5450478792190552,0.29543620347976685,0.48594745993614197
1772896016251738400,8.84273828125,0.6943195462226868,0.23652204871177673,0.8154778480529785
1772896016261706200,8.852706298828124,0.8804670572280884,0.22216761112213135,0.9793189764022827
1772896016271675400,8.86267529296875,1.0614328384399414,0.23122335970401764,1.0297154188156128
1772896016281643300,8.872643310546875,1.2035495042800903,0.2273567169904709,1.0067400932312012
1772896016291611100,8.882611083984376,1.267694354057312,0.223260298371315,0.8667948246002197
1772896016301580300,8.892580322265625,1.22786283493042,0.15051685273647308,0.6024750471115112
1772896016311548200,8.902548095703125,1.0568326711654663,0.052079491317272186,0.2689743638038635
1772896016321516300,8.912516357421875,0.8082164525985718,0.0613614022731781,-0.0981580913066864
1772896016331485200,8.922485107421876,0.5764815807342529,0.11521846055984497,-0.3881980776786804
1772896016341453300,8.932453369140624,0.43750375509262085,0.13707102835178375,-0.5337401628494263
1772896016351421200,8.942421142578125,0.3821563124656677,0.17418430745601654,-0.5524672865867615
1772896016361390300,8.952390380859375,0.3520125150680542,0.2289559543132782,-0.4441376030445099
1772896016371358200,8.962358154296876,0.301333487033844,0.27092525362968445,-0.252040296792984
1772896016381326000,8.972326171875,0.27189674973487854,0.23496593534946442,0.005483655724674463
1772896016391295200,8.982295166015625,0.2766339182853699,0.13648276031017303,0.27568408846855164
1772896016401263400,8.992263427734375,0.27229243516921997,0.08913520723581314,0.49753203988075256
1772896016411231200,9.002231201171876,0.23255451023578644,0.07664768397808075,0.6708528399467468
1772896016421200400,9.012200439453125,0.20005781948566437,0.07616192102432251,0.8322241306304932
1772896016431168300,9.022168212890625,0.17510302364826202,0.05026856064796448,0.9604039192199707
1772896016441136000,9.03213623046875,0.1267211139202118,0.0719967633485794,1.0359036922454834
1772896016451105000,9.04210498046875,0.06786412745714188,0.17504936456680298,1.0447916984558105
1772896016461073200,9.0520732421875,-0.0004976177588105202,0.26154032349586487,1.0304734706878662
1772896016471041300,9.062041259765625,-0.0153702013194561,0.29000288248062134,1.0096040964126587
1772896016481010200,9.07201025390625,0.0429903119802475,0.27258607745170593,0.9535336494445801
1772896016490978300,9.081978271484376,0.1274501085281372,0.22893893718719482,0.8785099983215332
1772896016500946200,9.0919462890625,0.1785457879304886,0.18002066016197205,0.796789288520813
1772896016510915300,9.101915283203125,0.16558483242988586,0.14189274609088898,0.7022992968559265
1772896016520883200,9.11188330078125,0.14045605063438416,0.09635534882545471,0.5837521553039551
1772896016530851000,9.12185107421875,0.12904943525791168,0.04956333711743355,0.4561437666416168
1772896016540820200,9.1318203125,0.09373670816421509,0.015745986253023148,0.2971205413341522
1772896016550788000,9.1417880859375,0.01785770058631897,0.01952582225203514,0.13416555523872375
1772896016560756200,9.151756103515625,-0.09474527835845947,0.04135255888104439,-0.011208144947886467
1772896016570725000,9.16172509765625,-0.18001948297023773,0.06357821822166443,-0.1253412365913391
1772896016580693200,9.171693359375,-0.22372567653656006,0.04385724663734436,-0.2145901471376419
1772896016590661400,9.181661376953125,-0.24487294256687164,0.06244527921080589,-0.23632141947746277
1772896016600630300,9.19163037109375,-0.28378304839134216,0.08891656249761581,-0.20161670446395874
1772896016610598400,9.201598388671876,-0.3859926462173462,0.11609742045402527,-0.10964848101139069
1772896016620566000,9.21156591796875,-0.5251273512840271,0.09242617338895798,-0.029053768143057823
1772896016630535200,9.22153515625,-0.6606652140617371,0.007631595246493816,-0.02662215195596218
1772896016640503300,9.23150341796875,-0.7714434266090393,-0.1087338924407959,-0.08521649241447449
1772896016650471200,9.24147119140625,-0.7892839908599854,-0.06058981269598007,-0.15047098696231842
1772896016660440300,9.2514404296875,-0.7567947506904602,0.1420772671699524,-0.19910269975662231
1772896016670408200,9.261408203125,-0.5685861706733704,0.36484456062316895,-0.35313132405281067
1772896016680376300,9.271376220703125,0.0853130891919136,0.4348883628845215,-0.4609028100967407
1772896016690345200,9.28134521484375,1.403222918510437,0.7199070453643799,-0.13863101601600647
1772896016700313300,9.291313232421874,2.7212679386138916,0.9234716296195984,0.7835873365402222
1772896016710281200,9.30128125,3.490133762359619,0.14004021883010864,2.3416757583618164
1772896016720250000,9.31125,3.6779637336730957,-0.6817684173583984,3.951512098312378
1772896016730218200,9.32121826171875,3.06113600730896,-0.8833598494529724,4.347195148468018
1772896016740186000,9.33118603515625,1.0747655630111694,-0.5312867760658264,2.931150197982788
1772896016750152400,9.34115234375,-1.5690844058990479,0.11783239990472794,0.46658429503440857
1772896016760120000,9.3511201171875,-3.5044288635253906,1.2986706495285034,-1.5181424617767334
1772896016770088200,9.361088134765625,-4.267330646514893,1.9525171518325806,-2.3320322036743164
1772896016780057000,9.37105712890625,-3.9501452445983887,1.4823403358459473,-2.2395479679107666
1772896016790025200,9.381025146484374,-3.2011630535125732,0.5333731770515442,-1.7127822637557983
1772896016799993300,9.390993408203125,-2.535163402557373,-0.006526798941195011,-1.2430328130722046
1772896016809962200,9.400962158203125,-1.965038537979126,-0.17603464424610138,-0.9579216241836548
1772896016819930400,9.410930419921876,-1.4877585172653198,-0.2897984981536865,-0.9516165852546692
1772896016829898200,9.420898193359376,-1.081676721572876,-0.29115962982177734,-1.1781798601150513
1772896016839867400,9.430867431640625,-0.7813647985458374,-0.12761253118515015,-1.3983335494995117
1772896016849835300,9.440835205078125,-0.5771217346191406,0.14185334742069244,-1.420863151550293
1772896016859803100,9.45080322265625,-0.3921830356121063,0.2610934376716614,-1.1295567750930786
1772896016869772300,9.460772216796874,-0.2016591578722,0.10049492120742798,-0.5789114832878113
1772896016879740200,9.470740234375,0.07351729273796082,-0.14160452783107758,-0.0009640217758715153
1772896016889708300,9.480708251953125,0.3806384205818176,-0.3539140522480011,0.4633944034576416
1772896016899677200,9.49067724609375,0.6324486136436462,-0.4146146774291992,0.7421354651451111
1772896016909645300,9.500645263671874,0.8072708249092102,-0.2728269398212433,0.7728187441825867
1772896016919613200,9.51061328125,0.963446855545044,-0.09795153886079788,0.6903755068778992
1772896016929582000,9.52058203125,1.0964773893356323,-0.0007123071700334549,0.5172775983810425
1772896016939550200,9.53055029296875,1.098116397857666,-0.037357136607170105,0.356033593416214
1772896016949518000,9.54051806640625,0.9103738069534302,-0.1623706817626953,0.2539120018482208
1772896016959487200,9.5504873046875,0.6677771210670471,-0.2619800865650177,0.10479550063610077
1772896016969455400,9.560455322265625,0.4959065020084381,-0.3106486201286316,-0.12175555527210236
1772896016979423200,9.57042333984375,0.40461495518684387,-0.30589061975479126,-0.37094035744667053
1772896016989392400,9.580392333984374,0.3711632788181305,-0.23687034845352173,-0.6058565378189087
1772896016999360300,9.5903603515625,0.34196358919143677,-0.08937915414571762,-0.7653375267982483
1772896017009328000,9.600328125,0.3058522939682007,0.07972095161676407,-0.8174677491188049
1772896017019297000,9.610297119140625,0.27433085441589355,0.19977810978889465,-0.7752888798713684
1772896017029265200,9.62026513671875,0.2613811790943146,0.21286679804325104,-0.6483203172683716
1772896017039233300,9.6302333984375,0.2295239120721817,0.1421966254711151,-0.42259424924850464
1772896017049202200,9.6402021484375,0.15103685855865479,0.041847653687000275,-0.14576952159404755
1772896017059170300,9.65017041015625,0.043693091720342636,-0.04701244458556175,0.1258726418018341
1772896017069138200,9.66013818359375,-0.05919376760721207,-0.12286244332790375,0.32083386182785034
1772896017079107300,9.670107421875,-0.14094296097755432,-0.11302179843187332,0.39392831921577454
1772896017089075200,9.6800751953125,-0.19430822134017944,-0.03052479773759842,0.34501713514328003
1772896017099042600,9.69004248046875,-0.20200875401496887,0.07221382856369019,0.23232200741767883
1772896017109011700,9.70001171875,-0.18363606929779053,0.15363247692584991,0.0727398544549942
1772896017118979600,9.7099794921875,-0.16347327828407288,0.2253471463918686,-0.07410631328821182
1772896017128947700,9.71994775390625,-0.18259799480438232,0.28589117527008057,-0.23347020149230957
1772896017138916600,9.72991650390625,-0.25876012444496155,0.24932223558425903,-0.303556889295578
1772896017148884700,9.739884765625,-0.38315561413764954,0.12408581376075745,-0.3123644292354584
1772896017158852900,9.749852783203124,-0.4828142821788788,-0.008344125002622604,-0.2821633815765381
1772896017168824600,9.759824462890625,-0.521499752998352,-0.09988579154014587,-0.23995979130268097
1772896017178792700,9.769792724609376,-0.5065921545028687,-0.12292639911174774,-0.20520101487636566
1772896017188761600,9.77976171875,-0.46178552508354187,-0.10520650446414948,-0.13527294993400574
1772896017198729700,9.789729736328125,-0.4023136794567108,-0.08294381201267242,-0.06283442676067352
1772896017208697900,9.79969775390625,-0.35107386112213135,0.006129025481641293,-0.05265578255057335
1772896017218666800,9.809666748046874,-0.336531400680542,0.10622420161962509,-0.0482647605240345
1772896017228635000,9.819634765625,-0.3575919568538666,0.14174097776412964,-0.024596862494945526
1772896017238602800,9.829602783203125,-0.4316254258155823,0.14316709339618683,0.0725744217634201
1772896017248571600,9.839571533203125,-0.5171267986297607,0.08180040121078491,0.257006973028183
1772896017258539800,9.849539794921874,-0.5742419958114624,-0.025600891560316086,0.46469199657440186
1772896017268507600,9.859507568359374,-0.6019666790962219,-0.13995304703712463,0.5812088251113892
1772896017278476800,9.869476806640625,-0.609871506690979,-0.18987587094306946,0.5907109975814819
1772896017288444700,9.879444580078125,-0.5582122206687927,-0.14389531314373016,0.49142104387283325
1772896017298412800,9.889412841796876,-0.5022693276405334,-0.07482916116714478,0.3515577018260956
1772896017308381700,9.899381591796875,-0.4958467185497284,-0.04903002455830574,0.02378864213824272
1772896017318349800,9.909349853515625,-0.46904999017715454,0.0017865495756268501,-0.47076621651649475
1772896017328317700,9.919317626953125,0.006909405346959829,0.08298122137784958,-0.9523943662643433
1772896017338286600,9.92928662109375,1.155302882194519,0.11075931787490845,-1.2207471132278442
1772896017348254700,9.939254638671875,2.567678689956665,0.02065950073301792,-0.624100923538208
1772896017358222800,9.949222900390625,3.670987367630005,-0.4905923306941986,0.6464444994926453
1772896017368191700,9.959191650390625,4.508147716522217,-0.8312163949012756,2.038304090499878
1772896017378159900,9.969159912109374,4.4127960205078125,-0.8702232241630554,2.884676694869995
1772896017388127700,9.979127685546874,3.081841230392456,-1.352475881576538,2.589799642562866
1772896017398097000,9.989096923828125,1.136253833770752,-1.4215178489685059,1.1658457517623901
1772896017408064800,9.999064697265625,-0.6641553640365601,-0.523720383644104,-0.5970991253852844
1772896017418032600,10.00903271484375,-1.8026801347732544,0.6309985518455505,-1.8356285095214844
1772896017428001500,10.01900146484375,-2.2662911415100098,1.2924798727035522,-2.2323496341705322
1772896017437969700,10.0289697265625,-2.2168800830841064,1.0562396049499512,-2.035132884979248
1772896017447937800,10.038937744140625,-1.955926537513733,0.3530241549015045,-1.605486273765564
1772896017457906700,10.04890673828125,-1.6467149257659912,-0.17618244886398315,-1.248500943183899
1772896017467874800,10.058874755859375,-1.4049327373504639,-0.27381014823913574,-1.0279262065887451
1772896017477842700,10.0688427734375,-1.1931922435760498,-0.27035871148109436,-0.8514384627342224
1772896017487811800,10.078811767578125,-0.971739649772644,-0.2589326798915863,-0.6729399561882019
1772896017497780000,10.088780029296874,-0.7886773943901062,-0.25793400406837463,-0.5436216592788696
1772896017507747600,10.09874755859375,-0.6599970459938049,-0.1938672959804535,-0.48159924149513245
1772896017517716700,10.108716796875,-0.6535860300064087,-0.04371481388807297,-0.458651602268219
1772896017527684600,10.1186845703125,-0.6967838406562805,0.09909258037805557,-0.4535498023033142
1772896017537652700,10.12865283203125,-0.6618186831474304,0.14190396666526794,-0.4377593994140625
1772896017547621600,10.13862158203125,-0.5498074293136597,0.09471696615219116,-0.40518197417259216
1772896017557589800,10.14858984375,-0.3277045488357544,0.024742674082517624,-0.396968275308609
1772896017567558000,10.158557861328125,-0.04546435922384262,-0.041094135493040085,-0.36816301941871643
1772896017577526800,10.16852685546875,0.20307648181915283,-0.031231116503477097,-0.3253694772720337
1772896017587495000,10.178494873046875,0.4098617732524872,0.04573773220181465,-0.2911991477012634
1772896017597463800,10.1884638671875,0.5730565190315247,0.15732817351818085,-0.2574039101600647
1772896017607431700,10.198431640625,0.6519963145256042,0.1971205770969391,-0.254432737827301
1772896017617399800,10.20839990234375,0.639825701713562,0.1661117970943451,-0.2885803282260895
1772896017627368700,10.21836865234375,0.5730990767478943,0.08679486811161041,-0.3766360282897949
1772896017637336800,10.2283369140625,0.4980194568634033,-0.01937604695558548,-0.5122795701026917
1772896017647304700,10.2383046875,0.40529483556747437,-0.11422421038150787,-0.6268212795257568
1772896017657273900,10.24827392578125,0.3404953181743622,-0.13294489681720734,-0.7324947118759155
1772896017667241700,10.25824169921875,0.31093230843544006,-0.0937562882900238,-0.8515500426292419
1772896017677209900,10.2682099609375,0.30727630853652954,-0.004783010110259056,-0.9103806018829346
1772896017687178800,10.2781787109375,0.31478968262672424,0.06759566068649292,-0.9155247211456299
1772896017697146600,10.288146728515626,0.30832672119140625,0.09503526985645294,-0.8221076726913452
1772896017707114800,10.29811474609375,0.2845858931541443,0.046629898250103,-0.6495081782341003
1772896017717083600,10.308083740234375,0.25533854961395264,-0.06943278759717941,-0.3987577557563782
1772896017727051800,10.3180517578125,0.22240151464939117,-0.21928729116916656,-0.07515677064657211
1772896017737020000,10.32802001953125,0.167234405875206,-0.34801357984542847,0.2530940771102905
1772896017746988800,10.33798876953125,0.07697231322526932,-0.33913829922676086,0.4615432918071747
1772896017756957000,10.34795703125,-0.026734378188848495,-0.24305328726768494,0.5589390993118286
1772896017766924500,10.357924560546875,-0.06110473349690437,-0.13185997307300568,0.5643625259399414
1772896017776894000,10.36789404296875,-0.020807910710573196,-0.05255981534719467,0.5198368430137634
1772896017786861600,10.377861572265624,0.03651544824242592,-0.023708757013082504,0.473648339509964
1772896017796829700,10.38782958984375,0.04797502979636192,-0.0061617204919457436,0.43553581833839417
1772896017806798600,10.397798583984375,0.030013564974069595,-0.004505181685090065,0.39776211977005005
1772896017816766700,10.4077666015625,-0.004596875049173832,-0.03264014795422554,0.3725217282772064
1772896017826734800,10.41773486328125,-0.06088927388191223,-0.08460935950279236,0.3672172725200653
1772896017836703700,10.427703857421875,-0.0974091961979866,-0.12980718910694122,0.3684505820274353
1772896017846672000,10.437671875,-0.06988799571990967,-0.11597205698490143,0.35082417726516724
1772896017856639700,10.4476396484375,-0.008152461610734463,-0.0907074436545372,0.2998049259185791
1772896017866608600,10.457608642578125,0.03721235692501068,-0.055125217884778976,0.2448740154504776
1772896017876576800,10.46757666015625,0.05370451137423515,-0.0024841083213686943,0.14569178223609924
1772896017886544600,10.477544677734375,0.024252574890851974,0.026584284380078316,0.012721383944153786
1772896017896513800,10.487513671875,-0.07471395283937454,0.021336792036890984,-0.09689565747976303
1772896017906481700,10.497481689453124,-0.19526682794094086,0.029045291244983673,-0.22933220863342285
1772896017916449800,10.50744970703125,-0.2664291560649872,0.13624152541160583,-0.40748676657676697
1772896017926418700,10.517418701171875,-0.2475244104862213,0.293701708316803,-0.5742295980453491
1772896017936386800,10.52738671875,-0.09556575864553452,0.3099749684333801,-0.7447126507759094
1772896017946354700,10.537354736328124,0.3214067220687866,0.15506155788898468,-0.8371367454528809
1772896017956323600,10.547323486328125,1.3175350427627563,-0.23430031538009644,-0.9520771503448486
1772896017966291700,10.557291748046875,2.8894243240356445,-0.5731473565101624,-1.0002291202545166
1772896017976260600,10.567260498046876,4.202573776245117,-0.31640636920928955,-0.7641177177429199
1772896017986228700,10.577228759765624,4.241253852844238,-0.18052494525909424,-0.34580495953559875
1772896017996196900,10.58719677734375,3.633297920227051,-0.24572418630123138,0.2967425584793091
1772896018006165800,10.597165771484375,3.189281702041626,-0.11040017753839493,1.4869626760482788
1772896018016134000,10.6071337890625,2.3344180583953857,-0.7491079568862915,2.338697671890259
1772896018026101800,10.617101806640624,1.0084459781646729,-1.6111221313476562,2.303865671157837
1772896018036071000,10.62707080078125,-0.3408738672733307,-1.2864041328430176,1.96480393409729
1772896018046038500,10.63703857421875,-1.3342995643615723,-0.007258074823766947,1.3926267623901367
1772896018056006700,10.647006591796876,-1.931701898574829,1.046155571937561,0.5375987887382507
1772896018065975600,10.6569755859375,-2.352160692214966,1.6058508157730103,-0.3471836447715759
1772896018075943700,10.666943603515625,-2.556467294692993,1.7689372301101685,-0.9664003252983093
1772896018085911800,10.676911865234375,-2.392810583114624,1.5111054182052612,-1.2718158960342407
1772896018095881500,10.686881591796874,-1.9365822076797485,0.9865853786468506,-1.304978370666504
1772896018105849600,10.696849609375,-1.428768515586853,0.2947172522544861,-1.1493782997131348
1772896018115817500,10.7068173828125,-1.0808137655258179,-0.29140403866767883,-0.7873324155807495
1772896018125786600,10.71678662109375,-0.8458988666534424,-0.4904170632362366,-0.34721800684928894
1772896018135754200,10.726754150390626,-0.6987376809120178,-0.339832067489624,0.05911751091480255
1772896018145722400,10.736722412109375,-0.6190966367721558,0.0710364356637001,0.3180479109287262
1772896018155691300,10.746691162109375,-0.5207335352897644,0.4499379098415375,0.36178845167160034
1772896018165659400,10.756659423828125,-0.3863026797771454,0.6602953672409058,0.31614547967910767
1772896018175627500,10.76662744140625,-0.21938052773475647,0.6739813685417175,0.23059463500976562
1772896018185596400,10.776596435546875,-0.10019342601299286,0.5818240642547607,0.1503608673810959
1772896018195564500,10.786564453125,-0.07139613479375839,0.4106334149837494,0.0607239231467247
1772896018205532700,10.79653271484375,-0.1519128829240799,0.18166173994541168,0.02547816000878811
1772896018215501600,10.80650146484375,-0.2673065960407257,-0.0025203395634889603,-0.02794591709971428
1772896018225469400,10.816469482421875,-0.35600173473358154,-0.0711507722735405,-0.12813347578048706
1772896018235437300,10.826437255859375,-0.38016432523727417,-0.027100756764411926,-0.24446222186088562
1772896018245406500,10.836406494140626,-0.3041715919971466,0.03718394413590431,-0.42031434178352356
1772896018255374300,10.846374267578126,-0.13014760613441467,0.07976789772510529,-0.5737217664718628
1772896018265342500,10.856342529296874,0.06303039938211441,0.09968747943639755,-0.6781395673751831
1772896018275311400,10.866311279296875,0.21539729833602905,0.09704216569662094,-0.7254282832145691
1772896018285279500,10.876279541015625,0.27041804790496826,0.05417328700423241,-0.7308669090270996
1772896018295247600,10.88624755859375,0.20796240866184235,-0.030108042061328888,-0.7034214735031128
1772896018305216500,10.896216552734375,0.10814469307661057,-0.12482277303934097,-0.655301570892334
1772896018315184400,10.906184326171875,0.0422263965010643,-0.2108343541622162,-0.5904011726379395
1772896018325153300,10.9161533203125,0.040890857577323914,-0.22084304690361023,-0.5160953998565674
1772896018335121400,10.926121337890624,0.09388136863708496,-0.19671374559402466,-0.4176606833934784
1772896018345089500,10.936089599609375,0.18108892440795898,-0.13581903278827667,-0.28366801142692566
1772896018355058400,10.946058349609375,0.2671167552471161,-0.0831259936094284,-0.1213105097413063
1772896018365026600,10.956026611328125,0.3040848672389984,-0.09565557539463043,0.05049492046236992
1772896018374994400,10.965994384765626,0.2907413840293884,-0.12865880131721497,0.18483594059944153
1772896018384963600,10.975963623046875,0.21683654189109802,-0.14625650644302368,0.2672787606716156
1772896018394931500,10.985931396484375,0.13624262809753418,-0.1492443084716797,0.30533987283706665
1772896018404899300,10.9958994140625,0.0812017098069191,-0.1598215252161026,0.33824777603149414
1772896018414868500,11.005868408203124,0.04489855468273163,-0.19292967021465302,0.3839193880558014
1772896018424836400,11.01583642578125,0.0255545936524868,-0.238310769200325,0.4342496991157532
1772896018434804500,11.025804443359375,0.007706089410930872,-0.24910588562488556,0.48464709520339966
1772896018444773400,11.0357734375,-0.007234402932226658,-0.23953305184841156,0.519705593585968
1772896018454741500,11.045741455078126,-0.04102299362421036,-0.2123088836669922,0.5684360861778259
1772896018464709600,11.055709716796875,-0.0840383917093277,-0.2128312885761261,0.6075321435928345
1772896018474678500,11.065678466796875,-0.16682036221027374,-0.26391151547431946,0.6216332912445068
1772896018484646700,11.075646728515625,-0.3463183343410492,-0.39881205558776855,0.5994846820831299
1772896018494614300,11.0856142578125,-0.5656214356422424,-0.5249403715133667,0.5386421084403992
1772896018504583400,11.09558349609375,-0.7601054906845093,-0.5417702794075012,0.4308469891548157
1772896018514551300,11.10555126953125,-0.8559150695800781,-0.467224657535553,0.3638274669647217
1772896018524519400,11.11551953125,-0.8165870308876038,-0.33938440680503845,0.36660316586494446
1772896018534488300,11.12548828125,-0.6950252056121826,-0.24266396462917328,0.41376322507858276
1772896018544456400,11.13545654296875,-0.5114327669143677,-0.17790015041828156,0.39809802174568176
1772896018554424600,11.145424560546875,-0.22345471382141113,-0.29480814933776855,0.2793292999267578
1772896018564393500,11.1553935546875,0.31177031993865967,-0.590235710144043,0.17415153980255127
1772896018574361600,11.165361572265626,1.6247990131378174,-0.7569882273674011,0.10356792062520981
1772896018584329500,11.17532958984375,3.410473346710205,-0.778190016746521,0.13526774942874908
1772896018594298400,11.18529833984375,4.743220329284668,-0.9250417947769165,0.4336232841014862
1772896018604266500,11.1952666015625,5.315608024597168,-1.189598798751831,0.7740283012390137
1772896018614234400,11.205234375,4.849910736083984,-0.6524059176445007,1.14182710647583
1772896018624203500,11.21520361328125,3.029325485229492,-0.38053765892982483,1.0900136232376099
1772896018634171400,11.22517138671875,0.44925615191459656,-0.22530652582645416,0.8238102197647095
1772896018644139500,11.235139404296875,-1.5135849714279175,0.4749873876571655,0.7785853743553162
1772896018654108400,11.2451083984375,-2.4272208213806152,0.9869678020477295,0.6980854868888855
1772896018664076300,11.255076171875,-2.827440023422241,1.2403295040130615,0.39669010043144226
1772896018674045400,11.26504541015625,-3.0643255710601807,1.3322323560714722,-0.12038206309080124
1772896018684013300,11.275013427734375,-2.9506208896636963,1.2971384525299072,-0.5586935877799988
1772896018693981400,11.2849814453125,-2.4713492393493652,1.061471939086914,-0.7306062579154968
1772896018703950300,11.294950439453125,-1.6951781511306763,0.6164464950561523,-0.612091600894928
1772896018713918500,11.30491845703125,-0.8798580169677734,0.0850263237953186,-0.3284529745578766
1772896018723886600,11.314886474609375,-0.4301048517227173,-0.2762208878993988,-0.019270766526460648
1772896018733855500,11.32485546875,-0.29831966757774353,-0.17433631420135498,-0.038104377686977386
1772896018743823600,11.33482373046875,-0.24933458864688873,0.1614920198917389,-0.30800679326057434
1772896018753791200,11.344791259765625,-0.18799667060375214,0.3441252112388611,-0.6496083736419678
1772896018763760400,11.354760498046875,-0.06681583821773529,0.305427610874176,-0.9669786691665649
1772896018773728300,11.364728271484376,0.08238109946250916,0.17084717750549316,-1.2085031270980835
1772896018783696400,11.3746962890625,0.15496668219566345,0.05276023596525192,-1.2956546545028687
1772896018793665500,11.38466552734375,0.18582819402217865,-0.03654274344444275,-1.2684954404830933
1772896018803633400,11.39463330078125,0.17165662348270416,-0.13164764642715454,-1.1897130012512207
1772896018813601500,11.4046015625,0.1020682230591774,-0.15646031498908997,-1.0596766471862793
1772896018823570400,11.4145703125,0.028248555958271027,-0.13669860363006592,-0.9104052186012268
1772896018833538600,11.42453857421875,0.0054204706102609634,-0.1071992963552475,-0.8056614995002747
1772896018843506400,11.43450634765625,0.018943337723612785,-0.08190756291151047,-0.7431254386901855
1772896018853475300,11.444475341796876,0.05154389142990112,-0.06599890440702438,-0.7170970439910889
1772896018863443500,11.454443359375,0.06930699944496155,-0.07987933605909348,-0.6852596402168274
1772896018873411300,11.464411376953125,0.06872589886188507,-0.08567304164171219,-0.6110586524009705
1772896018883380500,11.47438037109375,0.05539732426404953,-0.08268224447965622,-0.518038809299469
1772896018893348400,11.484348388671876,0.07439924776554108,-0.07817777246236801,-0.4435296952724457
1772896018903316500,11.49431640625,0.1169438436627388,-0.08302371203899384,-0.368172824382782
1772896018913285400,11.504285400390625,0.14693422615528107,-0.07608245313167572,-0.26326239109039307
1772896018923253500,11.51425341796875,0.1472938358783722,-0.020383749157190323,-0.1266673356294632
1772896018933221400,11.524221435546876,0.1414300799369812,0.08963596075773239,0.020924251526594162
1772896018943190300,11.534190185546874,0.13435128331184387,0.1697968691587448,0.19020630419254303
1772896018953158400,11.544158447265625,0.12408426403999329,0.17450454831123352,0.38445138931274414
1772896018963127300,11.554127197265625,0.1280439794063568,0.17249469459056854,0.5815269351005554
1772896018973095400,11.564095458984376,0.1281997710466385,0.19502103328704834,0.7479444146156311
1772896018983063600,11.5740634765625,0.1027420237660408,0.2358936220407486,0.8549407124519348
1772896018993032400,11.584032470703125,0.07308532297611237,0.2679237425327301,0.927546501159668
1772896019003000600,11.59400048828125,0.004172353073954582,0.23020166158676147,1.027477502822876
1772896019012968400,11.603968505859376,-0.05620737001299858,0.1464684158563614,1.1004174947738647
1772896019022937600,11.6139375,-0.09011636674404144,0.08905325084924698,1.180374264717102
1772896019032905200,11.6239052734375,-0.11527658998966217,0.10006248950958252,1.2289921045303345
1772896019042873300,11.633873291015625,-0.12189211696386337,0.13572567701339722,1.2405086755752563
1772896019052842500,11.643842529296874,-0.11806861311197281,0.16821570694446564,1.2409040927886963
1772896019062810400,11.653810302734374,-0.12069212645292282,0.19527508318424225,1.2378332614898682
1772896019072778500,11.663778564453125,-0.13456985354423523,0.20647820830345154,1.264277458190918
1772896019082747400,11.673747314453125,-0.15158219635486603,0.22934110462665558,1.34365713596344
1772896019092715300,11.68371533203125,-0.1877412647008896,0.23594945669174194,1.4715988636016846
1772896019102683400,11.693683349609374,-0.24076059460639954,0.18441841006278992,1.6146509647369385
1772896019112652300,11.70365234375,-0.2638094425201416,0.05890151113271713,1.7187373638153076
1772896019122620400,11.713620361328125,-0.2686825394630432,-0.08450013399124146,1.7845426797866821
1772896019132588300,11.72358837890625,-0.2720026969909668,-0.17856697738170624,1.7452356815338135
1772896019142557400,11.733557373046875,-0.2796768546104431,-0.21982413530349731,1.5691381692886353
1772896019152525300,11.743525390625,-0.291824609041214,-0.16919425129890442,1.3009549379348755
1772896019162493200,11.7534931640625,-0.2838592529296875,-0.08625353872776031,0.9457464814186096
1772896019172462300,11.76346240234375,-0.2645247280597687,-0.05873163044452667,0.602468729019165
1772896019182430200,11.77343017578125,-0.14450840651988983,-0.09625480324029922,0.20842769742012024
1772896019192398300,11.7833984375,0.38004934787750244,-0.13076749444007874,-0.14165280759334564
1772896019202367200,11.7933671875,1.5885416269302368,-0.2069069892168045,-0.1206221729516983
1772896019212335400,11.80333544921875,3.0953967571258545,-0.0765087679028511,0.47441908717155457
1772896019222303500,11.813303466796874,4.112268924713135,-0.24985846877098083,1.4492021799087524
1772896019232272400,11.8232724609375,4.171026229858398,-1.193331241607666,2.287306070327759
1772896019242240500,11.833240478515625,3.6603617668151855,-1.6424949169158936,2.37984299659729
1772896019252209400,11.84320947265625,2.0279033184051514,-0.9975244402885437,1.1168749332427979
1772896019262177300,11.85317724609375,-0.7232920527458191,0.10691484808921814,-0.7887168526649475
1772896019272145200,11.863145263671875,-3.365412950515747,1.7934942245483398,-2.1849191188812256
1772896019282114300,11.8731142578125,-4.741513729095459,3.3733022212982178,-2.6810004711151123
1772896019292082400,11.88308251953125,-4.6419758796691895,3.5774712562561035,-2.161114454269409
1772896019302050300,11.89305029296875,-3.692342758178711,2.3960845470428467,-0.9387733340263367
1772896019312019500,11.90301953125,-2.5946500301361084,0.8778976202011108,0.4208388328552246
1772896019321987300,11.9129873046875,-1.7464425563812256,-0.3051544725894928,1.3242909908294678
1772896019331955500,11.92295556640625,-1.1841989755630493,-0.8097166419029236,1.5149993896484375
1772896019341924400,11.93292431640625,-0.8349360823631287,-0.8515321612358093,1.046018362045288
1772896019351892200,11.942892333984375,-0.6025862097740173,-0.5243798494338989,0.20945928990840912
1772896019361860400,11.9528603515625,-0.4798765778541565,-0.11909008771181107,-0.6199856400489807
1772896019371829200,11.962829345703126,-0.401870459318161,0.11696559190750122,-1.2010765075683594
1772896019381797400,11.97279736328125,-0.3788130283355713,0.1276017427444458,-1.4328927993774414
1772896019391765200,11.98276513671875,-0.3861130177974701,0.019537584856152534,-1.397895097732544
1772896019401734400,11.992734375,-0.3397793769836426,-0.1556994915008545,-1.253178358078003
1772896019411702300,12.002702392578126,-0.20507510006427765,-0.3115308880805969,-1.0286797285079956
1772896019421670400,12.01267041015625,0.015117387287318707,-0.3656793534755707,-0.7788878083229065
1772896019431639600,12.0226396484375,0.33618593215942383,-0.19909119606018066,-0.6252133250236511
1772896019441607200,12.032607177734375,0.6219961047172546,0.06690247356891632,-0.5511488318443298
1772896019451575300,12.0425751953125,0.8006945252418518,0.25438690185546875,-0.47694411873817444
1772896019461544200,12.052544189453124,0.8102466464042664,0.25570884346961975,-0.39240163564682007
1772896019471512300,12.06251220703125,0.666434645652771,0.12281420826911926,-0.27538102865219116
1772896019481480400,12.07248046875,0.4629520773887634,-0.04340174421668053,-0.22973063588142395
1772896019491449300,12.082449462890626,0.3048892021179199,-0.17442554235458374,-0.2834332585334778
1772896019501417500,12.09241748046875,0.21413205564022064,-0.20958907902240753,-0.3918631672859192
1772896019511385000,12.102385009765625,0.1283835917711258,-0.1623304784297943,-0.5054911971092224
1772896019521354500,12.1123544921875,0.05627669021487236,-0.03039301186800003,-0.6007271409034729
1772896019531322400,12.122322265625,0.012111358344554901,0.10755926370620728,-0.6350457072257996
1772896019541291300,12.132291259765625,-0.04408103600144386,0.17828650772571564,-0.5598328113555908
1772896019551259400,12.14225927734375,-0.11601914465427399,0.16691985726356506,-0.4025702178478241
1772896019561227300,12.152227294921875,-0.1815893054008484,0.07816896587610245,-0.16612718999385834
1772896019571196400,12.162196533203126,-0.23581819236278534,-0.04030148312449455,0.10956485569477081
1772896019581164300,12.172164306640624,-0.2625913619995117,-0.14495287835597992,0.3471173048019409
1772896019591132400,12.18213232421875,-0.2618776261806488,-0.19282613694667816,0.4927874207496643
1772896019601101300,12.192101318359375,-0.2912813127040863,-0.20012900233268738,0.5443240404129028
1772896019611069200,12.202069091796876,-0.3594342768192291,-0.18436893820762634,0.5233567357063293
1772896019621037300,12.212037353515624,-0.4271033704280853,-0.13781775534152985,0.4460640847682953
1772896019631006200,12.222006103515625,-0.44876736402511597,-0.05695672333240509,0.323551744222641
1772896019640974300,12.231974365234375,-0.4407825171947479,0.02219965308904648,0.19318221509456635
1772896019650942200,12.241942138671876,-0.42957645654678345,0.06669256091117859,0.11545465141534805
1772896019660911400,12.251911376953124,-0.40925168991088867,0.07274886220693588,0.07061593234539032
1772896019670879500,12.26187939453125,-0.3885924816131592,0.0840878039598465,0.0534188412129879
1772896019680847400,12.271847412109375,-0.37905028462409973,0.07084685564041138,0.018387015908956528
1772896019690816500,12.28181640625,-0.3680857717990875,0.04449460655450821,-0.03306019306182861
1772896019700784000,12.2917841796875,-0.3473837077617645,0.034130048006772995,-0.09763214737176895
1772896019710752300,12.301752197265625,-0.3161930441856384,0.05137588083744049,-0.16006462275981903
1772896019720721200,12.31172119140625,-0.27558815479278564,0.11630512773990631,-0.18015693128108978
1772896019730689300,12.321689208984376,-0.2810436487197876,0.16148404777050018,-0.12373653054237366
1772896019740657400,12.331657470703124,-0.34244176745414734,0.1730291247367859,0.03910967707633972
1772896019750626300,12.341626220703125,-0.40775924921035767,0.14519482851028442,0.2748812139034271
1772896019760594400,12.351594482421875,-0.459697425365448,0.09539081901311874,0.47698208689689636
1772896019770562300,12.361562255859376,-0.4732095003128052,0.04053795337677002,0.6161069273948669
1772896019780531500,12.371531494140624,-0.45949873328208923,-0.007787288632243872,0.7705140709877014
1772896019790499300,12.381499267578125,-0.4347393214702606,-0.10298784077167511,0.9052863121032715
