time,seconds_elapsed,z,y,x
1772896007470892800,0.061892822265625,0.03785257413983345,0.1365906000137329,0.24721431732177734
1772896007480862000,0.071862060546875,0.015732357278466225,0.2333640158176422,0.223702073097229
1772896007490829800,0.081829833984375,-0.06941662728786469,0.4671003520488739,0.2890520393848419
1772896007500797700,0.091797607421875,-0.28131237626075745,0.4476877748966217,0.41281208395957947
1772896007510766800,0.101766845703125,-0.5802285075187683,0.551112949848175,0.573460042476654
1772896007520734700,0.111734619140625,-0.6984068155288696,0.3408678472042084,0.8151834607124329
1772896007530702800,0.121702880859375,-0.6307792663574219,0.005240834783762693,1.1692531108856201
1772896007540671700,0.131671630859375,-0.5476367473602295,-0.4691035747528076,1.4459837675094604
1772896007550639900,0.141639892578125,-0.5278531908988953,-1.0158153772354126,1.6344490051269531
1772896007560608000,0.15160791015625,-0.5629720091819763,-1.566226601600647,1.8486294746398926
1772896007570577000,0.161576904296875,-0.6042499542236328,-2.0881049633026123,1.9118574857711792
1772896007580544800,0.171544677734375,-0.6566657423973083,-2.3543014526367188,1.6936343908309937
1772896007590512600,0.1815126953125,-0.8009529113769531,-2.0637576580047607,1.393620252609253
1772896007600481800,0.191481689453125,-1.0063608884811401,-1.4048411846160889,1.2426471710205078
1772896007610449700,0.20144970703125,-1.145573377609253,-0.9539738297462463,1.0470672845840454
1772896007620417800,0.211417724609375,-1.051038146018982,-1.0320547819137573,0.9258109331130981
1772896007630386000,0.221385986328125,-1.0019270181655884,-1.2758477926254272,0.9844702482223511
1772896007640354800,0.231354736328125,-1.0638518333435059,-1.6459670066833496,1.1326842308044434
1772896007650323000,0.241322998046875,-1.2722828388214111,-1.6991417407989502,1.3135935068130493
1772896007660290800,0.251290771484375,-1.5544445514678955,-1.1070313453674316,1.3982080221176147
1772896007670259700,0.261259765625,-1.7113769054412842,-0.45623359084129333,1.4890058040618896
1772896007680227800,0.271227783203125,-1.7918511629104614,0.06130783259868622,1.5610864162445068
1772896007690195700,0.28119580078125,-1.8460068702697754,0.11602966487407684,1.4321435689926147
1772896007700164900,0.291164794921875,-1.8572008609771729,-0.1890125274658203,0.96885746717453
1772896007710132700,0.3011328125,-1.8284143209457397,-0.3496466875076294,0.2706810235977173
1772896007720100900,0.311100830078125,-1.8558200597763062,-0.9376614689826965,-0.5269505977630615
1772896007730069800,0.32106982421875,-1.365917682647705,-2.0373876094818115,-1.0068762302398682
1772896007740038000,0.331037841796875,-0.6205439567565918,-2.7538506984710693,-1.2107033729553223
1772896007750005800,0.341005859375,0.23828767240047455,-2.495547294616699,-1.0783005952835083
1772896007759974700,0.350974609375,1.0508538484573364,-1.8035584688186646,-0.8268417119979858
1772896007769942800,0.36094287109375,1.611796498298645,-1.5246996879577637,-0.5000748038291931
1772896007779911000,0.370910888671875,1.762744426727295,-1.5677489042282104,-0.18072663247585297
1772896007789879800,0.3808798828125,1.5799267292022705,-1.5469543933868408,0.10635333508253098
1772896007799848000,0.390847900390625,1.2003575563430786,-1.2567970752716064,0.3164895176887512
1772896007809815800,0.40081591796875,0.708247184753418,-0.8968107104301453,0.3577594757080078
1772896007819785000,0.410784912109375,0.3013928532600403,-0.5406177043914795,0.08184826374053955
1772896007829752800,0.4207529296875,0.2751266360282898,-0.2897418141365051,-0.3022264242172241
1772896007839720700,0.430720703125,0.4434970021247864,-0.20372650027275085,-0.6634607911109924
1772896007849688800,0.440688720703125,0.5579439401626587,0.17140983045101166,-0.826598584651947
1772896007859657700,0.45065771484375,0.5229883790016174,0.47416970133781433,-0.7095531821250916
1772896007869625900,0.4606259765625,0.451400488615036,0.3331385552883148,-0.6573802828788757
1772896007879593700,0.47059375,0.23886530101299286,0.08039311319589615,-0.5138475894927979
1772896007889563000,0.48056298828125,-0.04157860204577446,0.0779523253440857,-0.46303874254226685
1772896007899531000,0.490531005859375,-0.13688115775585175,0.23465697467327118,-0.5437328219413757
1772896007909499000,0.500498779296875,-0.05347733944654465,0.1757558435201645,-0.7068370580673218
1772896007919468000,0.510468017578125,0.09063562750816345,-0.07174023240804672,-0.8356815576553345
1772896007929435600,0.520435546875,0.21216045320034027,-0.35314396023750305,-0.9277070760726929
1772896007939403800,0.53040380859375,0.36174914240837097,-0.860230028629303,-1.0215702056884766
1772896007949372700,0.54037255859375,0.6103818416595459,-1.1443734169006348,-1.069437026977539
1772896007959340800,0.5503408203125,0.8439437747001648,-1.034847617149353,-1.0012468099594116
1772896007969309000,0.560308837890625,0.6886274218559265,-0.21271465718746185,-0.9093536734580994
1772896007979277800,0.57027783203125,0.25603044033050537,0.7857070565223694,-0.8741823434829712
1772896007989246000,0.580245849609375,0.1668475717306137,1.310093641281128,-1.0029677152633667
1772896007999213800,0.5902138671875,0.5142196416854858,1.9189494848251343,-1.2274056673049927
1772896008009183000,0.600182861328125,0.6909467577934265,2.0282561779022217,-1.2970010042190552
1772896008019150800,0.61015087890625,0.6053658127784729,2.139909029006958,-1.3269716501235962
1772896008029118700,0.62011865234375,0.38155561685562134,2.1286277770996094,-1.2510952949523926
1772896008039087900,0.630087890625,0.2763223946094513,2.3356308937072754,-1.2297015190124512
1772896008049055700,0.6400556640625,0.3710305392742157,2.469149351119995,-1.195765495300293
1772896008059024000,0.65002392578125,0.48549720644950867,2.45259690284729,-1.108502984046936
1772896008068992000,0.659991943359375,0.41171085834503174,2.131463050842285,-1.0602220296859741
1772896008078961200,0.669961181640625,0.09282554686069489,1.3957417011260986,-1.0401372909545898
1772896008088929300,0.67992919921875,-0.2190798819065094,0.7710511684417725,-0.964677631855011
1772896008098897200,0.689897216796875,-0.13933339715003967,0.5247617959976196,-0.8377231359481812
1772896008108866300,0.6998662109375,0.00993225909769535,0.5552456378936768,-0.6244471073150635
1772896008118834200,0.709834228515625,0.10386088490486145,0.6244966387748718,-0.4529315233230591
1772896008128802300,0.71980224609375,0.21316127479076385,0.4477202594280243,-0.41290661692619324
1772896008138771200,0.729771240234375,0.2882256805896759,0.1517021805047989,-0.4253275990486145
1772896008148739000,0.739739013671875,0.30539587140083313,-0.054784152656793594,-0.40150508284568787
1772896008158707200,0.749707275390625,0.2938380241394043,-0.17348843812942505,-0.3671111464500427
1772896008168676000,0.759676025390625,0.25629594922065735,-0.27550002932548523,-0.32050904631614685
1772896008178644200,0.769644287109375,0.34583649039268494,-0.26447612047195435,-0.32319962978363037
1772896008188612000,0.779612060546875,0.3862265348434448,-0.3293187618255615,-0.362822949886322
1772896008198581200,0.789581298828125,0.2425955981016159,-0.34658804535865784,-0.39610418677330017
1772896008208549400,0.79954931640625,0.06208467483520508,-0.33129003643989563,-0.428880512714386
1772896008218517200,0.809517333984375,-0.04808789864182472,-0.19657297432422638,-0.4392383396625519
1772896008228486400,0.819486328125,-0.052381448447704315,-0.023134080693125725,-0.4048774540424347
1772896008238454000,0.8294541015625,-0.027752002701163292,0.061416223645210266,-0.41634315252304077
1772896008248422100,0.839422119140625,0.026488598436117172,0.08983108401298523,-0.44942042231559753
1772896008258391000,0.84939111328125,0.10529739409685135,0.22102132439613342,-0.4453601539134979
1772896008268359200,0.859359130859375,0.2483016848564148,0.6660123467445374,-0.4133566915988922
1772896008278327300,0.869327392578125,0.46256524324417114,1.0521914958953857,-0.36073368787765503
1772896008288295200,0.879295166015625,0.6730380654335022,1.2153711318969727,-0.2990000247955322
1772896008298264300,0.889264404296875,0.7986639142036438,1.2724405527114868,-0.24192048609256744
1772896008308232200,0.899232177734375,0.7734125852584839,1.3177787065505981,-0.15454083681106567
1772896008318200000,0.909199951171875,0.6802579164505005,1.3167240619659424,-0.0679020881652832
1772896008328169200,0.919169189453125,0.6192456483840942,1.206630825996399,-0.00404640706256032
1772896008338137000,0.92913720703125,0.6208675503730774,1.0098751783370972,0.05446697026491165
1772896008348105200,0.939105224609375,0.6388502717018127,0.9280914068222046,0.10964926332235336
1772896008358074000,0.94907421875,0.6387748718261719,0.8264366984367371,0.15881921350955963
1772896008368042200,0.959042236328125,0.6532334685325623,0.6405315399169922,0.17382559180259705
1772896008378010400,0.96901025390625,0.6480631828308105,0.47014114260673523,0.22140109539031982
1772896008387979300,0.978979248046875,0.6327241659164429,0.4096167981624603,0.31646743416786194
1772896008397947400,0.988947509765625,0.6462557315826416,0.4312440752983093,0.43457114696502686
1772896008407915000,0.9989150390625,0.6814603209495544,0.3843732476234436,0.5300353765487671
1772896008417884200,1.00888427734375,0.722739577293396,0.2943440079689026,0.5482050776481628
1772896008427852000,1.01885205078125,0.707723081111908,0.1495135873556137,0.519446074962616
1772896008437820200,1.028820068359375,0.6525775194168091,-0.0016343819443136454,0.4922267198562622
1772896008447789300,1.038789306640625,0.5884643197059631,-0.11588984727859497,0.4881118834018707
1772896008457757200,1.048757080078125,0.4302847981452942,0.6967841386795044,0.7567257881164551
1772896008467725300,1.058725341796875,0.25575879216194153,0.3886715769767761,1.0720306634902954
1772896008477694200,1.068694091796875,0.29672062397003174,-0.015536615625023842,0.9565933346748352
1772896008487662000,1.078662109375,0.23089607059955597,0.241525799036026,0.8380155563354492
1772896008497630200,1.088630126953125,0.22375479340553284,0.30798470973968506,0.7403020262718201
1772896008507598000,1.09859814453125,0.336559921503067,0.25072622299194336,0.6899211406707764
1772896008517567200,1.108567138671875,0.33344295620918274,0.32523828744888306,0.5713841319084167
1772896008527535000,1.11853515625,0.35902419686317444,0.30742332339286804,0.42120447754859924
1772896008537503200,1.128503173828125,0.42072591185569763,0.2834245264530182,0.3318258821964264
1772896008547472100,1.13847216796875,0.411880224943161,0.24164405465126038,0.29151707887649536
1772896008557440300,1.148440185546875,0.36670395731925964,0.2055230587720871,0.2770686149597168
1772896008567408000,1.158408203125,0.28182530403137207,0.1667889803647995,0.290499746799469
1772896008577377000,1.168376953125,0.1692582666873932,0.10973155498504639,0.32948896288871765
1772896008587345200,1.17834521484375,0.07807376235723495,0.03955007344484329,0.35092872381210327
1772896008597313300,1.188313232421875,0.021917283535003662,-0.03849412873387337,0.3346640169620514
1772896008607282200,1.1982822265625,0.014311561360955238,-0.08639800548553467,0.28352171182632446
1772896008617250300,1.208250244140625,0.04749135300517082,-0.10421402007341385,0.2268696278333664
1772896008627218200,1.21821826171875,0.07887724041938782,-0.10454931110143661,0.1688462793827057
1772896008637187300,1.228187255859375,0.09379466623067856,-0.11633885651826859,0.1340097337961197
1772896008647155200,1.2381552734375,0.09184204041957855,-0.14955513179302216,0.12276612967252731
1772896008657123000,1.248123046875,0.09453289955854416,-0.182496577501297,0.13894963264465332
1772896008667092000,1.258092041015625,0.11215050518512726,-0.17527034878730774,0.1605159044265747
1772896008677060000,1.26806005859375,0.1261661946773529,-0.20945708453655243,0.16001416742801666
1772896008687028200,1.2780283203125,0.10803032666444778,-0.2879028916358948,0.12671640515327454
1772896008696997000,1.2879970703125,0.027968784794211388,-0.34560346603393555,0.06257043778896332
1772896008706965200,1.29796533203125,-0.03671540319919586,-0.22144770622253418,-0.007459514308720827
1772896008716933400,1.307933349609375,-0.1013023853302002,0.008562329225242138,-0.07242945581674576
1772896008726901200,1.3179013671875,-0.14251559972763062,0.16908836364746094,-0.09935162216424942
1772896008736870400,1.327870361328125,-0.14771994948387146,0.17010729014873505,-0.1271190643310547
1772896008746838000,1.337838134765625,-0.10498367249965668,0.12889406085014343,-0.1255725771188736
1772896008756806100,1.34780615234375,-0.05325443297624588,0.13220304250717163,-0.07866072654724121
1772896008766775000,1.357775146484375,-0.03615427389740944,0.10258816182613373,-0.03775323927402496
1772896008776743200,1.3677431640625,-0.05317427217960358,0.08174306899309158,-0.02503824234008789
1772896008786711300,1.377711181640625,-0.08232390135526657,0.11146128177642822,-0.041071005165576935
1772896008796680200,1.38768017578125,-0.09534010291099548,0.17286472022533417,-0.07122677564620972
1772896008806648300,1.3976484375,-0.12269369512796402,0.2026713490486145,-0.0998389795422554
1772896008816616200,1.4076162109375,-0.12889645993709564,0.19328157603740692,-0.14246873557567596
1772896008826585300,1.41758544921875,-0.10442893952131271,0.18759998679161072,-0.16462676227092743
1772896008836553200,1.42755322265625,-0.07408221811056137,0.21240466833114624,-0.1413976103067398
1772896008846521000,1.43752099609375,-0.03954128548502922,0.19249728322029114,-0.10536610335111618
1772896008856490200,1.447490234375,-0.020591560751199722,0.1489950716495514,-0.07175088673830032
1772896008866458000,1.4574580078125,-0.014871890656650066,0.10321559756994247,-0.0383407324552536
1772896008876426200,1.46742626953125,-0.010053965263068676,0.025974875316023827,-0.010794591158628464
1772896008886395100,1.47739501953125,-0.023604661226272583,-0.07863089442253113,-0.03521205112338066
1772896008896363300,1.48736328125,-0.018564363941550255,-0.1134306862950325,-0.05516871437430382
1772896008906331400,1.497331298828125,0.003049319377169013,-0.14613457024097443,-0.04266011342406273
1772896008916299000,1.507299072265625,-0.014056430198252201,-0.14438433945178986,-0.022274412214756012
1772896008926268200,1.51726806640625,-0.04187421128153801,-0.13381771743297577,-0.02900714986026287
1772896008936236000,1.527236083984375,-0.040054209530353546,-0.16791602969169617,-0.05356282740831375
1772896008946204200,1.5372041015625,-0.02280518040060997,-0.18659783899784088,-0.041199102997779846
1772896008956173000,1.547173095703125,-0.017885789275169373,-0.17391107976436615,-0.017254620790481567
1772896008966141200,1.55714111328125,0.004793157335370779,-0.16476711630821228,-0.006530071143060923
1772896008976109300,1.567109375,0.016283098608255386,-0.1953338086605072,0.011502725072205067
1772896008986078200,1.577078125,0.010386061854660511,-0.22745871543884277,0.06337923556566238
1772896008996046300,1.58704638671875,0.003576625371351838,-0.24174657464027405,0.14678198099136353
1772896009006014200,1.59701416015625,-0.013608220033347607,-0.2519241273403168,0.20452144742012024
1772896009015983000,1.606983154296875,-0.049797650426626205,-0.19889871776103973,0.23377680778503418
1772896009025951200,1.616951171875,-0.09575395286083221,-0.13454556465148926,0.217910498380661
1772896009035919000,1.626919189453125,-0.13239292800426483,-0.09649831056594849,0.14585600793361664
1772896009045888300,1.63688818359375,-0.15708789229393005,-0.09124255925416946,0.0954359769821167
1772896009055856000,1.646856201171875,-0.18651048839092255,-0.12563568353652954,0.04351338744163513
1772896009065824300,1.65682421875,-0.03568476065993309,-0.24639113247394562,0.07486678659915924
1772896009075793200,1.666793212890625,-0.040170587599277496,-0.19883666932582855,0.04800081625580788
1772896009085760300,1.67676025390625,-0.11411991715431213,-0.10760954767465591,0.06703416258096695
1772896009095728400,1.686728271484375,-0.16530533134937286,-0.07858002930879593,0.09591694176197052
1772896009105697300,1.696697265625,-0.16624942421913147,-0.15418876707553864,0.12898728251457214
1772896009115665400,1.70666552734375,-0.13155695796012878,-0.20069316029548645,0.1874399334192276
1772896009125633500,1.716633544921875,-0.1270386427640915,-0.1956470012664795,0.23479706048965454
1772896009135601400,1.726601318359375,-0.1446991264820099,-0.12150859087705612,0.23280900716781616
1772896009145570600,1.736570556640625,-0.09778168797492981,0.03154301270842552,0.1597592979669571
1772896009155538400,1.746538330078125,-0.07631208002567291,0.2081334888935089,0.04770307242870331
1772896009165506300,1.75650634765625,-0.00020879182557109743,0.32911503314971924,-0.036923930048942566
1772896009175475500,1.766475341796875,0.06780488044023514,0.3884827494621277,-0.16697673499584198
1772896009185443300,1.776443359375,0.04133279249072075,0.28881609439849854,-0.24396978318691254
1772896009195411500,1.786411376953125,-0.07396077364683151,0.10381986945867538,-0.231157585978508
1772896009205380400,1.79638037109375,-0.15574698150157928,-0.15983013808727264,-0.17631404101848602
1772896009215348500,1.806348388671875,-0.1779915690422058,-0.24998560547828674,-0.09788421541452408
1772896009225316600,1.816316650390625,-0.16253778338432312,-0.22022344172000885,0.019102854654192924
1772896009235285500,1.826285400390625,-0.12030723690986633,-0.0985923558473587,0.06951995193958282
1772896009245253600,1.836253662109375,-0.067685566842556,-0.0334801971912384,0.023845411837100983
1772896009255221200,1.84622119140625,-0.032574720680713654,0.02888437919318676,-0.06352544575929642
1772896009265190400,1.8561904296875,-0.03961079195141792,0.07932145148515701,-0.09827623516321182
1772896009275158500,1.866158447265625,-0.04688681662082672,0.10069411993026733,-0.08193827420473099
1772896009285126400,1.87612646484375,-0.049245577305555344,0.07720264047384262,-0.03995886817574501
1772896009295095600,1.886095458984375,-0.07479754090309143,0.040581513196229935,-0.003537210635840893
1772896009305063400,1.8960634765625,-0.11594897508621216,-0.023624103516340256,0.02648327313363552
1772896009315031600,1.906031494140625,-0.16287653148174286,-0.11753088980913162,0.05379825085401535
1772896009324999400,1.91599951171875,-0.1980385184288025,-0.23845970630645752,0.047500140964984894
1772896009334968300,1.92596826171875,-0.24654826521873474,-0.279812216758728,0.014839665964245796
1772896009344936400,1.9359365234375,-0.1598075032234192,-0.3515881299972534,0.011418835259974003
1772896009354904300,1.945904296875,-0.13399375975131989,-0.44632023572921753,0.022066952660679817
1772896009364873500,1.95587353515625,-0.14769838750362396,-0.48866263031959534,0.03015310876071453
1772896009374841300,1.96584130859375,-0.12675261497497559,-0.33029988408088684,0.06142101809382439
1772896009384809500,1.9758095703125,0.018994197249412537,-0.16575594246387482,0.10485664010047913
1772896009394778400,1.9857783203125,0.10838985443115234,-0.076296366751194,0.12887994945049286
1772896009404746500,1.99574658203125,0.07922904193401337,0.018172612413764,0.09532146155834198
1772896009414714400,2.00571435546875,0.03660035505890846,0.0955297201871872,0.016582705080509186
1772896009424683300,2.015683349609375,0.04073597863316536,0.11444695293903351,-0.03310548886656761
1772896009434651400,2.0256513671875,0.026019083335995674,0.13702842593193054,-0.05284483730792999
1772896009444619500,2.03561962890625,-0.009679525159299374,0.19963987171649933,-0.10447394102811813
1772896009454588400,2.04558837890625,-0.01386787835508585,0.19525231420993805,-0.17204739153385162
1772896009464556500,2.055556640625,-0.0028485171496868134,0.18044300377368927,-0.23528628051280975
1772896009474524400,2.0655244140625,-0.03208017349243164,0.17382079362869263,-0.2827683091163635
1772896009484492500,2.075492431640625,-0.06090649217367172,0.14421044290065765,-0.2795051336288452
1772896009494461400,2.08546142578125,-0.06492440402507782,0.08256331831216812,-0.21080757677555084
1772896009504429300,2.09542919921875,-0.041914958506822586,0.05794372782111168,-0.1545397788286209
1772896009514397400,2.1053974609375,-0.015677496790885925,0.065489262342453,-0.11365120112895966
1772896009524366300,2.115366455078125,0.007767109200358391,0.06480003148317337,-0.06803950667381287
1772896009534334500,2.12533447265625,-0.003920705523341894,0.04249446466565132,-0.032283104956150055
1772896009544302300,2.13530224609375,-0.027276095002889633,0.04278741031885147,-0.03566744923591614
1772896009554271500,2.145271484375,-0.025949841365218163,0.036733247339725494,-0.01624581590294838
1772896009564239600,2.155239501953125,0.021136177703738213,-0.01028752513229847,-0.005634449888020754
1772896009574207500,2.16520751953125,0.06627169996500015,-0.07491445541381836,-0.03164900466799736
1772896009584176600,2.1751767578125,0.06613188236951828,-0.10308989882469177,-0.10113034397363663
1772896009594144300,2.185144287109375,0.05573463439941406,-0.08965345472097397,-0.15308275818824768
1772896009604112400,2.1951123046875,0.07296209037303925,-0.10666492581367493,-0.1514451801776886
1772896009614081300,2.205081298828125,0.07333626598119736,-0.15184465050697327,-0.10091729462146759
1772896009624049400,2.21504931640625,0.045938462018966675,-0.15835554897785187,-0.01896090805530548
1772896009634017500,2.225017578125,0.02309812791645527,-0.18619677424430847,0.05697273835539818
1772896009643986400,2.234986328125,-0.011375692673027515,-0.12284762412309647,0.12576085329055786
1772896009653954600,2.24495458984375,-0.03746907785534859,-0.08090150356292725,0.11318487673997879
1772896009663922400,2.25492236328125,-0.060267601162195206,-0.03773805871605873,-0.040341030806303024
1772896009673891600,2.2648916015625,-0.023449134081602097,-0.0707724392414093,-0.14369884133338928
1772896009683859500,2.274859375,0.05842336267232895,-0.22496627271175385,-0.17530231177806854
1772896009693827300,2.284827392578125,0.10079611837863922,-0.4417870044708252,-0.21056123077869415
1772896009703795500,2.29479541015625,0.05561425909399986,-0.6154935359954834,-0.07986580580472946
1772896009713764400,2.304764404296875,-0.021677065640687943,-0.5202903151512146,0.08091136068105698
1772896009723732500,2.314732421875,-0.09355685114860535,-0.4344233572483063,0.17139331996440887
1772896009733700600,2.32470068359375,-0.09686502814292908,-0.5266481041908264,0.23194508254528046
1772896009743669500,2.33466943359375,-0.07947884500026703,-0.5109455585479736,0.2703995406627655
1772896009753637600,2.3446376953125,-0.10350854694843292,-0.41277000308036804,0.27191805839538574
1772896009763605200,2.354605224609375,-0.12699337303638458,-0.23878754675388336,0.28143221139907837
1772896009773574400,2.364574462890625,-0.15401379764080048,-0.06924671679735184,0.32246673107147217
1772896009783542300,2.374542236328125,-0.15474483370780945,0.14847788214683533,0.3693554103374481
1772896009793510400,2.384510498046875,-0.1328563243150711,0.15284493565559387,0.4462437927722931
1772896009803479600,2.3944794921875,-0.1954565793275833,-0.05862735956907272,0.5432918071746826
1772896009813447400,2.404447509765625,-0.21714377403259277,-0.1583518236875534,0.6730255484580994
1772896009823415600,2.41441552734375,-0.19250766932964325,-0.026612170040607452,0.7052183747291565
1772896009833384400,2.424384521484375,-0.0933520495891571,-0.06124524772167206,0.7349246144294739
1772896009843352600,2.4343525390625,-0.049726277589797974,-0.2786004841327667,0.8631443381309509
1772896009853320400,2.444320556640625,-0.07997046411037445,-0.4293931722640991,1.0642873048782349
1772896009863289300,2.454289306640625,-0.08381793648004532,-0.4653141498565674,1.184195637702942
1772896009873257500,2.464257568359375,-0.22314013540744781,-0.3433786630630493,1.09055757522583
1772896009883225300,2.474225341796875,-0.32944953441619873,-0.22947447001934052,0.8596010208129883
1772896009893193500,2.484193359375,-0.13679832220077515,-0.39605680108070374,0.5912699699401855
1772896009903162400,2.494162353515625,0.1259283721446991,-0.6240183115005493,0.26760241389274597
1772896009913130500,2.504130615234375,0.42458057403564453,-1.2336251735687256,0.04742610454559326
1772896009923098400,2.514098388671875,0.562028169631958,-1.8175315856933594,0.038355112075805664
1772896009933067500,2.524067626953125,0.5642226338386536,-2.109915256500244,0.06309374421834946
1772896009943035400,2.534035400390625,0.4568652808666229,-2.405029773712158,0.013635384850203991
1772896009953003500,2.54400341796875,0.25821396708488464,-2.620332717895508,-0.12527696788311005
1772896009962972400,2.553972412109375,0.12697765231132507,-2.385991334915161,-0.3157755434513092
1772896009972940500,2.5639404296875,0.027695810422301292,-1.711706519126892,-0.5234951972961426
1772896009982908400,2.573908447265625,-0.16665875911712646,-0.6268119812011719,-0.8012383580207825
1772896009992877600,2.583877685546875,-0.3511694669723511,0.10322092473506927,-1.049543023109436
1772896010002845400,2.593845458984375,-0.4347650408744812,0.1902538239955902,-1.2607619762420654
1772896010012813300,2.603813232421875,-0.5510641932487488,0.05579988285899162,-1.2940376996994019
1772896010022782200,2.6137822265625,-0.3634714186191559,-0.2914179861545563,-1.2131891250610352
1772896010032750300,2.623750244140625,-0.1691139191389084,-0.7529004216194153,-0.9468144774436951
1772896010042718500,2.633718505859375,0.17876841127872467,-1.5091902017593384,-0.6600793600082397
1772896010052687400,2.643687255859375,0.3279123604297638,-1.8173328638076782,-0.2867433428764343
1772896010062655500,2.653655517578125,0.164210245013237,-1.995633602142334,0.05318119749426842
1772896010072623600,2.66362353515625,0.08372233062982559,-2.006887912750244,0.21357539296150208
1772896010082591500,2.673591552734375,0.1257225126028061,-1.617462396621704,0.09435392916202545
1772896010092560600,2.683560546875,0.012254003435373306,-1.112475872039795,-0.14765258133411407
1772896010102528500,2.693528564453125,-0.18217432498931885,-0.7657940983772278,-0.332419753074646
1772896010112496400,2.703496337890625,-0.2095300555229187,-0.47046390175819397,-0.4555417001247406
1772896010122465300,2.71346533203125,-0.13862872123718262,-0.2016737312078476,-0.6073370575904846
1772896010132433400,2.723433349609375,-0.025721341371536255,-0.08694262057542801,-0.7429444193840027
1772896010142401500,2.733401611328125,0.1410740315914154,-0.12535738945007324,-0.634869396686554
1772896010152370400,2.743370361328125,0.4088681936264038,-0.23109208047389984,-0.44372472167015076
1772896010162338600,2.753338623046875,0.6237701177597046,-0.4791239798069,-0.1513354629278183
1772896010172306400,2.763306396484375,0.7296984195709229,-0.9899856448173523,0.3423056900501251
1772896010182275600,2.773275634765625,0.7878666520118713,-1.6508498191833496,0.5606361627578735
1772896010192243500,2.783243408203125,0.7983570694923401,-1.9160996675491333,0.1419411599636078
1772896010202211300,2.79321142578125,0.7519477605819702,-1.9928297996520996,-0.23714463412761688
1772896010212180500,2.803180419921875,0.6334392428398132,-2.7127420902252197,0.24593280255794525
1772896010222148400,2.8131484375,0.6985365152359009,-3.373575448989868,0.902803897857666
1772896010232116500,2.823116455078125,0.8529212474822998,-3.745086669921875,1.1477211713790894
1772896010242084600,2.833084716796875,0.9831852912902832,-3.907487630844116,1.3147213459014893
1772896010252053500,2.843053466796875,1.0990493297576904,-3.8585586547851562,1.3890116214752197
1772896010262021600,2.853021728515625,1.2707581520080566,-3.665379047393799,1.22089684009552
1772896010271989500,2.862989501953125,1.4995274543762207,-3.447077989578247,0.8631302118301392
1772896010281958700,2.872958740234375,1.683304786682129,-3.1972553730010986,0.5070751905441284
1772896010291926300,2.88292626953125,1.7003905773162842,-3.0072414875030518,0.3055679202079773
1772896010301894400,2.892894287109375,1.5790987014770508,-3.0198376178741455,0.2402874380350113
1772896010311863300,2.90286328125,1.4484254121780396,-3.1942784786224365,0.13492026925086975
1772896010321831400,2.91283154296875,1.3654063940048218,-3.446378707885742,-0.08636258542537689
1772896010331799600,2.922799560546875,1.4470967054367065,-3.403346300125122,-0.36198991537094116
1772896010341768400,2.9327685546875,1.5533491373062134,-3.222892999649048,-0.6080121994018555
1772896010351736600,2.942736572265625,1.678608775138855,-2.9405908584594727,-0.7190356254577637
1772896010361704700,2.95270458984375,1.8690029382705688,-2.799548387527466,-0.7789636850357056
1772896010371673600,2.962673583984375,2.0494189262390137,-2.6466457843780518,-0.9425994753837585
1772896010381641500,2.972641357421875,2.11232852935791,-2.235656261444092,-1.1389199495315552
1772896010391609300,2.982609375,2.090808629989624,-1.8388175964355469,-1.1152095794677734
1772896010401578500,2.99257861328125,2.1088650226593018,-1.5767298936843872,-1.0519353151321411
1772896010411546400,3.00254638671875,2.2330434322357178,-1.3808916807174683,-1.1552436351776123
1772896010421514500,3.012514404296875,2.4515178203582764,-1.3301395177841187,-1.1926335096359253
1772896010431482600,3.022482666015625,2.594677448272705,-1.3829100131988525,-1.0405458211898804
1772896010441451500,3.032451416015625,2.350043296813965,-1.4089171886444092,-0.8478743433952332
1772896010451419600,3.042419677734375,1.9819457530975342,-1.384061574935913,-1.0621861219406128
1772896010461387500,3.052387451171875,1.869446873664856,-1.6950263977050781,-1.431954264640808
1772896010471356400,3.0623564453125,1.862718939781189,-1.6995817422866821,-1.4421123266220093
1772896010481324500,3.072324462890625,1.5866607427597046,-1.1376214027404785,-0.8554179668426514
1772896010491292400,3.08229248046875,1.1489601135253906,-0.38832297921180725,-0.19536790251731873
1772896010501261600,3.092261474609375,0.8134135603904724,0.08736100047826767,0.2237153798341751
1772896010511229400,3.1022294921875,0.6706806421279907,0.31736862659454346,0.3429035544395447
1772896010521197600,3.112197509765625,0.5572389960289001,0.3990824222564697,0.3781883120536804
1772896010531166500,3.12216650390625,0.27874746918678284,0.390924870967865,0.3412894308567047
1772896010541134600,3.132134521484375,-0.14538462460041046,0.11256515979766846,0.20708367228507996
1772896010551102500,3.1421025390625,-0.48258182406425476,-0.3406846225261688,-0.07504069060087204
1772896010561071400,3.1520712890625,-0.7566192150115967,-0.7286014556884766,-0.18715737760066986
1772896010571039500,3.16203955078125,-0.9179295897483826,-0.8597893118858337,-0.09812577068805695
1772896010581007400,3.17200732421875,-0.9379506707191467,-0.6965420842170715,0.09887997806072235
1772896010590975500,3.1819755859375,-0.7633141875267029,-0.43607664108276367,0.26097726821899414
1772896010600944600,3.191944580078125,-0.5398054122924805,-0.18646788597106934,0.3377103805541992
1772896010610912500,3.20191259765625,-0.33552873134613037,0.07754219323396683,0.28213581442832947
1772896010620880600,3.211880615234375,-0.30455297231674194,0.4001505970954895,0.195275217294693
1772896010630849500,3.221849609375,-0.4078836143016815,0.4930989146232605,0.04565456882119179
1772896010640817400,3.2318173828125,-0.5182484984397888,0.2223353385925293,-0.1789790689945221
1772896010650785500,3.24178564453125,-0.6252692341804504,-0.19496016204357147,-0.36371830105781555
1772896010660754400,3.25175439453125,-0.6591156125068665,-0.37250033020973206,-0.3435800075531006
1772896010670722600,3.26172265625,-0.4522678554058075,-0.3336173892021179,-0.14038453996181488
1772896010680690400,3.2716904296875,-0.09332887828350067,-0.22036725282669067,0.16652905941009521
1772896010690659600,3.28165966796875,0.125059112906456,-0.17146176099777222,0.34332194924354553
1772896010700627500,3.29162744140625,0.07569848746061325,-0.2017887830734253,0.2555854320526123
1772896010710595300,3.30159521484375,-0.06358589977025986,-0.3590431213378906,-0.12101244181394577
1772896010720564500,3.311564453125,-0.21230506896972656,-0.5202024579048157,-0.5775434970855713
1772896010730532400,3.321532470703125,-0.37971776723861694,-0.6049484610557556,-1.0076026916503906
1772896010740500500,3.33150048828125,-0.442102313041687,-0.5327898859977722,-1.2408019304275513
1772896010750468600,3.341468505859375,-0.3758769631385803,-0.36101439595222473,-1.2704654932022095
1772896010760437500,3.3514375,-0.19358384609222412,-0.15597735345363617,-1.1408390998840332
1772896010770405600,3.361405517578125,-0.020476512610912323,-0.016775785014033318,-0.9324818849563599
1772896010780373500,3.37137353515625,-0.12130911648273468,0.05649017542600632,-0.7399646043777466
1772896010790342700,3.3813427734375,-0.3763326108455658,-0.00800040178000927,-0.6500051617622375
1772896010800310300,3.391310302734375,-0.5343310236930847,-0.18022942543029785,-0.6376110911369324
1772896010810278400,3.4012783203125,-0.5410557985305786,-0.41733598709106445,-0.5981257557868958
1772896010820247300,3.411247314453125,-0.5194975137710571,-0.5418244004249573,-0.555590808391571
1772896010830215400,3.42121533203125,-0.4737534523010254,-0.4041517376899719,-0.575317919254303
1772896010840183600,3.43118359375,-0.4472059905529022,-0.08897354453802109,-0.6282327771186829
1772896010850152400,3.44115234375,-0.4150371551513672,0.2085380256175995,-0.7334747910499573
1772896010860120600,3.45112060546875,-0.30984681844711304,0.3173031210899353,-0.8665401339530945
1772896010870088700,3.461088623046875,-0.231307253241539,0.4239771068096161,-0.8872438073158264
1772896010880057600,3.4710576171875,0.005793174263089895,0.36836764216423035,-0.5660812258720398
1772896010890025500,3.481025390625,0.832423985004425,-0.20125322043895721,0.2968764007091522
1772896010899993300,3.490993408203125,2.19461727142334,-0.8743693232536316,1.744931936264038
1772896010909961500,3.50096142578125,3.047173261642456,-0.9351066946983337,3.420994281768799
1772896010919930400,3.510930419921875,2.3756449222564697,-0.411512166261673,4.1162028312683105
1772896010929898500,3.5208984375,0.09370411932468414,0.16502676904201508,2.969876766204834
1772896010939866600,3.53086669921875,-2.474876642227173,0.8426875472068787,0.7222543358802795
1772896010949835500,3.54083544921875,-4.046219825744629,1.3410874605178833,-1.2944585084915161
1772896010959803600,3.5508037109375,-4.263668060302734,1.0877513885498047,-2.128985643386841
1772896010969771300,3.560771240234375,-3.7061448097229004,0.6959617733955383,-1.6157374382019043
1772896010979740400,3.570740478515625,-3.0567595958709717,0.5113937854766846,-0.350202739238739
1772896010989708500,3.58070849609375,-2.31290340423584,0.23514167964458466,1.091162085533142
1772896010999676400,3.590676513671875,-1.674258828163147,-0.18639864027500153,2.1947147846221924
1772896011009645600,3.6006455078125,-1.5289663076400757,-0.36098989844322205,2.1028218269348145
1772896011019613400,3.610613525390625,-1.5692849159240723,-0.03604961186647415,1.0391510725021362
1772896011029581600,3.62058154296875,-1.3896342515945435,0.3928580582141876,-0.1568087935447693
1772896011039550500,3.630550537109375,-0.9868037104606628,0.463663786649704,-0.8230821490287781
1772896011049518600,3.6405185546875,-0.6088316440582275,0.3779488801956177,-0.921718180179596
1772896011059486500,3.650486572265625,-0.32692351937294006,0.3698864281177521,-0.8862856030464172
1772896011069454300,3.660454345703125,-0.11928565055131912,0.2990913689136505,-0.7504804134368896
1772896011079423500,3.670423583984375,-0.03501231223344803,0.19129113852977753,-0.5631499290466309
1772896011089391600,3.6803916015625,0.02496873214840889,-0.0036448021419346333,-0.3629574179649353
1772896011099359700,3.69035986328125,0.22020719945430756,-0.3538733720779419,-0.17042313516139984
1772896011109328600,3.70032861328125,0.5637845396995544,-0.7117329835891724,-0.07655283063650131
1772896011119296800,3.710296875,0.8456345796585083,-0.8553082942962646,-0.08519425988197327
1772896011129265000,3.720264892578125,0.9635058641433716,-0.8732424974441528,-0.21102435886859894
1772896011139233800,3.73023388671875,0.8784271478652954,-0.8468029499053955,-0.38893923163414
1772896011149201700,3.74020166015625,0.6959114074707031,-0.6566604375839233,-0.6113733649253845
1772896011159169800,3.750169677734375,0.5467221736907959,-0.3959377408027649,-0.742766797542572
1772896011169138700,3.760138671875,0.49862363934516907,-0.24503931403160095,-0.7280738949775696
1772896011179106800,3.77010693359375,0.4769012928009033,-0.2576821446418762,-0.5927330851554871
1772896011189074700,3.78007470703125,0.5012401938438416,-0.36147403717041016,-0.4004614055156708
1772896011199043800,3.7900439453125,0.4939705729484558,-0.4434205889701843,-0.14772607386112213
1772896011209011700,3.80001171875,0.42678406834602356,-0.514806866645813,0.08200432360172272
1772896011218979800,3.809979736328125,0.3079296052455902,-0.5737322568893433,0.26738855242729187
1772896011228948700,3.81994873046875,0.16853681206703186,-0.5362223982810974,0.3625268042087555
1772896011238916600,3.82991650390625,0.05265495553612709,-0.41608670353889465,0.35359376668930054
1772896011248884700,3.839884765625,-0.04079004004597664,-0.2979366183280945,0.28975537419319153
1772896011258852600,3.8498525390625,-0.14696334302425385,-0.2097894549369812,0.2254091501235962
1772896011268821800,3.85982177734375,-0.23039112985134125,-0.17556703090667725,0.18862637877464294
1772896011278789600,3.86978955078125,-0.2807387113571167,-0.19499053061008453,0.17669594287872314
1772896011288757800,3.8797578125,-0.307464063167572,-0.1977522224187851,0.19246424734592438
1772896011298727000,3.889726806640625,-0.2402528077363968,-0.17967522144317627,0.23133549094200134
1772896011308694800,3.89969482421875,-0.11943744868040085,-0.19688856601715088,0.30717167258262634
1772896011318662700,3.90966259765625,-0.023253390565514565,-0.23646660149097443,0.3917166292667389
1772896011328631600,3.919631591796875,0.00006444849714171141,-0.2748105227947235,0.44653141498565674
1772896011338599700,3.929599609375,-0.08593541383743286,-0.2513539493083954,0.4597524106502533
1772896011348567800,3.93956787109375,-0.185634583234787,-0.2530495822429657,0.40972840785980225
1772896011358536700,3.94953662109375,-0.23680615425109863,-0.29202625155448914,0.31084442138671875
1772896011368504800,3.9595048828125,-0.23693078756332397,-0.3393453061580658,0.1754695624113083
1772896011378472700,3.96947265625,-0.261585533618927,-0.3287334144115448,0.019690081477165222
1772896011388441900,3.97944189453125,-0.29815366864204407,-0.1999293565750122,-0.12779630720615387
1772896011398409700,3.98940966796875,-0.30235666036605835,-0.09182499349117279,-0.23932071030139923
1772896011408377600,3.999377685546875,-0.2715478837490082,-0.07857204228639603,-0.2907905578613281
1772896011418346800,4.0093466796875,-0.21996724605560303,-0.16712000966072083,-0.30583474040031433
1772896011428314600,4.019314697265625,-0.25775378942489624,-0.24841007590293884,-0.29378581047058105
1772896011438282800,4.02928271484375,-0.3486884832382202,-0.2508316934108734,-0.30771708488464355
1772896011448251000,4.0392509765625,-0.47758200764656067,-0.20398908853530884,-0.31113365292549133
1772896011458219800,4.0492197265625,-0.5584955215454102,-0.1654270440340042,-0.268650621175766
1772896011468188000,4.05918798828125,-0.5449695587158203,-0.17501042783260345,-0.20854175090789795
1772896011478155800,4.06915576171875,-0.504197895526886,-0.1734815090894699,-0.17318908870220184
1772896011488125000,4.079125,-0.45700883865356445,-0.12866289913654327,-0.189764603972435
1772896011498092500,4.089092529296875,-0.39103540778160095,-0.06000767648220062,-0.2579764127731323
1772896011508060700,4.099060791015625,-0.3202669620513916,0.031078023836016655,-0.3750614821910858
1772896011518029600,4.109029541015625,-0.2691211998462677,0.13958638906478882,-0.5232378840446472
1772896011527997700,4.118997802734375,-0.24831873178482056,0.3014344274997711,-0.6837514042854309
1772896011537965800,4.1289658203125,0.005693305749446154,0.4554932117462158,-0.817333459854126
1772896011547934700,4.138934814453125,0.820929765701294,0.6385573148727417,-0.8829268217086792
1772896011557902800,4.14890283203125,2.163604974746704,0.7581247091293335,-0.6715456247329712
1772896011567871000,4.15887109375,3.2271320819854736,0.6648067831993103,-0.06286817789077759
1772896011577839900,4.16883984375,3.204529047012329,0.5548405647277832,0.8571626543998718
1772896011587807700,4.178807861328125,2.2752890586853027,0.3555953800678253,1.9365428686141968
1772896011597775600,4.188775634765625,0.6541000604629517,0.09055227041244507,2.831841230392456
1772896011607744800,4.198744873046875,-0.7376956343650818,-0.24591656029224396,2.9352006912231445
1772896011617712600,4.208712646484375,-1.47969651222229,-0.27472931146621704,2.2410686016082764
1772896011627680800,4.2186806640625,-1.8900361061096191,-0.004321245010942221,0.7932621836662292
1772896011637649000,4.22864892578125,-2.1131036281585693,0.589142918586731,-0.6287246346473694
1772896011647617800,4.23861767578125,-2.014375686645508,0.9900950789451599,-1.447060465812683
1772896011657585700,4.248585693359375,-1.6218632459640503,1.0105165243148804,-1.5045711994171143
1772896011667553500,4.258553466796875,-1.230982780456543,0.8362584114074707,-1.0806678533554077
1772896011677522700,4.268522705078125,-1.0020966529846191,0.4574250876903534,-0.46206775307655334
1772896011687490800,4.27849072265625,-0.8994174003601074,0.09196188300848007,0.08793385326862335
1772896011697458700,4.288458740234375,-0.7415971755981445,-0.1589028388261795,0.4467897415161133
1772896011707427800,4.298427734375,-0.5124004483222961,-0.2524349093437195,0.6000645160675049
1772896011717395700,4.308395751953125,-0.3982411026954651,-0.19474099576473236,0.5570696592330933
1772896011727363800,4.31836376953125,-0.427903413772583,-0.0808330625295639,0.4547768235206604
1772896011737332700,4.328332763671875,-0.4766294062137604,-0.008494152687489986,0.3279152810573578
1772896011747300600,4.338300537109375,-0.5014407634735107,-0.0032088428270071745,0.19267837703227997
1772896011757268700,4.348268798828125,-0.4952235817909241,-0.02143285423517227,0.1049162968993187
1772896011767237600,4.358237548828125,-0.3456341028213501,-0.06710446625947952,0.12226039916276932
1772896011777205800,4.368205810546875,0.015913452953100204,-0.16967186331748962,0.22052279114723206
1772896011787173600,4.378173583984375,0.4978204369544983,-0.19464512169361115,0.3800314962863922
1772896011797142800,4.388142822265625,0.8750090003013611,-0.12132642418146133,0.5678293704986572
1772896011807111000,4.39811083984375,1.1140540838241577,-0.05673225596547127,0.7011597156524658
1772896011817078800,4.408078857421875,1.214698076248169,-0.016022376716136932,0.7349078059196472
1772896011827048000,4.4180478515625,1.1728252172470093,-0.0869375616312027,0.6861914396286011
1772896011837015600,4.428015625,0.957133948802948,-0.2035003900527954,0.5913519859313965
1772896011846983700,4.437983642578125,0.6628650426864624,-0.2919149398803711,0.4636582136154175
1772896011856951800,4.447951904296875,0.4356726408004761,-0.34376856684684753,0.33436572551727295
1772896011866920700,4.457920654296875,0.32866576313972473,-0.3517220914363861,0.22817857563495636
1772896011876888800,4.467888916015625,0.34141379594802856,-0.3325619697570801,0.16456738114356995
1772896011886856700,4.477856689453125,0.390325665473938,-0.2943735718727112,0.14293025434017181
1772896011896825900,4.487825927734375,0.3887549340724945,-0.23822881281375885,0.11391858011484146
1772896011906793700,4.497793701171875,0.28041061758995056,-0.1845562607049942,0.050566237419843674
1772896011916761600,4.50776171875,0.08478652685880661,-0.1371152400970459,-0.049918025732040405
1772896011926730800,4.517730712890625,-0.10304436087608337,-0.11080694198608398,-0.14615854620933533
1772896011936698600,4.52769873046875,-0.20163191854953766,-0.1590098887681961,-0.19149060547351837
1772896011946666800,4.537666748046875,-0.1965673863887787,-0.22952400147914886,-0.1519053727388382
1772896011956635600,4.5476357421875,-0.11251375824213028,-0.2503134310245514,-0.07131385803222656
1772896011966603800,4.557603759765625,-0.04944264888763428,-0.1954033225774765,0.020119382068514824
1772896011976572000,4.567572021484375,-0.006329801399260759,-0.06872739642858505,0.09238053113222122
1772896011986540800,4.577540771484375,0.04586655646562576,0.021763086318969727,0.13627421855926514
1772896011996509000,4.587509033203125,0.09005745500326157,0.02911234460771084,0.19822706282138824
1772896012006476500,4.5974765625,0.06348416954278946,-0.02738555148243904,0.2849680781364441
1772896012016445700,4.60744580078125,-0.045942459255456924,-0.08909711986780167,0.36814022064208984
1772896012026413600,4.61741357421875,-0.1319473832845688,-0.15759974718093872,0.4044066071510315
1772896012036381700,4.627381591796875,-0.14984221756458282,-0.22380566596984863,0.36660197377204895
1772896012046350600,4.6373505859375,-0.10049225389957428,-0.2476966232061386,0.30281898379325867
1772896012056318700,4.647318603515625,-0.01691453531384468,-0.23523515462875366,0.2484646737575531
1772896012066286800,4.657286865234375,0.04560796543955803,-0.18417809903621674,0.22415028512477875
1772896012076254700,4.667254638671875,0.024512799456715584,-0.1248101070523262,0.19725660979747772
1772896012086223600,4.6772236328125,-0.04640478268265724,-0.06864351034164429,0.1642342209815979
1772896012096191700,4.687191650390625,-0.12151338160037994,-0.08138833194971085,0.1391962319612503
1772896012106159600,4.69715966796875,-0.16473329067230225,-0.115139901638031,0.13070981204509735
1772896012116128800,4.707128662109375,-0.1808757781982422,-0.1295023262500763,0.132942333817482
1772896012126096600,4.7170966796875,-0.21108055114746094,-0.13599058985710144,0.16945934295654297
1772896012136064800,4.727064697265625,-0.2435000091791153,-0.13120701909065247,0.230483278632164
1772896012146033700,4.73703369140625,-0.28010913729667664,-0.13796266913414001,0.3077181279659271
1772896012156001800,4.747001708984375,-0.3066059947013855,-0.1888524740934372,0.35802391171455383
1772896012165969700,4.7569697265625,-0.3212462067604065,-0.17839238047599792,0.39106816053390503
1772896012175938600,4.7669384765625,-0.3344264626502991,-0.040760479867458344,0.39634573459625244
1772896012185906700,4.77690673828125,-0.2989904284477234,0.1121949777007103,0.413332998752594
1772896012195874800,4.786874755859375,-0.1292397379875183,0.24203313887119293,0.42047372460365295
1772896012205843700,4.79684375,0.18591740727424622,0.42223086953163147,0.3621595501899719
1772896012215811800,4.806811767578125,0.7920483350753784,0.634730875492096,0.2404450923204422
1772896012225779700,4.81677978515625,1.8316521644592285,0.7321674227714539,0.13380520045757294
1772896012235748900,4.826748779296875,2.944742202758789,0.5004260540008545,0.1338438242673874
1772896012245716700,4.836716796875,3.288989543914795,-0.04355120658874512,0.4167857766151428
1772896012255684600,4.8466845703125,2.720867156982422,0.040827058255672455,0.9999940991401672
1772896012265653500,4.856653564453125,1.357919692993164,0.6171314120292664,1.7568942308425903
1772896012275621600,4.86662158203125,-0.24297963082790375,0.49035534262657166,2.236083507537842
1772896012285589800,4.87658984375,-1.2211281061172485,0.16298998892307281,2.0596842765808105
1772896012295557600,4.8865576171875,-1.4810779094696045,0.3755187690258026,1.369345784187317
1772896012305526800,4.89652685546875,-1.4553629159927368,1.03482985496521,0.5290350914001465
1772896012315494700,4.90649462890625,-1.5094858407974243,1.4685440063476562,-0.061278004199266434
1772896012325462500,4.916462646484375,-1.5002859830856323,1.4570574760437012,-0.25365516543388367
1772896012335431700,4.926431640625,-1.3463714122772217,1.1272774934768677,-0.24149730801582336
1772896012345399600,4.936399658203125,-1.2118279933929443,0.6513452529907227,-0.2768728733062744
1772896012355367700,4.94636767578125,-1.128731608390808,0.22152680158615112,-0.432429701089859
1772896012365336600,4.956336669921875,-0.9849640130996704,0.04252375662326813,-0.6594354510307312
1772896012375304700,4.9663046875,-0.8550198674201965,0.07967432588338852,-0.872620701789856
1772896012385272800,4.97627294921875,-0.72080397605896,0.24085788428783417,-0.9946669340133667
1772896012395241700,4.98624169921875,-0.5993604063987732,0.39816814661026,-1.013164758682251
1772896012405209900,4.9962099609375,-0.49740737676620483,0.4181101620197296,-0.9486728310585022
1772896012415177500,5.006177490234375,-0.3570835590362549,0.26306331157684326,-0.8424422740936279
1772896012425146600,5.016146728515625,-0.19496150314807892,0.06347937136888504,-0.6675559282302856
1772896012435114500,5.026114501953125,0.04400420933961868,-0.1727222353219986,-0.4257529079914093
1772896012445082600,5.03608251953125,0.44638147950172424,-0.3287496566772461,-0.1370774209499359
1772896012455051800,5.0460517578125,0.9228543043136597,-0.32428354024887085,0.13869796693325043
1772896012465019600,5.05601953125,1.2835602760314941,-0.2498314082622528,0.34869512915611267
1772896012474987800,5.06598779296875,1.456237554550171,-0.165927454829216,0.4407462179660797
1772896012484956700,5.075956787109375,1.4312444925308228,-0.10291066765785217,0.39162448048591614
1772896012494924800,5.0859248046875,1.196134328842163,-0.11026205867528915,0.23021163046360016
1772896012504892700,5.095892578125,0.8535990715026855,-0.1839171051979065,0.02257108874619007
1772896012514861600,5.105861572265625,0.6114673614501953,-0.3035034239292145,-0.17140157520771027
1772896012524829700,5.11582958984375,0.5572366118431091,-0.4292656183242798,-0.2613660991191864
1772896012534797600,5.125797607421875,0.6128855347633362,-0.4909396171569824,-0.22393642365932465
1772896012544765700,5.135765625,0.7192028760910034,-0.4374239444732666,-0.08116009831428528
1772896012554734600,5.145734619140625,0.7883574366569519,-0.3100025951862335,0.07828042656183243
1772896012564702700,5.15570263671875,0.7299996018409729,-0.2009352296590805,0.18224996328353882
1772896012574670800,5.1656708984375,0.5411572456359863,-0.20220662653446198,0.2173435091972351
1772896012584639700,5.1756396484375,0.32677891850471497,-0.24126960337162018,0.18388913571834564
1772896012594607600,5.185607666015625,0.16636501252651215,-0.2667456865310669,0.10606305301189423
1772896012604575700,5.19557568359375,0.0750151202082634,-0.27305495738983154,0.04348382726311684
1772896012614544600,5.205544677734375,0.026868099346756935,-0.27178117632865906,0.007250722497701645
1772896012624512800,5.2155126953125,0.01125372014939785,-0.22920522093772888,-0.004819522611796856
1772896012634480600,5.225480712890625,0.027457457035779953,-0.14893488585948944,-0.01142789050936699
1772896012644449800,5.23544970703125,0.062255118042230606,-0.10004351288080215,-0.02257002331316471
1772896012654417700,5.245417724609375,0.05307413637638092,-0.10542895644903183,-0.015687616541981697
1772896012664385800,5.2553857421875,-0.03525146469473839,-0.126869797706604,0.013654826208949089
1772896012674354700,5.265354736328125,-0.15641304850578308,-0.12744984030723572,0.05344831198453903
1772896012684322600,5.275322509765625,-0.25694552063941956,-0.15567082166671753,0.0949278473854065
1772896012694290700,5.285290771484375,-0.2995947003364563,-0.23676301538944244,0.12717951834201813
1772896012704259600,5.295259521484375,-0.28954020142555237,-0.28635427355766296,0.13077372312545776
1772896012714227700,5.305227783203125,-0.26319727301597595,-0.2529286742210388,0.10343983769416809
1772896012724195800,5.31519580078125,-0.23956279456615448,-0.18473495543003082,0.07161639630794525
1772896012734164700,5.325164794921875,-0.22947447001934052,-0.13885082304477692,0.04370300471782684
1772896012744132900,5.3351328125,-0.16802255809307098,-0.15909378230571747,0.04322576895356178
1772896012754097700,5.34509765625,-0.08557455241680145,-0.21327126026153564,0.056049685925245285
1772896012764065800,5.355065673828125,-0.06280745565891266,-0.25151559710502625,0.12470704317092896
1772896012774034700,5.36503466796875,-0.12468307465314865,-0.2345443218946457,0.21726760268211365
1772896012784002800,5.3750029296875,-0.23544500768184662,-0.1666635423898697,0.28305619955062866
1772896012793970700,5.384970703125,-0.31966453790664673,-0.1071711927652359,0.3050656318664551
1772896012803939600,5.394939697265625,-0.29993584752082825,-0.04144198074936867,0.28148308396339417
1772896012813907700,5.40490771484375,-0.18251867592334747,0.043231893330812454,0.1975032240152359
1772896012823875600,5.41487548828125,-0.029683860018849373,0.11500994116067886,0.14990267157554626
1772896012833844700,5.4248447265625,0.10072607547044754,0.19770881533622742,0.16498681902885437
1772896012843812600,5.4348125,0.2227553129196167,0.299397349357605,0.2850021719932556
1772896012853780700,5.44478076171875,0.4838652014732361,0.35944366455078125,0.4271412193775177
1772896012863749600,5.45474951171875,1.0637866258621216,0.42419523000717163,0.6605587601661682
1772896012873717800,5.4647177734375,1.7508012056350708,0.2472931444644928,1.0356389284133911
1772896012883685600,5.474685546875,2.1130383014678955,-0.18011491000652313,1.5282483100891113
1772896012893654500,5.484654541015625,1.8494668006896973,-0.36539047956466675,1.8102667331695557
1772896012903622700,5.49462255859375,1.0238237380981445,-0.055685900151729584,1.9032634496688843
1772896012913590800,5.5045908203125,-0.2825262248516083,0.3700188100337982,1.8038133382797241
1772896012923558700,5.51455859375,-1.2510989904403687,0.285794198513031,1.0784859657287598
1772896012933527800,5.52452783203125,-1.6071175336837769,0.3000759482383728,-0.021085577085614204
1772896012943495700,5.53449560546875,-1.6613776683807373,0.8832584023475647,-0.6655449867248535
1772896012953463800,5.5444638671875,-1.6936622858047485,1.297023892402649,-0.5548437833786011
1772896012963432700,5.5544326171875,-1.562804937362671,1.2074577808380127,-0.047379765659570694
1772896012973400600,5.564400634765625,-1.3591256141662598,0.7365696430206299,0.28191131353378296
1772896012983368700,5.57436865234375,-1.254413366317749,0.30308717489242554,0.0737631693482399
1772896012993337600,5.584337646484375,-1.102544903755188,0.040651820600032806,-0.5568895936012268
1772896013003305700,5.5943056640625,-0.8559319972991943,-0.007072290405631065,-1.276026725769043
1772896013013273600,5.604273681640625,-0.625086784362793,0.10301320254802704,-1.7981666326522827
1772896013023242800,5.61424267578125,-0.5227614641189575,0.31112751364707947,-1.9871584177017212
1772896013033211000,5.6242109375,-0.45116719603538513,0.43337833881378174,-1.881595253944397
1772896013043178800,5.6341787109375,-0.3793151080608368,0.4556253254413605,-1.6257961988449097
1772896013053148000,5.64414794921875,-0.25883156061172485,0.31187906861305237,-1.3172434568405151
1772896013063115500,5.654115478515625,-0.14877189695835114,0.11312628537416458,-0.994194507598877
1772896013073083600,5.664083740234375,-0.005547896958887577,-0.11330445110797882,-0.7156577110290527
1772896013083052500,5.674052490234375,0.31176188588142395,-0.3037335276603699,-0.5243197083473206
1772896013093020700,5.684020751953125,0.7023320198059082,-0.36329564452171326,-0.4056364595890045
1772896013102988800,5.69398876953125,0.9833948612213135,-0.32695043087005615,-0.3057103753089905
1772896013112957700,5.703957763671875,1.080695629119873,-0.2015557587146759,-0.21992942690849304
1772896013122925800,5.71392578125,1.0771805047988892,-0.06362318247556686,-0.1551738679409027
1772896013132893700,5.723893798828125,0.9933077096939087,-0.01022920198738575,-0.08724062889814377
1772896013142862800,5.73386279296875,0.836535632610321,-0.06505277007818222,-0.029215676710009575
1772896013152830700,5.743830810546875,0.6030685901641846,-0.14611247181892395,0.044016726315021515
1772896013162798600,5.753798583984375,0.38280731439590454,-0.26234427094459534,0.06653348356485367
1772896013172769800,5.763769775390625,0.26373258233070374,-0.3836533725261688,0.0403255857527256
1772896013182738000,5.773738037109375,0.23890818655490875,-0.4661943316459656,0.007074421271681786
1772896013192705500,5.78370556640625,0.2931181490421295,-0.4771668314933777,-0.017486581578850746
1772896013202674700,5.7936748046875,0.34418267011642456,-0.43543243408203125,-0.0013677994720637798
1772896013212642600,5.803642578125,0.38986921310424805,-0.3427578806877136,0.04339967295527458
1772896013222610700,5.813610595703125,0.41649654507637024,-0.24338415265083313,0.09781817346811295
1772896013232579600,5.82357958984375,0.4004315733909607,-0.2236541360616684,0.17440029978752136
1772896013242547700,5.833547607421875,0.3122015595436096,-0.21569260954856873,0.25022822618484497
1772896013252515800,5.843515869140625,0.20045293867588043,-0.2623591721057892,0.33852240443229675
1772896013262484700,5.853484619140625,0.09937985241413116,-0.3646607995033264,0.41646724939346313
1772896013272452900,5.863452880859375,0.05381662771105766,-0.45968398451805115,0.45996707677841187
1772896013282420700,5.873420654296875,0.06694574654102325,-0.47216033935546875,0.4226977229118347
1772896013292388600,5.883388671875,0.11558225750923157,-0.4103694260120392,0.3400755524635315
1772896013302357800,5.893357666015625,0.20021644234657288,-0.37823066115379333,0.2587500810623169
1772896013312325600,5.90332568359375,0.27098143100738525,-0.3539804518222809,0.20185695588588715
1772896013322293800,5.913293701171875,0.3388630151748657,-0.3403591811656952,0.13339588046073914
1772896013332262700,5.9232626953125,0.359878271818161,-0.3339651823043823,0.07356476783752441
1772896013342230800,5.933230712890625,0.28536197543144226,-0.3233319818973541,0.05098062753677368
1772896013352199000,5.943198974609375,0.1868380606174469,-0.3106212615966797,0.035229891538619995
1772896013362167800,5.953167724609375,0.12716567516326904,-0.30717912316322327,0.015920376405119896
1772896013372135700,5.9631357421875,0.11500062048435211,-0.272457093000412,-0.017891649156808853
1772896013382103800,5.973103759765625,0.14522697031497955,-0.21625027060508728,-0.07407129555940628
1772896013392072700,5.98307275390625,0.18235436081886292,-0.13386352360248566,-0.13487552106380463
1772896013402040800,5.993040771484375,0.17896415293216705,-0.09427750110626221,-0.17938867211341858
1772896013412008700,6.0030087890625,0.15858830511569977,-0.1026717871427536,-0.238962784409523
1772896013421977900,6.012977783203125,0.04292349889874458,-0.13923858106136322,-0.29501378536224365
1772896013431945700,6.02294580078125,-0.19040162861347198,-0.10150957852602005,-0.33803635835647583
1772896013441913900,6.032913818359375,-0.3532930910587311,-0.056122925132513046,-0.3786218762397766
1772896013451882800,6.0428828125,-0.2919256091117859,-0.07475892454385757,-0.3779374361038208
1772896013461850600,6.0528505859375,-0.1548079550266266,-0.14450258016586304,-0.3209380805492401
1772896013471818800,6.06281884765625,-0.1056971326470375,-0.16709178686141968,-0.26067259907722473
1772896013481787600,6.07278759765625,-0.05234869197010994,-0.11092358827590942,-0.22334574162960052
1772896013491755800,6.082755859375,0.11094489693641663,-0.052550558000802994,-0.09633186459541321
1772896013501723600,6.0927236328125,0.5192868709564209,-0.1294088512659073,0.23694410920143127
1772896013511692800,6.10269287109375,1.1774860620498657,-0.1522502601146698,0.6509535312652588
1772896013521661000,6.112660888671875,1.4544031620025635,-0.18315011262893677,0.9009804129600525
1772896013531628800,6.12262890625,0.9851109981536865,-0.2615210711956024,0.4477996230125427
1772896013541598000,6.132597900390625,0.31385886669158936,0.2510937452316284,-0.561281144618988
1772896013551565600,6.142565673828125,-0.9204414486885071,0.863053560256958,-1.3533889055252075
1772896013561533700,6.15253369140625,-2.085847854614258,0.8786559104919434,-1.9911706447601318
1772896013571502600,6.162502685546875,-2.3124115467071533,0.7540676593780518,-2.2647769451141357
1772896013581470700,6.172470703125,-1.8835822343826294,1.0499557256698608,-1.6509343385696411
1772896013591438800,6.18243896484375,-1.4480557441711426,1.1489441394805908,-0.37697339057922363
1772896013601407700,6.19240771484375,-1.1600476503372192,0.7995944023132324,0.7259998321533203
1772896013611375900,6.2023759765625,-0.9265920519828796,0.5109447836875916,0.9230220913887024
1772896013621343700,6.21234375,-0.8401588797569275,0.2592965364456177,0.312729150056839
1772896013631313000,6.22231298828125,-1.034976601600647,0.05711335316300392,-0.6113483309745789
1772896013641280800,6.23228076171875,-1.1378281116485596,-0.003790477057918906,-1.3562939167022705
1772896013651248600,6.24224853515625,-1.0185933113098145,0.05168290063738823,-1.4824302196502686
1772896013661217800,6.2522177734375,-0.7897769212722778,0.10345581918954849,-1.186968207359314
1772896013671185700,6.262185546875,-0.4310632348060608,0.1796794831752777,-0.688137412071228
1772896013681153800,6.27215380859375,-0.11163917928934097,0.2415391206741333,-0.20806239545345306
1772896013691122700,6.282122802734375,0.08183707296848297,0.19307971000671387,0.0839148759841919
1772896013701090800,6.2920908203125,0.1629260629415512,0.05006183683872223,0.1210465282201767
1772896013711059000,6.302058837890625,0.23539067804813385,-0.08459930866956711,0.027291808277368546
1772896013721027800,6.31202783203125,0.39685067534446716,-0.24673575162887573,-0.05180487409234047
1772896013730995700,6.32199560546875,0.6154062151908875,-0.3029111325740814,-0.09574037045240402
1772896013740963600,6.331963623046875,0.784235954284668,-0.174388587474823,-0.14390577375888824
1772896013750931700,6.341931640625,0.8596897125244141,-0.025970613583922386,-0.22700092196464539
1772896013760900600,6.351900634765625,0.776681125164032,0.10282411426305771,-0.33709466457366943
1772896013770868700,6.36186865234375,0.6006456017494202,0.2145455926656723,-0.47631168365478516
1772896013780836900,6.3718369140625,0.41406136751174927,0.2352769672870636,-0.5724288821220398
1772896013790805800,6.3818056640625,0.22837191820144653,0.16912351548671722,-0.520104706287384
1772896013800773600,6.391773681640625,0.11922519654035568,0.056893642991781235,-0.38591814041137695
1772896013810741800,6.40174169921875,0.11962706595659256,-0.04571635648608208,-0.1972464919090271
1772896013820710700,6.411710693359375,0.15854810178279877,-0.10118946433067322,-0.004907939583063126
1772896013830678800,6.4216787109375,0.18575681746006012,-0.1527852863073349,0.12252724915742874
1772896013840646700,6.431646728515625,0.19672690331935883,-0.15166835486888885,0.20067264139652252
1772896013850615800,6.44161572265625,0.21731500327587128,-0.09919209778308868,0.23971112072467804
1772896013860583700,6.451583740234375,0.22186528146266937,-0.008774583227932453,0.22126634418964386
1772896013870551800,6.4615517578125,0.17792925238609314,0.0090542146936059,0.2281591296195984
1772896013880520700,6.471520751953125,0.09031844139099121,-0.06666132062673569,0.29057803750038147
1772896013890488600,6.481488525390625,0.0020871192682534456,-0.13874483108520508,0.3642357587814331
1772896013900456700,6.491456787109375,-0.020143883302807808,-0.19660067558288574,0.41380834579467773
1772896013910425600,6.501425537109375,0.035702869296073914,-0.19191217422485352,0.44737112522125244
1772896013920393700,6.511393798828125,0.09288466721773148,-0.1794573813676834,0.4734141528606415
1772896013930361900,6.52136181640625,0.12992364168167114,-0.18047842383384705,0.4166867136955261
1772896013940330800,6.531330810546875,0.1320887953042984,-0.15673741698265076,0.2782188355922699
1772896013950299000,6.541298828125,0.02725399099290371,-0.10385476052761078,0.11402936279773712
1772896013960266800,6.551266845703125,-0.1477268785238266,-0.08627975732088089,-0.03139360994100571
1772896013970236000,6.56123583984375,-0.223386749625206,-0.17642855644226074,-0.06454011052846909
1772896013980203500,6.57120361328125,-0.1857331097126007,-0.23985174298286438,0.015399995259940624
1772896013990171600,6.581171630859375,-0.15069043636322021,-0.2914550304412842,0.07334132492542267
1772896014000140500,6.591140625,-0.10164593160152435,-0.28080424666404724,0.05698898434638977
1772896014010108700,6.601108642578125,-0.059609267860651016,-0.25816336274147034,0.00010120012302650139
1772896014020076800,6.611076904296875,-0.09873003512620926,-0.25567811727523804,-0.13327443599700928
1772896014030045700,6.621045654296875,-0.18016816675662994,-0.26454856991767883,-0.28178852796554565
1772896014040013800,6.631013916015625,-0.2634508013725281,-0.28391560912132263,-0.40484949946403503
1772896014049982000,6.64098193359375,-0.2702450752258301,-0.3511210083961487,-0.4327428936958313
1772896014059950800,6.650950927734375,-0.2822282314300537,-0.36234861612319946,-0.3917776346206665
1772896014069918700,6.660918701171875,-0.29269152879714966,-0.2774023115634918,-0.3718601167201996
1772896014079886600,6.670886474609375,-0.23516137897968292,-0.1722244918346405,-0.3958863615989685
1772896014089856300,6.680856201171875,-0.17639979720115662,-0.1771976798772812,-0.40117111802101135
1772896014099824000,6.69082421875,-0.12841282784938812,-0.20508471131324768,-0.3754281997680664
1772896014109792300,6.700792236328125,-0.07751583307981491,-0.18457436561584473,-0.39599475264549255
1772896014119761200,6.71076123046875,-0.013878530822694302,-0.05413806810975075,-0.3698408901691437
1772896014129729300,6.720729248046875,0.31585249304771423,0.049133725464344025,-0.2288171947002411
1772896014139697400,6.730697509765625,1.1758513450622559,-0.06434942781925201,0.10064858198165894
1772896014149666300,6.740666259765625,1.8753434419631958,-0.13373036682605743,0.530202329158783
1772896014159634200,6.75063427734375,1.6266717910766602,-0.20741523802280426,0.6018165946006775
1772896014169602000,6.76060205078125,0.9215991497039795,-0.10228269547224045,0.22264212369918823
1772896014179571200,6.7705712890625,0.07394053786993027,0.24441666901111603,-0.12323484569787979
1772896014189539000,6.7805390625,-0.810010552406311,0.4515986144542694,-0.36317765712738037
1772896014199507200,6.790507080078125,-1.5764228105545044,0.5006548166275024,-0.7449484467506409
1772896014209475300,6.800475341796875,-2.0345730781555176,0.8563940525054932,-0.8224049210548401
1772896014219444200,6.8104443359375,-2.040804624557495,1.1589014530181885,-0.23823679983615875
1772896014229412000,6.820412109375,-1.6279405355453491,1.1225074529647827,0.6394638419151306
1772896014239380200,6.830380126953125,-1.229708194732666,0.8934697508811951,1.2125608921051025
1772896014249349000,6.84034912109375,-1.028334617614746,0.41427016258239746,1.145578384399414
1772896014259317200,6.850317138671875,-0.9268990755081177,0.004865861497819424,0.5664247870445251
1772896014269285000,6.86028515625,-0.8113245368003845,-0.18324705958366394,-0.09666688740253448
1772896014279254300,6.870254150390625,-0.6291491389274597,-0.19155772030353546,-0.6445012092590332
1772896014289222100,6.88022216796875,-0.4711853563785553,-0.08190871775150299,-0.9972680807113647
1772896014299190300,6.890190185546875,-0.2559492290019989,0.12922163307666779,-1.160149335861206
1772896014309159200,6.9001591796875,0.028508607298135757,0.25149109959602356,-1.1310842037200928
1772896014319127000,6.910126953125,0.24807611107826233,0.2611581087112427,-0.9406886696815491
1772896014329095200,6.92009521484375,0.3466205298900604,0.12188595533370972,-0.6526103019714355
1772896014339064000,6.93006396484375,0.41900551319122314,-0.07002728432416916,-0.3832371234893799
1772896014349032200,6.9400322265625,0.5206887125968933,-0.21528993546962738,-0.20236055552959442
1772896014359000300,6.950000244140625,0.6606269478797913,-0.2569039762020111,-0.05836823582649231
1772896014368969200,6.95996923828125,0.804411768913269,-0.252472460269928,0.053535398095846176
1772896014378937300,6.969937255859375,0.8620393872261047,-0.17238189280033112,0.07912837713956833
1772896014388905200,6.9799052734375,0.777741014957428,-0.05590694025158882,0.046188000589609146
1772896014398874400,6.989874267578125,0.6278247833251953,0.0412939116358757,-0.000770452490542084
1772896014408842000,6.999842041015625,0.5036852359771729,0.02792564034461975,0.014824752695858479
1772896014418810000,7.00981005859375,0.3866901993751526,0.004069576505571604,0.052867740392684937
1772896014428779000,7.019779052734375,0.29389527440071106,-0.032650887966156006,0.09610176831483841
1772896014438747100,7.0297470703125,0.2558235228061676,-0.07114341855049133,0.1316554993391037
1772896014448715300,7.03971533203125,0.30909234285354614,-0.05505499616265297,0.1563003957271576
1772896014458684200,7.04968408203125,0.3833481967449188,0.0631595253944397,0.14742115139961243
1772896014468652300,7.05965234375,0.37283775210380554,0.16026157140731812,0.05690509453415871
1772896014478620400,7.069620361328125,0.3466000258922577,0.20373395085334778,-0.09476645290851593
1772896014488589300,7.07958935546875,0.33812424540519714,0.24887773394584656,-0.2349717617034912
1772896014498557200,7.08955712890625,0.22206608951091766,0.21705801784992218,-0.2392384111881256
1772896014508525000,7.099525146484375,0.06477127224206924,0.12884986400604248,-0.1625625491142273
1772896014518494200,7.109494140625,-0.008045942522585392,-0.01363431941717863,-0.073709636926651
1772896014528462000,7.119462158203125,0.004634699318557978,-0.12428413331508636,0.008284028619527817
1772896014538430200,7.12943017578125,0.0788535326719284,-0.07541166990995407,0.0325707271695137
1772896014548399000,7.139399169921875,0.14382880926132202,0.026397785171866417,0.03901078179478645
1772896014558367200,7.1493671875,0.2069140374660492,0.08542435616254807,0.055570583790540695
1772896014568335400,7.15933544921875,0.25486263632774353,0.06198294460773468,0.05847609415650368
1772896014578304300,7.16930419921875,0.2541334629058838,0.0023345269728451967,0.04928738996386528
1772896014588272000,7.179272216796875,0.193966805934906,-0.02630217745900154,0.06519578397274017
1772896014598240300,7.189240234375,0.10351280868053436,-0.10297218710184097,0.12033812701702118
1772896014608209200,7.199209228515625,0.030590400099754333,-0.27651122212409973,0.18042969703674316
1772896014618177300,7.20917724609375,-0.05307946354150772,-0.43986445665359497,0.22563232481479645
1772896014628145200,7.219145263671875,-0.1461753249168396,-0.5040213465690613,0.22919350862503052
1772896014638113300,7.22911328125,-0.22245703637599945,-0.5332993268966675,0.2102126181125641
1772896014648082200,7.239082275390625,-0.2672005295753479,-0.5348114967346191,0.16525420546531677
1772896014658050300,7.24905029296875,-0.3080174922943115,-0.5815126895904541,0.1140165850520134
1772896014668018200,7.25901806640625,-0.3826965093612671,-0.5382423996925354,0.05792748183012009
1772896014677987000,7.268987060546875,-0.46303048729896545,-0.4042617380619049,0.010694456286728382
1772896014687955200,7.278955078125,-0.5311019420623779,-0.3002716898918152,0.018673285841941833
1772896014697923000,7.288923095703125,-0.6030653715133667,-0.26761066913604736,0.05617938190698624
1772896014707892200,7.298892333984375,-0.6982656717300415,-0.2749047875404358,0.08456521481275558
1772896014717860000,7.308860107421875,-0.8208381533622742,-0.3119749426841736,0.10796135663986206
1772896014727828200,7.318828125,-0.9314307570457458,-0.3803026080131531,0.1407025158405304
1772896014737797400,7.32879736328125,-0.9195186495780945,-0.555219292640686,0.11632261425256729
1772896014747765200,7.33876513671875,-0.7905974388122559,-0.6315369606018066,-0.06058984249830246
1772896014757733000,7.348733154296875,-0.506591796875,-0.5539993047714233,-0.4263603687286377
1772896014767702000,7.358701904296875,0.2151770293712616,-0.29924875497817993,-0.88010174036026
1772896014777670100,7.368670166015625,1.710890293121338,0.16909661889076233,-1.1317236423492432
1772896014787638300,7.37863818359375,3.2365360260009766,0.7909082174301147,-0.889281153678894
1772896014797607200,7.388607177734375,3.5477046966552734,0.6397096514701843,0.08146822452545166
1772896014807575300,7.3985751953125,2.7094249725341797,0.30543553829193115,1.364707350730896
1772896014817543200,7.408543212890625,1.0507917404174805,-0.022324213758111,2.2022972106933594
1772896014827512300,7.41851220703125,-0.7221025228500366,-0.34050965309143066,2.062224864959717
1772896014837480200,7.428480224609375,-1.89237642288208,-0.11757456511259079,1.2698575258255005
1772896014847448000,7.438447998046875,-2.3794045448303223,0.6621774435043335,0.3546254634857178
1772896014857417200,7.448417236328125,-2.337615966796875,1.190116047859192,0.023542078211903572
1772896014867385000,7.458385009765625,-1.767235279083252,1.1161001920700073,0.37048324942588806
1772896014877353200,7.468353271484375,-0.9204049706459045,0.5924739837646484,1.0859774351119995
1772896014887322000,7.478322021484375,-0.23267532885074615,-0.11761078238487244,1.5384330749511719
1772896014897290200,7.488290283203125,0.09851245582103729,-0.6746798753738403,1.36224365234375
1772896014907258400,7.49825830078125,0.10604067891836166,-0.7015373706817627,0.5644388794898987
1772896014917227300,7.508227294921875,-0.07470352947711945,-0.2929426431655884,-0.41504165530204773
1772896014927195400,7.5181953125,-0.21373918652534485,0.20900994539260864,-1.185397982597351
1772896014937163000,7.5281630859375,-0.20793509483337402,0.49093589186668396,-1.4976861476898193
1772896014947132200,7.538132080078125,-0.10116975754499435,0.5903725028038025,-1.4725598096847534
1772896014957100000,7.54810009765625,0.04050375148653984,0.5593796968460083,-1.2310422658920288
1772896014967068200,7.558068115234375,0.25265833735466003,0.35566142201423645,-0.8392208814620972
1772896014977037300,7.568037353515625,0.5985401272773743,0.033665552735328674,-0.4527016878128052
1772896014987005200,7.578005126953125,0.9835032820701599,-0.2407236546278,-0.14034326374530792
1772896014996973300,7.587973388671875,1.2396646738052368,-0.33920496702194214,-0.006980677600950003
1772896015006942200,7.597942138671875,1.263917326927185,-0.27392715215682983,-0.08168234676122665
1772896015016910000,7.60791015625,1.063451886177063,-0.15796087682247162,-0.3067852258682251
1772896015026878200,7.617878173828125,0.7732890248298645,-0.041546642780303955,-0.6002136468887329
1772896015036847000,7.62784716796875,0.5177028179168701,-0.04276743903756142,-0.8031574487686157
1772896015046815200,7.637815185546875,0.32142701745033264,-0.09993112087249756,-0.8779483437538147
1772896015056783000,7.647783203125,0.2263239473104477,-0.1951226145029068,-0.8614526987075806
1772896015066752300,7.657752197265625,0.1942882537841797,-0.2922390401363373,-0.7518181204795837
1772896015076720000,7.66772021484375,0.22625257074832916,-0.3367684483528137,-0.6061397194862366
1772896015086687700,7.677687744140625,0.27828356623649597,-0.33996689319610596,-0.44651517271995544
1772896015096657000,7.687656982421875,0.32339003682136536,-0.25198376178741455,-0.303951621055603
1772896015106624800,7.697624755859375,0.31364819407463074,-0.1817394345998764,-0.1578892320394516
1772896015116593000,7.707593017578125,0.21057161688804626,-0.1796666979789734,-0.01956544630229473
1772896015126561800,7.717561767578125,0.06424370408058167,-0.23135705292224884,0.06283089518547058
1772896015136530000,7.727530029296875,-0.06736652553081512,-0.3072315752506256,0.12283244729042053
1772896015146497800,7.737497802734375,-0.1449606567621231,-0.3095554709434509,0.15896540880203247
1772896015156466700,7.747466796875,-0.14970719814300537,-0.2616449296474457,0.171141117811203
1772896015166434800,7.757434814453125,-0.10648676007986069,-0.19150391221046448,0.18411950767040253
1772896015176402700,7.767402587890625,-0.027465445920825005,-0.12374643981456757,0.2238091230392456
1772896015186371800,7.777371826171875,0.031858332455158234,-0.03128015995025635,0.27907663583755493
1772896015196340000,7.787340087890625,0.040295492857694626,0.060857225209474564,0.3443981111049652
1772896015206307800,7.797307861328125,-0.0342935249209404,0.107107013463974,0.4215584099292755
1772896015216277000,7.807277099609375,-0.12200553715229034,0.05109993740916252,0.5011187791824341
1772896015226244900,7.817244873046875,-0.13298840820789337,-0.1060665175318718,0.5734427571296692
1772896015236212700,7.827212646484375,-0.07356103509664536,-0.23415018618106842,0.643990695476532
1772896015246181600,7.837181640625,0.02376738004386425,-0.2484058141708374,0.6813186407089233
1772896015256149800,7.847149658203125,0.0968778133392334,-0.2069539874792099,0.6826009154319763
1772896015266118000,7.857117919921875,0.13072659075260162,-0.13422517478466034,0.6176221966743469
1772896015276085800,7.867085693359375,0.12095758318901062,-0.0612361915409565,0.4918762743473053
1772896015286055000,7.877054931640625,0.0793912261724472,0.02768515795469284,0.32524412870407104
1772896015296022800,7.887022705078125,0.011817777529358864,0.09405166655778885,0.15130563080310822
1772896015305991000,7.896990966796875,-0.08194413781166077,0.08952109515666962,0.00612154183909297
1772896015315959800,7.906959716796875,-0.16217611730098724,0.028552548959851265,-0.09365485608577728
1772896015325927700,7.916927734375,-0.1973133385181427,-0.025767948478460312,-0.14615081250667572
1772896015335896800,7.926896728515625,-0.18143796920776367,-0.07351230084896088,-0.15790493786334991
1772896015345864700,7.93686474609375,-0.19171270728111267,-0.08738603442907333,-0.16433221101760864
1772896015355832800,7.946832763671875,-0.2273295521736145,-0.01625060848891735,-0.22032330930233002
1772896015365801000,7.956801025390625,-0.2983478009700775,0.07312241196632385,-0.28589698672294617
1772896015375769900,7.966769775390625,-0.4105750024318695,0.10479911416769028,-0.343437522649765
1772896015385738000,7.976738037109375,-0.5035308003425598,0.17851941287517548,-0.3096715807914734
1772896015395705900,7.986705810546875,-0.49792349338531494,0.2370825856924057,-0.07697734236717224
1772896015405675000,7.996675048828125,-0.2089412361383438,-0.05326881259679794,0.1431310623884201
1772896015415642600,8.006642578125,0.4811365306377411,-0.17203141748905182,0.16541320085525513
1772896015425610800,8.01661083984375,1.1158580780029297,0.1313130110502243,0.18010398745536804
1772896015435580000,8.026579833984375,1.2211272716522217,0.4149375259876251,0.3658975660800934
1772896015445547800,8.0365478515625,0.8544989228248596,0.2997009754180908,0.6309976577758789
1772896015455516000,8.046515869140626,0.48905545473098755,0.3192083537578583,0.9125598669052124
1772896015465484800,8.05648486328125,-0.2742621898651123,0.35583826899528503,0.8263229727745056
1772896015475453000,8.066452880859375,-1.4069035053253174,-0.040228378027677536,0.1379871666431427
1772896015485420800,8.0764208984375,-2.3341128826141357,0.2722877264022827,-0.591690182685852
1772896015495390000,8.086389892578126,-2.4510183334350586,0.9981383681297302,-0.7861608862876892
1772896015505357800,8.09635791015625,-2.05094838142395,1.1824387311935425,-0.2828415632247925
1772896015515325700,8.10632568359375,-1.649538516998291,0.8065659999847412,0.4899177849292755
1772896015525294800,8.116294921875,-1.4055171012878418,0.26153627038002014,0.8942511081695557
1772896015535262700,8.1262626953125,-1.2535054683685303,-0.19972163438796997,0.6249037981033325
1772896015545230800,8.13623095703125,-1.1548558473587036,-0.39253583550453186,-0.20835906267166138
1772896015555199700,8.14619970703125,-1.1232489347457886,-0.2975912094116211,-1.255246877670288
1772896015565167900,8.15616796875,-1.054186463356018,-0.03510152921080589,-2.038827419281006
1772896015575135700,8.1661357421875,-0.8479099869728088,0.23345643281936646,-2.221545934677124
1772896015585104600,8.176104736328124,-0.579796552658081,0.3768197000026703,-1.8899348974227905
1772896015595072800,8.18607275390625,-0.28641313314437866,0.3321971297264099,-1.2267435789108276
1772896015605041000,8.196041015625,-0.03593989089131355,0.1714540421962738,-0.542374849319458
1772896015615009800,8.206009765625,0.20281675457954407,0.020915402099490166,-0.0810205489397049
1772896015624978000,8.21597802734375,0.47338220477104187,-0.0707029327750206,0.12136823683977127
1772896015634945800,8.22594580078125,0.7190241813659668,-0.08765608072280884,0.12729670107364655
1772896015644915000,8.2359150390625,0.8890571594238281,-0.05907716974616051,0.08689921349287033
1772896015654882800,8.2458828125,0.9680867195129395,-0.029027923941612244,0.07935021817684174
1772896015664850700,8.2558505859375,0.9817208051681519,-0.03392387926578522,0.12285428494215012
1772896015674819600,8.265819580078125,0.9572399854660034,-0.03675375506281853,0.2263769507408142
1772896015684787700,8.27578759765625,0.8827289938926697,0.006089317612349987,0.3557381331920624
1772896015694755800,8.285755859375,0.744344174861908,-0.02576501853764057,0.5107812285423279
1772896015704724700,8.295724853515624,0.6170690655708313,-0.1332097202539444,0.6472964882850647
1772896015714692900,8.30569287109375,0.5365611910820007,-0.23842881619930267,0.7088144421577454
1772896015724661000,8.315660888671875,0.48365482687950134,-0.30469173192977905,0.6715618968009949
1772896015734630000,8.3256298828125,0.4579523801803589,-0.28066256642341614,0.5703572034835815
1772896015744598000,8.335597900390624,0.4476057291030884,-0.2856653034687042,0.4341232180595398
1772896015754565600,8.345565673828125,0.4679757356643677,-0.3151850998401642,0.32339057326316833
1772896015764534800,8.35553466796875,0.4543549716472626,-0.31368228793144226,0.29110240936279297
1772896015774502700,8.365502685546875,0.41870617866516113,-0.2772880494594574,0.30754849314689636
1772896015784470800,8.375470703125,0.3738183379173279,-0.2210809886455536,0.3602985143661499
1772896015794439700,8.385439697265625,0.32251065969467163,-0.21845243871212006,0.44240298867225647
1772896015804407800,8.39540771484375,0.27590322494506836,-0.2755093276500702,0.537074089050293
1772896015814376000,8.4053759765625,0.23615527153015137,-0.33980897068977356,0.5905477404594421
1772896015824344800,8.4153447265625,0.17845149338245392,-0.3726401627063751,0.5696477293968201
1772896015834313000,8.42531298828125,0.11180882155895233,-0.38560548424720764,0.5172628164291382
1772896015844280800,8.43528076171875,0.04633767157793045,-0.4192342758178711,0.45960327982902527
1772896015854249700,8.445249755859376,0.004081294406205416,-0.42947518825531006,0.4128139317035675
1772896015864217900,8.4552177734375,-0.017977135255932808,-0.4423244297504425,0.34160101413726807
1772896015874185700,8.465185791015625,-0.061536598950624466,-0.4552428722381592,0.27281901240348816
1772896015884155000,8.47515478515625,-0.1812555342912674,-0.5535182952880859,0.21159161627292633
1772896015894122800,8.485122802734375,-0.32706066966056824,-0.651764452457428,0.11140935122966766
1772896015904091000,8.4950908203125,-0.4268903434276581,-0.6802360415458679,-0.02977707050740719
1772896015914059800,8.505059814453125,-0.4880436956882477,-0.6831282377243042,-0.252958744764328
1772896015924028000,8.51502783203125,-0.53519207239151,-0.6651703119277954,-0.5326210260391235
1772896015933995800,8.524995849609375,-0.5899754166603088,-0.5972479581832886,-0.8289341926574707
1772896015943964700,8.534964599609374,-0.6393794417381287,-0.5233814716339111,-1.066662073135376
1772896015953932800,8.544932861328125,-0.6574580073356628,-0.4350398778915405,-1.2371491193771362
1772896015963901000,8.55490087890625,-0.6490842700004578,-0.34542611241340637,-1.30403470993042
1772896015973869800,8.564869873046876,-0.6423019766807556,-0.2858778238296509,-1.2770392894744873
1772896015983838000,8.574837890625,-0.7149937748908997,-0.24735333025455475,-1.2179183959960938
1772896015993805800,8.584805908203125,-0.8360834121704102,-0.16595621407032013,-1.1935430765151978
1772896016003775000,8.59477490234375,-0.8799979090690613,-0.03092515841126442,-1.2286996841430664
1772896016013742800,8.604742919921875,-0.8071548342704773,0.05715596303343773,-1.295827865600586
1772896016023710700,8.614710693359376,-0.6884335279464722,0.14287565648555756,-1.359930396080017
1772896016033679600,8.6246796875,-0.4726223945617676,0.30509331822395325,-1.322940707206726
1772896016043647700,8.634647705078125,-0.06258241832256317,0.5686157941818237,-1.1654016971588135
1772896016053615900,8.644615966796875,0.5833430886268616,0.9376438856124878,-0.7390743494033813
1772896016063584800,8.654584716796874,0.9664363861083984,1.019669532775879,0.1968696564435959
1772896016073553000,8.664552978515625,0.7264935374259949,0.3707312047481537,1.2534228563308716
1772896016083520800,8.674520751953125,0.7264443039894104,0.10542016476392746,1.985703706741333
1772896016093490200,8.684490234375,0.8586308360099792,0.34693852066993713,2.0897717475891113
1772896016103458000,8.6944580078125,0.18461965024471283,0.22753915190696716,1.3446636199951172
1772896016113426200,8.70442626953125,-1.0807520151138306,0.2611634135246277,0.06393637508153915
1772896016123395300,8.714395263671875,-1.7182635068893433,0.8139951825141907,-0.9161474108695984
1772896016133363200,8.72436328125,-1.583783745765686,1.1531407833099365,-0.9889203906059265
1772896016143331300,8.734331298828126,-1.2621351480484009,0.9457984566688538,-0.29586708545684814
1772896016153300200,8.74430029296875,-1.02198326587677,0.5387998223304749,0.429136723279953
1772896016163268400,8.754268310546875,-0.7662412524223328,0.26172640919685364,0.5829364061355591
1772896016173236200,8.764236328125,-0.4659447968006134,0.11386052519083023,0.14334917068481445
1772896016183205000,8.774205078125,-0.22757937014102936,0.07515014708042145,-0.6008967757225037
1772896016193173200,8.78417333984375,-0.08277690410614014,0.2511499226093292,-1.2266291379928589
1772896016203141000,8.79414111328125,0.012558402493596077,0.44204986095428467,-1.404251217842102
1772896016213110300,8.8041103515625,0.13148851692676544,0.4659610390663147,-1.1351734399795532
1772896016223078100,8.814078125,0.281570702791214,0.3869067132472992,-0.5456162095069885
1772896016233046300,8.82404638671875,0.40132957696914673,0.3549511730670929,0.06919265538454056
1772896016243015200,8.83401513671875,0.5509502291679382,0.30372926592826843,0.5379212498664856
1772896016252983300,8.8439833984375,0.7032665610313416,0.2490641474723816,0.8497539758682251
1772896016262951200,8.853951171875,0.8915903568267822,0.2380831390619278,0.9936072826385498
1772896016272920000,8.863920166015625,1.067941427230835,0.24156922101974487,1.0344759225845337
1772896016282888200,8.87388818359375,1.2027567625045776,0.24247336387634277,1.0000321865081787
1772896016292856300,8.883856201171875,1.258629322052002,0.23329131305217743,0.8413189649581909
1772896016302825200,8.8938251953125,1.2001441717147827,0.15011413395404816,0.5671667456626892
1772896016312793300,8.90379345703125,1.0155367851257324,0.06159785017371178,0.2259521782398224
1772896016322761200,8.91376123046875,0.7641876935958862,0.08265653252601624,-0.13916215300559998
1772896016332730400,8.92373046875,0.5396016836166382,0.1351010948419571,-0.41038432717323303
1772896016342698200,8.9336982421875,0.4137750566005707,0.15127979218959808,-0.5375590324401855
1772896016352666000,8.943666015625,0.3681074380874634,0.19539186358451843,-0.5416853427886963
1772896016362635000,8.953635009765625,0.3336605131626129,0.2506934702396393,-0.4219738841056824
1772896016372603100,8.96360302734375,0.28409749269485474,0.2868101894855499,-0.21954354643821716
1772896016382571300,8.9735712890625,0.2582584321498871,0.23826955258846283,0.044988248497247696
1772896016392540200,8.9835400390625,0.26713690161705017,0.14077922701835632,0.3100167214870453
1772896016402508300,8.99350830078125,0.25864699482917786,0.10109546035528183,0.524438738822937
1772896016412476400,9.003476318359375,0.21849878132343292,0.09292541444301605,0.6948419213294983
1772896016422445300,9.0134453125,0.1832324117422104,0.08697377890348434,0.8543695211410522
1772896016432413400,9.023413330078125,0.15848152339458466,0.06385514885187149,0.9765784740447998
1772896016442381000,9.033381103515625,0.1068769171833992,0.09184549748897552,1.0445961952209473
1772896016452350200,9.04335009765625,0.046184539794921875,0.20487059652805328,1.047450304031372
1772896016462318000,9.053318115234376,-0.016879914328455925,0.28318697214126587,1.0343451499938965
1772896016472286200,9.0632861328125,-0.026686204597353935,0.3016219139099121,1.0051350593566895
1772896016482255000,9.073255126953125,0.042930688709020615,0.2831241190433502,0.9464831948280334
1772896016492223200,9.08322314453125,0.12479040026664734,0.23539601266384125,0.8732028603553772
1772896016502191400,9.09319140625,0.16730643808841705,0.18786869943141937,0.7882208228111267
1772896016512160300,9.10316015625,0.151075541973114,0.15087606012821198,0.6938679814338684
1772896016522128400,9.11312841796875,0.12599441409111023,0.10243742167949677,0.5700778365135193
1772896016532096300,9.12309619140625,0.11594923585653305,0.05627765506505966,0.4414282739162445
1772896016542065200,9.133065185546876,0.0750095322728157,0.028415130451321602,0.28264421224594116
1772896016552033300,9.143033203125,-0.006947388406842947,0.035222169011831284,0.11941853910684586
1772896016562001200,9.153001220703125,-0.12065397948026657,0.058278221637010574,-0.021623004227876663
1772896016571970300,9.16297021484375,-0.19742172956466675,0.0777917355298996,-0.1347426325082779
1772896016581938200,9.172938232421876,-0.24059076607227325,0.05459773167967796,-0.2151581197977066
1772896016591906300,9.18290625,-0.257549524307251,0.07970015704631805,-0.22973385453224182
1772896016601875200,9.192875244140625,-0.30569732189178467,0.10920558124780655,-0.18758560717105865
1772896016611843300,9.20284326171875,-0.4146464467048645,0.12961019575595856,-0.09261861443519592
1772896016621811200,9.212811279296876,-0.5555889010429382,0.09995482861995697,-0.01950605772435665
1772896016631780000,9.222780029296874,-0.6888202428817749,0.0039044604636728764,-0.030553914606571198
1772896016641748200,9.232748291015625,-0.7908701300621033,-0.09867411106824875,-0.09193018823862076
1772896016651716400,9.24271630859375,-0.7988567352294922,-0.031328629702329636,-0.15427958965301514
1772896016661685200,9.252685302734376,-0.7591151595115662,0.18925806879997253,-0.20411798357963562
1772896016671653400,9.2626533203125,-0.5298311114311218,0.3888934254646301,-0.37797871232032776
1772896016681621200,9.272621337890625,0.20345458388328552,0.4707392752170563,-0.4438091218471527
1772896016691590400,9.28259033203125,1.5792694091796875,0.7740299105644226,-0.061881475150585175
1772896016701558300,9.292558349609376,2.830963373184204,0.9110540747642517,0.9601371884346008
1772896016711526100,9.302526123046874,3.5328760147094727,0.025958362966775894,2.561002492904663
1772896016721495000,9.3124951171875,3.648861885070801,-0.7456227540969849,4.0907087326049805
1772896016731463200,9.322463134765625,2.8783531188964844,-0.8358946442604065,4.276755332946777
1772896016741431300,9.332431396484376,0.7370039820671082,-0.46165257692337036,2.6565537452697754
1772896016751398400,9.3423984375,-1.8752549886703491,0.2616491913795471,0.16308319568634033
1772896016761366000,9.352365966796874,-3.6839544773101807,1.4530166387557983,-1.6761642694473267
1772896016771334100,9.362334228515625,-4.291978359222412,1.9683756828308105,-2.3576197624206543
1772896016781303000,9.372302978515625,-3.875821113586426,1.3809497356414795,-2.179957389831543
1772896016791271200,9.382271240234376,-3.1209208965301514,0.4455955922603607,-1.6431083679199219
1772896016801239300,9.3922392578125,-2.474107503890991,-0.021858694031834602,-1.1911669969558716
1772896016811208200,9.402208251953125,-1.913147211074829,-0.17781367897987366,-0.9398825168609619
1772896016821176300,9.41217626953125,-1.4480645656585693,-0.28559765219688416,-0.9646393060684204
1772896016831144400,9.42214453125,-1.047928810119629,-0.2652015686035156,-1.212756633758545
1772896016841113300,9.43211328125,-0.7681936025619507,-0.08275666832923889,-1.41008460521698
1772896016851081200,9.442081298828125,-0.5631635189056396,0.18835553526878357,-1.4006962776184082
1772896016861049000,9.452049072265625,-0.38216307759284973,0.26680320501327515,-1.0642873048782349
1772896016871018200,9.462018310546876,-0.18375492095947266,0.08522754907608032,-0.49936187267303467
1772896016880986000,9.471986083984374,0.09924722462892532,-0.15608200430870056,0.07018441706895828
1772896016890954200,9.481954345703125,0.40184012055397034,-0.35902872681617737,0.514358639717102
1772896016900923100,9.491923095703125,0.6444830894470215,-0.3925693929195404,0.7621005773544312
1772896016910891300,9.501891357421876,0.8113003373146057,-0.2356410175561905,0.7699880599975586
1772896016920859400,9.511859375,0.9683128595352173,-0.06824536621570587,0.6773276329040527
1772896016930828300,9.521828369140625,1.0944310426712036,0.01836063154041767,0.49609577655792236
1772896016940796200,9.531796142578125,1.0707249641418457,-0.038183338940143585,0.34686049818992615
1772896016950764300,9.541764404296876,0.8694669604301453,-0.1638248860836029,0.24491654336452484
1772896016960733200,9.551733154296874,0.626278281211853,-0.2572043538093567,0.08127248287200928
1772896016970701300,9.561701416015625,0.46933022141456604,-0.2964167594909668,-0.14838148653507233
1772896016980669200,9.571669189453125,0.3869567811489105,-0.2866021990776062,-0.40038761496543884
1772896016990638300,9.581638427734376,0.35534024238586426,-0.20768103003501892,-0.627993643283844
1772896017000606200,9.591606201171874,0.32720261812210083,-0.05435085669159889,-0.7734384536743164
1772896017010574300,9.60157421875,0.2892962694168091,0.11154783517122269,-0.8144742846488953
1772896017020543200,9.611543212890625,0.2602614164352417,0.2199837565422058,-0.7578938007354736
1772896017030511000,9.621510986328126,0.24866600334644318,0.22313161194324493,-0.6214845776557922
1772896017040479200,9.631479248046874,0.20941022038459778,0.14452309906482697,-0.3821612298488617
1772896017050448100,9.6414482421875,0.12570813298225403,0.04260977730154991,-0.1052425354719162
1772896017060416300,9.651416259765625,0.01673423871397972,-0.04236370325088501,0.1608693152666092
1772896017070384400,9.66138427734375,-0.08264454454183578,-0.10896190255880356,0.3435951769351959
1772896017080353300,9.671353271484374,-0.1617193967103958,-0.09342075884342194,0.3971196711063385
1772896017090321000,9.68132080078125,-0.21174420416355133,-0.00806218758225441,0.3367319405078888
1772896017100288500,9.69128857421875,-0.21101823449134827,0.09923604130744934,0.21592403948307037
1772896017110257700,9.701257568359376,-0.1927018016576767,0.1772935539484024,0.06222369149327278
1772896017120225800,9.711225830078124,-0.17722192406654358,0.24853578209877014,-0.0908081978559494
1772896017130193700,9.721193603515625,-0.2006089985370636,0.30124107003211975,-0.24469895660877228
1772896017140162800,9.731162841796875,-0.28633934259414673,0.25462082028388977,-0.30106717348098755
1772896017150130700,9.741130615234376,-0.40961334109306335,0.11804860830307007,-0.30866914987564087
1772896017160098800,9.751098876953124,-0.5025491714477539,-0.004987035412341356,-0.26971855759620667
1772896017170069800,9.76106982421875,-0.5358783602714539,-0.09087610989809036,-0.22883637249469757
1772896017180037600,9.77103759765625,-0.5149682760238647,-0.10752060264348984,-0.19507601857185364
1772896017190006800,9.7810068359375,-0.4673786461353302,-0.08894798159599304,-0.11879855394363403
1772896017199974700,9.790974609375,-0.4075901508331299,-0.062374960631132126,-0.053093843162059784
1772896017209942800,9.80094287109375,-0.3611355721950531,0.03362933173775673,-0.04914597421884537
1772896017219912000,9.810911865234376,-0.34950846433639526,0.12924107909202576,-0.043475303798913956
1772896017229879600,9.820879638671874,-0.3772261142730713,0.1570061296224594,-0.013540576212108135
1772896017239847700,9.83084765625,-0.45530760288238525,0.15272030234336853,0.09015625715255737
1772896017249816600,9.840816650390625,-0.5387308597564697,0.0822938084602356,0.288479208946228
1772896017259784700,9.85078466796875,-0.591605007648468,-0.026997795328497887,0.4901635944843292
1772896017269752800,9.8607529296875,-0.6148647665977478,-0.1333780288696289,0.5954580307006836
1772896017279721700,9.8707216796875,-0.6196470260620117,-0.17186470329761505,0.5878618955612183
1772896017289689900,9.88068994140625,-0.562028169631958,-0.11675937473773956,0.4817812740802765
1772896017299657700,9.89065771484375,-0.5077524185180664,-0.057262223213911057,0.32704976201057434
1772896017309627000,9.900626953125,-0.5133461356163025,-0.02882685512304306,-0.031382422894239426
1772896017319594500,9.910594482421875,-0.45492038130760193,0.02430267632007599,-0.5303184390068054
1772896017329562600,9.920562744140625,0.10391175001859665,0.10762792825698853,-1.0054905414581299
1772896017339531800,9.93053173828125,1.317397117614746,0.12456509470939636,-1.1964410543441772
1772896017349499600,9.940499755859374,2.7136402130126953,-0.015868179500102997,-0.4910898208618164
1772896017359467800,9.9504677734375,3.7778160572052,-0.5466721057891846,0.831832230091095
1772896017369436700,9.960436767578125,4.556457996368408,-0.8198632001876831,2.192256450653076
1772896017379404800,9.97040478515625,4.292482376098633,-0.8920614719390869,2.91982102394104
1772896017389373000,9.980373046875,2.8453149795532227,-1.3989355564117432,2.468581438064575
1772896017399341800,9.990341796875,0.8722648620605469,-1.3408938646316528,0.9440551996231079
1772896017409309700,10.000309814453125,-0.8572958111763,-0.36224716901779175,-0.7876163125038147
1772896017419277600,10.010277587890625,-1.9091360569000244,0.7695140242576599,-1.9283674955368042
1772896017429246700,10.020246826171874,-2.2952823638916016,1.3260283470153809,-2.2292678356170654
1772896017439214600,10.030214599609375,-2.2051279544830322,0.9919529557228088,-1.9835010766983032
1772896017449182700,10.0401826171875,-1.9288923740386963,0.28082314133644104,-1.5483722686767578
1772896017459152000,10.05015185546875,-1.6266143321990967,-0.19313190877437592,-1.210638403892517
1772896017469119700,10.06011962890625,-1.3932971954345703,-0.2595841586589813,-1.0021262168884277
1772896017479087900,10.070087890625,-1.1774295568466187,-0.2558797001838684,-0.826683521270752
1772896017489056800,10.080056884765625,-0.9586221575737,-0.24303102493286133,-0.6497641801834106
1772896017499024600,10.090024658203125,-0.7792233228683472,-0.23803652822971344,-0.5292832851409912
1772896017508992800,10.09999267578125,-0.6646352410316467,-0.16684678196907043,-0.4728391766548157
1772896017518961700,10.109961669921875,-0.6742713451385498,-0.010179400444030762,-0.45339730381965637
1772896017528929800,10.1199296875,-0.7078580856323242,0.1258023977279663,-0.4477599263191223
1772896017538897700,10.129897705078125,-0.6649894714355469,0.153673455119133,-0.4328179955482483
1772896017548866800,10.13986669921875,-0.5400810837745667,0.10357299447059631,-0.398286908864975
1772896017558834700,10.149834716796875,-0.3067287802696228,0.026520024985074997,-0.38983723521232605
1772896017568802800,10.159802734375,-0.02377430535852909,-0.02949477545917034,-0.36145034432411194
1772896017578771700,10.169771728515625,0.2181674838066101,-0.011277155950665474,-0.3191252648830414
1772896017588739600,10.179739501953126,0.4197482764720917,0.07763300836086273,-0.2818513810634613
1772896017598708700,10.189708740234375,0.5753839612007141,0.1795591115951538,-0.25198110938072205
1772896017608676600,10.199676513671875,0.6423270106315613,0.21369656920433044,-0.2521424889564514
1772896017618644700,10.209644775390625,0.6206334233283997,0.17281918227672577,-0.292069673538208
1772896017628613600,10.219613525390624,0.5509926080703735,0.0875341072678566,-0.38861218094825745
1772896017638581800,10.229581787109375,0.47399580478668213,-0.017706824466586113,-0.5221284627914429
1772896017648550000,10.2395498046875,0.38206374645233154,-0.10800369828939438,-0.6346821784973145
1772896017658518800,10.249518798828126,0.3232076168060303,-0.11792690306901932,-0.7432456612586975
1772896017668487000,10.25948681640625,0.29702794551849365,-0.07214396446943283,-0.8596968650817871
1772896017678454500,10.26945458984375,0.2969515025615692,0.021038172766566277,-0.913347601890564
1772896017688423700,10.279423583984375,0.3032360374927521,0.08748804032802582,-0.9061115384101868
1772896017698391600,10.2893916015625,0.291626513004303,0.10733763873577118,-0.7997587323188782
1772896017708359700,10.299359619140626,0.26828524470329285,0.04854809492826462,-0.6205146908760071
1772896017718328800,10.309328857421875,0.24201129376888275,-0.07187232375144958,-0.3600463271141052
1772896017728296700,10.319296630859375,0.20406551659107208,-0.22412684559822083,-0.02997148036956787
1772896017738264800,10.329264892578125,0.14708878099918365,-0.3392361104488373,0.2926606237888336
1772896017748233700,10.339233642578124,0.05095452815294266,-0.3164173662662506,0.4829445481300354
1772896017758201900,10.349201904296875,-0.04837365821003914,-0.2141983062028885,0.5698655843734741
1772896017768169700,10.359169677734375,-0.07429127395153046,-0.10318470746278763,0.5666647553443909
1772896017778138600,10.369138671875,-0.026645725592970848,-0.03422268480062485,0.5176263451576233
1772896017788106800,10.379106689453126,0.02785693109035492,-0.007003581151366234,0.4735334813594818
1772896017798074600,10.38907470703125,0.03615747019648552,0.012075304985046387,0.4347274899482727
1772896017808043800,10.399043701171875,0.017015468329191208,0.009141034446656704,0.3941286504268646
1772896017818011600,10.40901171875,-0.02377297356724739,-0.023736488074064255,0.37389451265335083
1772896017827979800,10.418979736328126,-0.07898429781198502,-0.0787866935133934,0.3697753846645355
1772896017837948700,10.42894873046875,-0.1119568943977356,-0.12059991806745529,0.369998574256897
1772896017847916800,10.438916748046875,-0.07576347142457962,-0.10031302273273468,0.3494858145713806
1772896017857884700,10.448884765625,-0.013884389773011208,-0.07240922003984451,0.2974950671195984
1772896017867853600,10.458853515625,0.03073713928461075,-0.03280561789870262,0.23929648101329803
1772896017877821700,10.46882177734375,0.040350619703531265,0.015077220275998116,0.1359277367591858
1772896017887789800,10.478789794921875,0.0035004590172320604,0.04098951071500778,0.0033952640369534492
1772896017897758700,10.4887587890625,-0.10199427604675293,0.03503495082259178,-0.10603109747171402
1772896017907726800,10.498726806640626,-0.22129856050014496,0.049072738736867905,-0.2493342012166977
1772896017917694700,10.50869482421875,-0.28142049908638,0.1665375828742981,-0.4241022765636444
1772896017927663900,10.518663818359375,-0.24749767780303955,0.32105764746665955,-0.5914249420166016
1772896017937631700,10.5286318359375,-0.07644151151180267,0.31508922576904297,-0.7613287568092346
1772896017947599600,10.538599609375,0.3979630768299103,0.13757623732089996,-0.8376235365867615
1772896017957568800,10.54856884765625,1.475140929222107,-0.27801164984703064,-0.9682843685150146
1772896017967536600,10.55853662109375,3.081010580062866,-0.5703074336051941,-0.9814022779464722
1772896017977505800,10.568505859375,4.27273416519165,-0.24676664173603058,-0.708392858505249
1772896017987473700,10.5784736328125,4.159543991088867,-0.17746560275554657,-0.288295179605484
1772896017997441800,10.58844189453125,3.5566468238830566,-0.21908068656921387,0.42552706599235535
1772896018007410700,10.59841064453125,3.1094045639038086,-0.11850614100694656,1.645194172859192
1772896018017378800,10.60837890625,2.171348810195923,-0.8647984266281128,2.3751649856567383
1772896018027347000,10.618346923828126,0.818822979927063,-1.6368656158447266,2.2759597301483154
1772896018037315800,10.62831591796875,-0.5023810863494873,-1.1399307250976562,1.9120393991470337
1772896018047283700,10.63828369140625,-1.4394869804382324,0.1625891774892807,1.3024858236312866
1772896018057251600,10.64825146484375,-2.0015037059783936,1.155299186706543,0.4256812632083893
1772896018067220700,10.658220703125,-2.4056766033172607,1.6633193492889404,-0.44074010848999023
1772896018077188600,10.668188720703125,-2.5694124698638916,1.7724905014038086,-1.0157722234725952
1772896018087156700,10.67815673828125,-2.3615546226501465,1.4683802127838135,-1.2848249673843384
1772896018097126400,10.68812646484375,-1.8813281059265137,0.9210196137428284,-1.2916312217712402
1772896018107094500,10.698094482421874,-1.387494683265686,0.22622327506542206,-1.1103941202163696
1772896018117062400,10.7080625,-1.0596539974212646,-0.32524412870407104,-0.727817714214325
1772896018127031300,10.71803125,-0.8342157602310181,-0.4755401611328125,-0.2899964153766632
1772896018136999400,10.72799951171875,-0.7022420167922974,-0.2800108790397644,0.10766308009624481
1772896018146967300,10.73796728515625,-0.6198121309280396,0.13680578768253326,0.3353833258152008
1772896018156936400,10.7479365234375,-0.5211390852928162,0.5012980103492737,0.36255794763565063
1772896018166904600,10.757904541015625,-0.3787859380245209,0.684044361114502,0.3119693398475647
1772896018176872400,10.76787255859375,-0.21251092851161957,0.6832702159881592,0.2249191254377365
1772896018186841600,10.777841552734374,-0.10378285497426987,0.5772098302841187,0.14110465347766876
1772896018196809500,10.7878095703125,-0.08891841769218445,0.39930450916290283,0.05535886436700821
1772896018206777300,10.79777734375,-0.17731326818466187,0.1651708483695984,0.025131452828645706
1772896018216746200,10.807746337890626,-0.2919633984565735,-0.0021166803780943155,-0.03843766823410988
1772896018226714400,10.81771435546875,-0.3755193054676056,-0.05504860356450081,-0.1359218806028366
1772896018236682500,10.8276826171875,-0.3906146287918091,-0.0010069411946460605,-0.2592054605484009
1772896018246651400,10.8376513671875,-0.297152042388916,0.05360517278313637,-0.43964874744415283
1772896018256619500,10.84761962890625,-0.12012933939695358,0.09790632128715515,-0.5864821076393127
1772896018266587400,10.85758740234375,0.07324998080730438,0.11547546088695526,-0.6839367747306824
1772896018276556500,10.867556640625,0.21582257747650146,0.10871049761772156,-0.7233489155769348
1772896018286524400,10.8775244140625,0.25534626841545105,0.060222327709198,-0.7255406975746155
1772896018296492300,10.8874921875,0.18314425647258759,-0.02887692116200924,-0.6939630508422852
1772896018306461400,10.89746142578125,0.08370022475719452,-0.12395816296339035,-0.6467129588127136
1772896018316429300,10.90742919921875,0.025893915444612503,-0.20259252190589905,-0.5766502618789673
1772896018326398500,10.9173984375,0.03267352283000946,-0.20560190081596375,-0.5027483701705933
1772896018336366300,10.927366455078126,0.08931363373994827,-0.17690233886241913,-0.3987542986869812
1772896018346334500,10.93733447265625,0.18165847659111023,-0.11535269021987915,-0.2608611583709717
1772896018356303400,10.947303466796875,0.26218608021736145,-0.06835082918405533,-0.09432011097669601
1772896018366271500,10.957271484375,0.29081133008003235,-0.08390635251998901,0.07407210022211075
1772896018376239600,10.967239501953125,0.2709026038646698,-0.12275707721710205,0.20086225867271423
1772896018386208500,10.97720849609375,0.1958070546388626,-0.13371998071670532,0.27800923585891724
1772896018396176400,10.98717626953125,0.1162927895784378,-0.13735492527484894,0.31265324354171753
1772896018406144300,10.997144287109375,0.0635153278708458,-0.1500811129808426,0.34581252932548523
1772896018416113400,11.007113525390626,0.031202128157019615,-0.18376503884792328,0.3934365212917328
1772896018426081500,11.01708154296875,0.011209511198103428,-0.22535109519958496,0.4441811740398407
1772896018436049400,11.02704931640625,-0.002269545802846551,-0.23216931521892548,0.49263712763786316
1772896018446018600,11.0370185546875,-0.024294421076774597,-0.2221851348876953,0.5289304256439209
1772896018455986400,11.046986328125,-0.05806703120470047,-0.1967410296201706,0.5777599811553955
1772896018465954600,11.05695458984375,-0.1042529046535492,-0.20220530033111572,0.614022433757782
1772896018475923500,11.06692333984375,-0.1968534141778946,-0.2621423900127411,0.6271187663078308
1772896018485891300,11.076891357421875,-0.3866443932056427,-0.4064982533454895,0.5990634560585022
1772896018495859500,11.086859375,-0.6057008504867554,-0.5193145275115967,0.5325890779495239
1772896018505828400,11.096828369140624,-0.7880842089653015,-0.5246672034263611,0.42130833864212036
1772896018515796500,11.10679638671875,-0.8689883947372437,-0.4382609724998474,0.3626682162284851
1772896018525764400,11.116764404296875,-0.815774142742157,-0.31311556696891785,0.37511876225471497
1772896018535733500,11.1267333984375,-0.6881006360054016,-0.21818239986896515,0.42475900053977966
1772896018545701400,11.136701416015624,-0.49123311042785645,-0.16285283863544464,0.3920260965824127
1772896018555669500,11.14666943359375,-0.19379769265651703,-0.3158458471298218,0.2708171010017395
1772896018565638700,11.156638671875,0.41618043184280396,-0.6075541377067566,0.16715143620967865
1772896018575606300,11.166606201171875,1.8256858587265015,-0.7621951103210449,0.10271652787923813
1772896018585574400,11.176574462890626,3.6035492420196533,-0.7329128384590149,0.16654424369335175
1772896018595543300,11.186543212890625,4.845085620880127,-0.9827682375907898,0.4704844355583191
1772896018605511400,11.196511474609375,5.307958126068115,-1.1365582942962646,0.831308126449585
1772896018615479600,11.2064794921875,4.690418243408203,-0.5775400400161743,1.1611483097076416
1772896018625448400,11.216448486328124,2.711921453475952,-0.35946547985076904,1.0604033470153809
1772896018635416600,11.22641650390625,0.13424408435821533,-0.15002278983592987,0.8077844381332397
1772896018645384400,11.236384521484375,-1.6953877210617065,0.5774210095405579,0.7819943428039551
1772896018655353600,11.246353515625,-2.502309799194336,1.0455716848373413,0.6817838549613953
1772896018665321500,11.256321533203124,-2.878523349761963,1.268110990524292,0.3403860628604889
1772896018675290400,11.266290283203125,-3.0838966369628906,1.3538038730621338,-0.1754320114850998
1772896018685258500,11.276258544921875,-2.922262668609619,1.2944382429122925,-0.5948697328567505
1772896018695226400,11.286226318359375,-2.4016947746276855,1.0273140668869019,-0.7253212332725525
1772896018705195500,11.296195556640624,-1.5970878601074219,0.5638617873191833,-0.5797704458236694
1772896018715163400,11.306163330078125,-0.8121261596679688,0.03621339797973633,-0.28012433648109436
1772896018725131500,11.316131591796875,-0.4155910909175873,-0.2766507565975189,0.003837615018710494
1772896018735100400,11.326100341796876,-0.30388158559799194,-0.1147332414984703,-0.062004514038562775
1772896018745068500,11.336068603515624,-0.25456225872039795,0.20464421808719635,-0.34486445784568787
1772896018755036400,11.346036376953125,-0.18971294164657593,0.367946594953537,-0.6857405304908752
1772896018765005300,11.35600537109375,-0.058419369161129,0.30257344245910645,-0.9979972243309021
1772896018774973400,11.365973388671875,0.08136916160583496,0.17074884474277496,-1.2252557277679443
1772896018784941300,11.37594140625,0.14916925132274628,0.05691654607653618,-1.2924795150756836
1772896018794910500,11.385910400390625,0.1738215982913971,-0.035224564373493195,-1.2565726041793823
1772896018804878600,11.395878662109375,0.15579812228679657,-0.12223003804683685,-1.172629475593567
1772896018814846500,11.405846435546875,0.07537784427404404,-0.14201892912387848,-1.0343022346496582
1772896018824815600,11.415815673828124,0.008057660423219204,-0.11974743753671646,-0.8895226716995239
1772896018834783500,11.425783447265625,-0.007928763516247272,-0.09077304601669312,-0.7906999588012695
1772896018844751400,11.43575146484375,0.009781258180737495,-0.06541549414396286,-0.7368506193161011
1772896018854720300,11.44572021484375,0.042872101068496704,-0.05007754638791084,-0.7093534469604492
1772896018864688400,11.4556884765625,0.058391403406858444,-0.06812019646167755,-0.6716713309288025
1772896018874656500,11.465656494140624,0.05301661416888237,-0.06923046708106995,-0.5945703983306885
1772896018884625400,11.47562548828125,0.042449723929166794,-0.06752258539199829,-0.5047616958618164
1772896018894593500,11.485593505859375,0.06704720854759216,-0.06217389181256294,-0.4308193027973175
1772896018904561400,11.4955615234375,0.10908627510070801,-0.06959772109985352,-0.3524286150932312
1772896018914530600,11.505530517578125,0.13538791239261627,-0.0569988377392292,-0.24641163647174835
1772896018924498400,11.51549853515625,0.13322941958904266,0.0062645538710057735,-0.1049937903881073
1772896018934466300,11.52546630859375,0.1301678568124771,0.11883717030286789,0.04430647939443588
1772896018944435500,11.535435546875,0.1215117871761322,0.18685483932495117,0.218662828207016
1772896018954403300,11.5454033203125,0.11114729195833206,0.18871985375881195,0.41545605659484863
1772896018964372500,11.55537255859375,0.11842065304517746,0.18747961521148682,0.6089245676994324
1772896018974340400,11.56534033203125,0.1141153872013092,0.21677172183990479,0.7693073153495789
1772896018984308500,11.57530859375,0.08668243139982224,0.2542429268360138,0.8694730997085571
1772896018994277400,11.58527734375,0.053169477730989456,0.2788654565811157,0.9439275860786438
1772896019004245500,11.59524560546875,-0.01782400533556938,0.234426349401474,1.041393756866455
1772896019014213600,11.605213623046875,-0.07437436282634735,0.15162920951843262,1.1141459941864014
1772896019024182500,11.6151826171875,-0.1084471121430397,0.10153168439865112,1.1941430568695068
1772896019034150400,11.625150390625,-0.13156814873218536,0.1186819076538086,1.2338638305664062
1772896019044118500,11.635118408203125,-0.13343475759029388,0.15590757131576538,1.2470427751541138
1772896019054087400,11.64508740234375,-0.12893694639205933,0.18369552493095398,1.2438602447509766
1772896019064055600,11.6550556640625,-0.13328509032726288,0.21132875978946686,1.242404580116272
1772896019074023400,11.6650234375,-0.14996179938316345,0.22179311513900757,1.2760940790176392
1772896019083992600,11.67499267578125,-0.16657006740570068,0.24591682851314545,1.359947681427002
1772896019093960200,11.684960205078125,-0.20490413904190063,0.24910596013069153,1.4949723482131958
1772896019103928300,11.69492822265625,-0.25837960839271545,0.18514348566532135,1.6328567266464233
1772896019113897200,11.704897216796875,-0.275928795337677,0.055819325149059296,1.7324992418289185
1772896019123865300,11.714865234375,-0.27951207756996155,-0.08157341927289963,1.7909244298934937
1772896019133833500,11.72483349609375,-0.28520458936691284,-0.17172621190547943,1.7335788011550903
1772896019143802400,11.73480224609375,-0.29442229866981506,-0.20571933686733246,1.546792984008789
1772896019153770200,11.744770263671874,-0.3067740499973297,-0.1447412073612213,1.2650020122528076
1772896019163738400,11.75473828125,-0.2957296669483185,-0.06660858541727066,0.9062167406082153
1772896019173707300,11.764707275390625,-0.27070125937461853,-0.04718349128961563,0.5614763498306274
1772896019183675400,11.77467529296875,-0.12392034381628036,-0.086878702044487,0.1593763381242752
1772896019193643300,11.784643310546874,0.48554539680480957,-0.1262197196483612,-0.16723079979419708
1772896019203612400,11.7946123046875,1.7591928243637085,-0.1932099461555481,-0.07103928923606873
1772896019213580300,11.804580322265625,3.259685754776001,-0.0357782356441021,0.589077353477478
1772896019223548400,11.81454833984375,4.149325847625732,-0.3406049907207489,1.5667850971221924
1772896019233517300,11.824517333984375,4.128434658050537,-1.2934648990631104,2.3698911666870117
1772896019243485200,11.834485107421875,3.5223846435546875,-1.590877890586853,2.2956855297088623
1772896019253454300,11.844454345703125,1.717000961303711,-0.8632985353469849,0.8921078443527222
1772896019263422200,11.854422119140626,-1.1039241552352905,0.29677334427833557,-1.003604531288147
1772896019273390300,11.864390380859374,-3.6297943592071533,2.039332628250122,-2.2956228256225586
1772896019283359200,11.874359130859375,-4.8154473304748535,3.5024099349975586,-2.664365291595459
1772896019293327400,11.884327392578125,-4.566830635070801,3.5021986961364746,-2.028563976287842
1772896019303295500,11.89429541015625,-3.5617449283599854,2.219058036804199,-0.7592978477478027
1772896019313264400,11.904264404296875,-2.4845423698425293,0.7125141024589539,0.5742387771606445
1772896019323232500,11.914232421875,-1.6717945337295532,-0.3900707960128784,1.3907666206359863
1772896019333200100,11.9242001953125,-1.1448782682418823,-0.821734607219696,1.4937840700149536
1772896019343169300,11.934169189453126,-0.8118007183074951,-0.8165006637573242,0.9567845463752747
1772896019353137200,11.94413720703125,-0.5942444205284119,-0.4554207921028137,0.10498207807540894
1772896019363105300,11.954105224609375,-0.4817671775817871,-0.06137893721461296,-0.7057307362556458
1772896019373074200,11.96407421875,-0.4120243191719055,0.1440727561712265,-1.2438522577285767
1772896019383042300,11.974042236328126,-0.3890332281589508,0.13185550272464752,-1.4374982118606567
1772896019393010400,11.984010498046874,-0.39683178067207336,0.01255121175199747,-1.380094051361084
1772896019402979300,11.993979248046875,-0.3416883647441864,-0.16650189459323883,-1.2268749475479126
1772896019412947500,12.003947509765625,-0.1970938891172409,-0.31304100155830383,-0.9929492473602295
1772896019422915300,12.013915283203126,0.037575338035821915,-0.34539520740509033,-0.7476438283920288
1772896019432884200,12.02388427734375,0.36277687549591064,-0.15179671347141266,-0.6104298233985901
1772896019442852400,12.033852294921875,0.6399253606796265,0.10984527319669724,-0.5393092632293701
1772896019452820200,12.0438203125,0.7984050512313843,0.27986785769462585,-0.46640685200691223
1772896019462789400,12.053789306640626,0.7877222895622253,0.25736308097839355,-0.3747600317001343
1772896019472757200,12.06375732421875,0.6300967335700989,0.11373055726289749,-0.2613935172557831
1772896019482725400,12.073725341796875,0.4269294738769531,-0.048956625163555145,-0.229961559176445
1772896019492694300,12.0836943359375,0.279556542634964,-0.17203594744205475,-0.2922651469707489
1772896019502662400,12.093662353515626,0.1916932612657547,-0.19456762075424194,-0.40658771991729736
1772896019512630300,12.10363037109375,0.10401614755392075,-0.13694506883621216,-0.5151727795600891
1772896019522599200,12.11359912109375,0.03734390810132027,0.003397394670173526,-0.6049745678901672
1772896019532567300,12.1235673828125,-0.006613161414861679,0.13442492485046387,-0.6262316703796387
1772896019542536200,12.1335361328125,-0.06423012167215347,0.19675514101982117,-0.5383628010749817
1772896019552504300,12.14350439453125,-0.13894537091255188,0.17347031831741333,-0.3736976981163025
1772896019562472400,12.153472412109375,-0.20138238370418549,0.07480606436729431,-0.12991192936897278
1772896019572441300,12.16344140625,-0.2520407736301422,-0.04048990085721016,0.1478073000907898
1772896019582409500,12.173409423828126,-0.2744118571281433,-0.14219628274440765,0.37724769115448
1772896019592377300,12.18337744140625,-0.2775639593601227,-0.1825128197669983,0.5097761750221252
1772896019602346500,12.193346435546875,-0.3117685317993164,-0.18580634891986847,0.5512687563896179
1772896019612314000,12.203314208984375,-0.37830495834350586,-0.1673559695482254,0.5209521055221558
1772896019622282200,12.2132822265625,-0.4468129277229309,-0.11514709144830704,0.43782180547714233
1772896019632251100,12.223251220703125,-0.46048957109451294,-0.030237531289458275,0.30937862396240234
1772896019642219300,12.23321923828125,-0.4523932933807373,0.041682466864585876,0.18284198641777039
1772896019652187400,12.2431875,-0.43969082832336426,0.08277397602796555,0.11175848543643951
1772896019662156300,12.25315625,-0.41830378770828247,0.08815755695104599,0.06920250505208969
1772896019672124400,12.26312451171875,-0.4020371735095978,0.09674012660980225,0.0535428524017334
1772896019682092500,12.273092529296875,-0.38943910598754883,0.08146050572395325,0.01955266296863556
1772896019692061400,12.2830615234375,-0.37887513637542725,0.054917044937610626,-0.03825337812304497
1772896019702029300,12.293029296875,-0.35673975944519043,0.04783996194601059,-0.10137562453746796
1772896019711997200,12.3029970703125,-0.32393041253089905,0.07368087768554688,-0.16280968487262726
1772896019721966300,12.31296630859375,-0.2858530580997467,0.14050838351249695,-0.17013205587863922
1772896019731934200,12.322934326171875,-0.2979581952095032,0.17977003753185272,-0.10419058054685593
1772896019741902300,12.33290234375,-0.36758893728256226,0.18434667587280273,0.07249364256858826
1772896019751871200,12.342871337890625,-0.42849382758140564,0.15250138938426971,0.3053649663925171
1772896019761839400,12.35283935546875,-0.4771396517753601,0.10239800810813904,0.5020407438278198
1772896019771807500,12.362807373046875,-0.4851320683956146,0.05005650967359543,0.6385474801063538
1772896019781776400,12.3727763671875,-0.4664880931377411,-0.002635996788740158,0.7919775247573853
