time,seconds_elapsed,z,y,x
1772905543493773600,0.340773681640625,-0.006745338439941406,-0.001128554344177246,0.000040005892515182495
1772905543503773400,0.3507734375,-0.006600379943847656,-0.0015022754669189453,0.0003941655158996582
1772905543513773600,0.360773681640625,-0.006474494934082031,-0.0018742084503173828,0.0007305145263671875
1772905543523773400,0.3707734375,-0.006304740905761719,-0.002122640609741211,0.0008701086044311523
1772905543533773600,0.380773681640625,-0.006011009216308594,-0.002009153366088867,0.0007759332656860352
1772905543543773400,0.3907734375,-0.005591392517089844,-0.001562356948852539,0.0005159974098205566
1772905543553773600,0.400773681640625,-0.005091190338134766,-0.0011138916015625,0.0002187192440032959
1772905543563773400,0.4107734375,-0.004688739776611328,-0.0009255409240722656,0.00001401267945766449
1772905543573773600,0.420773681640625,-0.0046482086181640625,-0.0010603666305541992,-0.000049345195293426514
1772905543583773400,0.4307734375,-0.005039215087890625,-0.0013527870178222656,-0.000049345195293426514
1772905543593773600,0.440773681640625,-0.00582122802734375,-0.0015592575073242188,-0.00008346140384674072
1772905543603773400,0.4507734375,-0.006775856018066406,-0.0015347003936767578,-0.00011596083641052246
1772905543613773600,0.460773681640625,-0.007550239562988281,-0.0013430118560791016,-0.000060714781284332275
1772905543623773400,0.4707734375,-0.007892608642578125,-0.001123666763305664,0.00008062273263931274
1772905543633773600,0.480773681640625,-0.007786750793457031,-0.0009692907333374023,0.00022357702255249023
1772905543643773400,0.4907734375,-0.0073871612548828125,-0.0009173154830932617,0.0002739429473876953
1772905543653773600,0.500773681640625,-0.006819725036621094,-0.0009953975677490234,0.00019922852516174316
1772905543663773400,0.5107734375,-0.0062999725341796875,-0.0011951923370361328,0.00006599724292755127
1772905543673773600,0.520773681640625,-0.006119728088378906,-0.0014925003051757812,-0.00002660229802131653
1772905543683773400,0.5307734375,-0.006283760070800781,-0.001802682876586914,-0.00004447251558303833
1772905543693773600,0.540773681640625,-0.006522178649902344,-0.002009153366088867,-0.000010356307029724121
1772905543703773400,0.5507734375,-0.006569862365722656,-0.0020513534545898438,0.00001076236367225647
1772905543713773600,0.560773681640625,-0.006297111511230469,-0.0019278526306152344,-0.00005096942186355591
1772905543723773400,0.5707734375,-0.005780220031738281,-0.0016841888427734375,-0.00019881129264831543
1772905543733773600,0.580773681640625,-0.005224704742431641,-0.0014503002166748047,-0.00036776065826416016
1772905543743773400,0.5907734375,-0.5798325538635254,-0.1044008731842041,0.17912232875823975
1772905543753773600,0.600773681640625,-0.6732063293457031,0.16614389419555664,0.18368405103683472
1772905543763773400,0.6107734375,-0.3236532211303711,0.6877808570861816,0.02767080068588257
1772905543773773600,0.620773681640625,0.19828224182128906,1.2085986137390137,-0.17871052026748657
1772905543783773400,0.6307734375,0.6699395179748535,1.5124855041503906,-0.29411232471466064
1772905543793773600,0.640773681640625,0.8662638664245605,1.505436658859253,-0.20600709319114685
1772905543803773400,0.6507734375,0.7585253715515137,1.246779203414917,0.03293275833129883
1772905543813773600,0.660773681640625,0.509528636932373,0.8726074695587158,0.247930645942688
1772905543823773400,0.6707734375,0.3371462821960449,0.48804616928100586,0.3384300470352173
1772905543833773600,0.680773681640625,0.42760658264160156,0.09781813621520996,0.36887478828430176
1772905543843773400,0.6907734375,0.8158230781555176,-0.26930928230285645,0.4157516360282898
1772905543853773600,0.700773681640625,1.4243049621582031,-0.5125374794006348,0.47422492504119873
1772905543863773400,0.7107734375,2.043764114379883,-0.559274435043335,0.5105835199356079
1772905543873773600,0.720773681640625,2.498450756072998,-0.44667816162109375,0.5340288877487183
1772905543883773400,0.7307734375,2.7348151206970215,-0.26681947708129883,0.59676593542099
1772905543893773600,0.740773681640625,2.6634936332702637,-0.09030771255493164,0.6840503811836243
1772905543903773400,0.7507734375,2.1426119804382324,0.07420992851257324,0.6447809338569641
1772905543913773600,0.760773681640625,1.2579898834228516,0.18660211563110352,0.41901588439941406
1772905543923773400,0.7707734375,0.33516788482666016,0.22077465057373047,0.08824175596237183
1772905543933773600,0.780773681640625,-0.22054290771484375,0.2101731300354004,-0.21065670251846313
1772905543943773400,0.7907734375,-0.14928245544433594,0.204756498336792,-0.34311702847480774
1772905543953773600,0.800773681640625,0.5093631744384766,0.21587014198303223,-0.24171745777130127
1772905543963773400,0.8107734375,1.4189033508300781,0.2211005687713623,0.029259920120239258
1772905543973773600,0.820773681640625,2.089482307434082,0.17879486083984375,0.3336813449859619
1772905543983773400,0.8307734375,2.222471237182617,0.07128381729125977,0.5283209681510925
1772905543993773600,0.840773681640625,1.8352537155151367,-0.05652141571044922,0.5059118866920471
1772905544003773400,0.8507734375,1.1224298477172852,-0.09696769714355469,0.2524702548980713
1772905544013773600,0.860773681640625,0.2881126403808594,0.024502038955688477,-0.12408709526062012
1772905544023773400,0.8707734375,-0.4805116653442383,0.25577664375305176,-0.47056546807289124
1772905544033773600,0.880773681640625,-1.1448283195495605,0.5015780925750732,-0.6387059688568115
1772905544043773400,0.8907734375,-1.7403202056884766,0.6903641223907471,-0.5712795257568359
1772905544053773600,0.900773681640625,-2.12013578414917,0.7674510478973389,-0.2900235950946808
1772905544063773400,0.9107734375,-2.101067066192627,0.6997177600860596,0.12834155559539795
1772905544073773600,0.920773681640625,-1.660064697265625,0.5329782962799072,0.5234006643295288
1772905544083773400,0.9307734375,-0.9443869590759277,0.31296229362487793,0.7562042474746704
1772905544093773600,0.940773681640625,-0.15259265899658203,0.09233498573303223,0.8409696817398071
1772905544103773400,0.9507734375,0.4734487533569336,-0.03584551811218262,0.8636875152587891
1772905544113773600,0.960773681640625,0.7347803115844727,-0.03859305381774902,0.8672178983688354
1772905544123773400,0.9707734375,0.6118841171264648,0.0457913875579834,0.8632720708847046
1772905544133773600,0.980773681640625,0.2622957229614258,0.16373896598815918,0.8276127576828003
1772905544143773400,0.9907734375,-0.0896453857421875,0.27430033683776855,0.7335443496704102
1772905544153773600,1.000773681640625,-0.3037261962890625,0.3463125228881836,0.5998358130455017
1772905544163773400,1.0107734375,-0.4100227355957031,0.3679020404815674,0.4620962142944336
1772905544173773600,1.020773681640625,-0.4643878936767578,0.34404921531677246,0.36560237407684326
1772905544183773400,1.0307734375,-0.48545360565185547,0.29416990280151367,0.3437613248825073
1772905544193773600,1.040773681640625,-0.4817543029785156,0.24488472938537598,0.3797597885131836
1772905544203773400,1.0507734375,-0.4215879440307617,0.1916656494140625,0.37312912940979004
1772905544213773600,1.060773681640625,-0.22091293334960938,0.07966876029968262,0.27389782667160034
1772905544223773400,1.0707734375,0.13705825805664062,-0.0986781120300293,0.1495785117149353
1772905544233773600,1.080773681640625,0.5994443893432617,-0.30433154106140137,0.18258047103881836
1772905544243773400,1.0907734375,0.9311065673828125,-0.46740126609802246,0.4689154624938965
1772905544253773600,1.100773681640625,0.7721891403198242,-0.5588400363922119,0.8481411933898926
1772905544263773400,1.1107734375,0.06688308715820312,-0.5496525764465332,1.0303226709365845
1772905544273773600,1.120773681640625,-0.9131064414978027,-0.4638979434967041,0.85960853099823
1772905544283773400,1.1307734375,-1.788710117340088,-0.39521265029907227,0.4078176021575928
1772905544293773600,1.140773681640625,-2.33087158203125,-0.3797941207885742,-0.09735453128814697
1772905544303773400,1.1507734375,-2.5804600715637207,-0.39395999908447266,-0.45685166120529175
1772905544313773600,1.160773681640625,-2.4369616508483887,-0.35653090476989746,-0.6297332644462585
1772905544323773400,1.1707734375,-1.9820427894592285,-0.3036174774169922,-0.5824061036109924
1772905544333773600,1.180773681640625,-1.376479148864746,-0.367093563079834,-0.4464048147201538
1772905544343773400,1.1907734375,-0.7472085952758789,-0.5064692497253418,-0.45094263553619385
1772905544353773600,1.200773681640625,-0.23018836975097656,-0.5185151100158691,-0.4990065097808838
1772905544363773400,1.2107734375,0.12519264221191406,-0.3338124752044678,-0.4819631576538086
1772905544373773600,1.220773681640625,0.32687854766845703,-0.05732154846191406,-0.4424971342086792
1772905544383773400,1.2307734375,0.4827890396118164,0.21086645126342773,-0.459460973739624
1772905544393773600,1.240773681640625,0.6164083480834961,0.28203487396240234,-0.4611663818359375
1772905544403773400,1.2507734375,0.621708869934082,0.051157474517822266,-0.3450026512145996
1772905544413773600,1.260773681640625,0.2613811492919922,-0.23498201370239258,-0.2622048854827881
1772905544423773400,1.2707734375,-0.6890521049499512,-0.3416619300842285,-0.36155378818511963
1772905544433773600,1.280773681640625,-1.8858909606933594,-0.22095370292663574,-0.6697203516960144
1772905544443773400,1.2907734375,-2.6836414337158203,-0.04288172721862793,-1.0388314723968506
1772905544453773600,1.300773681640625,-2.8108367919921875,0.0008480548858642578,-1.2224781513214111
1772905544463773400,1.3107734375,-2.3511009216308594,-0.08562541007995605,-1.1768889427185059
1772905544473773600,1.320773681640625,-1.6159567832946777,-0.25768542289733887,-0.996996283531189
1772905544483773400,1.3307734375,-0.9313406944274902,-0.43961668014526367,-0.8259928822517395
1772905544493773600,1.340773681640625,-0.4627237319946289,-0.5722901821136475,-0.7356669306755066
1772905544503773400,1.3507734375,-0.24624156951904297,-0.6154199838638306,-0.7190985083580017
1772905544513773600,1.360773681640625,-0.18629074096679688,-0.5595622062683105,-0.7286979556083679
1772905544523773400,1.3707734375,-0.20164966583251953,-0.41193056106567383,-0.7190901637077332
1772905544533773600,1.380773681640625,-0.1201934814453125,-0.15344762802124023,-0.6519269347190857
1772905544543773400,1.3907734375,0.014801025390625,0.12725496292114258,-0.4529176950454712
1772905544553773600,1.400773681640625,-0.011986732482910156,0.37282276153564453,-0.17062783241271973
1772905544563773400,1.4107734375,0.10176753997802734,0.5835585594177246,0.019096851348876953
1772905544573773600,1.420773681640625,0.9844083786010742,0.7647500038146973,-0.030518531799316406
1772905544583773400,1.4307734375,2.9723100662231445,0.9744043350219727,-0.3316068649291992
1772905544593773600,1.440773681640625,5.793557167053223,1.2801411151885986,-0.6730293035507202
1772905544603773400,1.4507734375,8.7446870803833,1.7693164348602295,-0.7643157243728638
1772905544613773600,1.460773681640625,11.433728218078613,2.4815211296081543,-0.5162881016731262
1772905544623773400,1.4707734375,14.22658634185791,3.235886812210083,-0.22817635536193848
1772905544633773600,1.480773681640625,17.810855865478516,3.739013433456421,-0.05608475208282471
1772905544643773400,1.4907734375,22.082149505615234,3.817234992980957,0.4278259873390198
1772905544653773600,1.500773681640625,25.68679428100586,3.6225061416625977,1.5844271183013916
1772905544663773400,1.5107734375,26.439285278320312,3.5437679290771484,3.0900120735168457
1772905544673773600,1.520773681640625,23.01211166381836,3.9147753715515137,4.107686519622803
1772905544683773400,1.5307734375,16.506013870239258,4.729122161865234,4.023083686828613
1772905544693773600,1.540773681640625,9.440712928771973,5.644769191741943,2.865217685699463
1772905544703773400,1.5507734375,3.7270660400390625,6.2324981689453125,1.1880617141723633
1772905544713773600,1.560773681640625,-0.20382213592529297,6.283123970031738,-0.2834644913673401
1772905544723773400,1.5707734375,-3.1627845764160156,5.803396224975586,-1.153944969177246
1772905544733773600,1.580773681640625,-6.114856243133545,4.908331871032715,-1.4392046928405762
1772905544743773400,1.5907734375,-9.134671211242676,3.670447587966919,-1.2194743156433105
1772905544753773600,1.600773681640625,-11.289551734924316,2.1772196292877197,-0.5629138350486755
1772905544763773400,1.6107734375,-12.011370658874512,0.5646679401397705,0.3115917444229126
1772905544773773600,1.620773681640625,-11.804241180419922,-0.9920413494110107,1.1645210981369019
1772905544783773400,1.6307734375,-11.733416557312012,-2.3119120597839355,1.593465805053711
1772905544793773600,1.640773681640625,-12.609710693359375,-3.3397164344787598,1.3135930299758911
1772905544803773400,1.6507734375,-14.440529823303223,-4.0457305908203125,0.37911415100097656
1772905544813773600,1.660773681640625,-16.644662857055664,-4.466978549957275,-0.9005250930786133
1772905544823773400,1.6707734375,-18.583412170410156,-4.655088901519775,-2.158993721008301
1772905544833773600,1.680773681640625,-19.833784103393555,-4.687247276306152,-3.092315673828125
1772905544843773400,1.6907734375,-20.294105529785156,-4.711216449737549,-3.659877061843872
1772905544853773600,1.700773681640625,-20.094905853271484,-4.837077617645264,-3.960484504699707
1772905544863773400,1.7107734375,-19.398666381835938,-5.07982873916626,-4.026165008544922
1772905544873773600,1.720773681640625,-18.395023345947266,-5.347533226013184,-3.9633443355560303
1772905544883773400,1.7307734375,-17.47628402709961,-5.652087211608887,-3.9502511024475098
1772905544893773600,1.740773681640625,-16.880361557006836,-5.982294082641602,-4.057164669036865
1772905544903773400,1.7507734375,-16.68528938293457,-6.320405960083008,-4.109875679016113
1772905544913773600,1.760773681640625,-16.688701629638672,-6.598715782165527,-3.871727466583252
1772905544923773400,1.7707734375,-16.4531192779541,-6.762909889221191,-3.2664270401000977
1772905544933773600,1.780773681640625,-15.79932689666748,-6.824212551116943,-2.442560911178589
1772905544943773400,1.7907734375,-14.842243194580078,-6.807888507843018,-1.6339824199676514
1772905544953773600,1.800773681640625,-13.815651893615723,-6.713129043579102,-1.05922532081604
1772905544963773400,1.8107734375,-12.939993858337402,-6.525124549865723,-0.8789710402488708
1772905544973773600,1.820773681640625,-12.350776672363281,-6.229491233825684,-1.097966194152832
1772905544983773400,1.8307734375,-11.960043907165527,-5.828987121582031,-1.49798583984375
1772905544993773600,1.840773681640625,-11.55398941040039,-5.498929500579834,-1.72653067111969
1772905545003773400,1.8507734375,-11.196062088012695,-5.244523525238037,-1.7688544988632202
1772905545013773600,1.860773681640625,-11.17443561553955,-4.910222053527832,-1.9173378944396973
1772905545023773400,1.8707734375,-11.86377239227295,-4.491953372955322,-2.4318952560424805
1772905545033773600,1.880773681640625,-10.961414337158203,-4.297091007232666,-2.3169593811035156
1772905545043773400,1.8907734375,-9.900369644165039,-4.036867141723633,-2.190263032913208
1772905545053773600,1.900773681640625,-8.196419715881348,-3.781977653503418,-1.8757386207580566
1772905545063773400,1.9107734375,-6.168527603149414,-3.5436148643493652,-1.564056158065796
1772905545073773600,1.920773681640625,-3.225069284439087,-3.524822950363159,-1.0582267045974731
1772905545083773400,1.9307734375,-2.2298824787139893,-3.2226836681365967,-0.8990880250930786
1772905545093773600,1.940773681640625,-0.4059882164001465,-3.047067642211914,-0.4188084006309509
1772905545103773400,1.9507734375,1.3477587699890137,-2.7480294704437256,-0.10092560201883316
1772905545113773600,1.960773681640625,3.1840932369232178,-2.342780351638794,-0.08997966349124908
1772905545123773400,1.9707734375,5.2981719970703125,-1.837748646736145,-0.13836243748664856
1772905545133773600,1.980773681640625,7.709780693054199,-1.2735188007354736,0.16143228113651276
1772905545143773400,1.9907734375,10.313874244689941,-0.6522421836853027,1.086543321609497
1772905545153773600,2.000773681640625,13.005152702331543,0.09656047821044922,2.4739768505096436
1772905545163773400,2.0107734375,15.508275032043457,1.0565546751022339,3.601701259613037
1772905545173773600,2.020773681640625,17.284883499145508,2.466071128845215,3.6773324012756348
1772905545183773400,2.0307734375,17.4425106048584,4.548500061035156,2.506179094314575
1772905545193773600,2.040773681640625,15.054519653320312,7.2861008644104,0.8119262456893921
1772905545203773400,2.0507734375,9.937191009521484,10.81680679321289,-0.2909417152404785
1772905545213773600,2.060773681640625,4.005377769470215,14.689258575439453,0.9426721930503845
1772905545223773400,2.0707734375,2.514974594116211,17.16411781311035,5.586827278137207
1772905545233773600,2.080773681640625,9.878412246704102,16.335615158081055,11.666937828063965
1772905545243773400,2.0907734375,24.5081729888916,11.77511978149414,15.849185943603516
1772905545253773600,2.100773681640625,40.37924575805664,5.510688781738281,15.564165115356445
1772905545263773400,2.1107734375,51.6269416809082,0.33859318494796753,11.228557586669922
1772905545273773600,2.120773681640625,55.4085693359375,-2.1029372215270996,5.852118492126465
1772905545283773400,2.1307734375,43.11417770385742,0.5922956466674805,0.07124513387680054
1772905545293773600,2.140773681640625,31.180721282958984,3.130897045135498,-1.0161669254302979
1772905545303773400,2.1507734375,19.123477935791016,5.162069320678711,-1.573685884475708
1772905545313773600,2.160773681640625,8.701394081115723,6.162078857421875,-1.2287356853485107
1772905545323773400,2.1707734375,1.1212635040283203,6.134897232055664,0.06506216526031494
1772905545333773600,2.180773681640625,-3.394529342651367,5.406461715698242,1.520837664604187
1772905545343773400,2.1907734375,-5.833272933959961,4.310759544372559,2.287321090698242
1772905545353773600,2.200773681640625,-7.566153049468994,3.040290594100952,2.1298904418945312
1772905545363773400,2.2107734375,-9.764127731323242,1.7856535911560059,1.1170761585235596
1772905545373773600,2.220773681640625,-11.086669921875,1.532848834991455,0.8917739391326904
1772905545383773400,2.2307734375,-17.88878631591797,-0.47165536880493164,-2.7582383155822754
1772905545393773600,2.240773681640625,-19.030364990234375,-0.7071080207824707,-2.9402928352355957
1772905545403773400,2.2507734375,-23.067710876464844,-1.986027479171753,-5.105288505554199
1772905545413773600,2.260773681640625,-25.175106048583984,-3.5375919342041016,-7.018989562988281
1772905545423773400,2.2707734375,-24.952856063842773,-5.180591583251953,-8.365582466125488
1772905545433773600,2.280773681640625,-23.283782958984375,-6.518377304077148,-8.933765411376953
1772905545443773400,2.2907734375,-21.71731948852539,-7.277926921844482,-8.661856651306152
1772905545453773600,2.300773681640625,-21.427589416503906,-7.436790466308594,-7.6983184814453125
1772905545463773400,2.3107734375,-24.49773597717285,-6.4730329513549805,-5.21316385269165
1772905545473773600,2.320773681640625,-24.56979751586914,-6.598474502563477,-5.234964370727539
1772905545483773400,2.3307734375,-27.87983512878418,-5.740063667297363,-3.174987554550171
1772905545493773600,2.340773681640625,-28.31232261657715,-5.673773765563965,-2.558945417404175
1772905545503773400,2.3507734375,-28.03936195373535,-5.6923370361328125,-2.500883102416992
1772905545513773600,2.360773681640625,-27.26833724975586,-5.725030899047852,-2.9952356815338135
1772905545523773400,2.3707734375,-26.03676414489746,-5.763001441955566,-3.7773802280426025
1772905545533773600,2.380773681640625,-24.329267501831055,-5.827877044677734,-4.5018310546875
1772905545543773400,2.3907734375,-22.26321792602539,-5.940200328826904,-4.8823652267456055
1772905545553773600,2.400773681640625,-20.050168991088867,-6.0634894371032715,-4.669527530670166
1772905545563773400,2.4107734375,-17.915510177612305,-6.099880695343018,-3.8468456268310547
1772905545573773600,2.420773681640625,-16.132038116455078,-5.9660749435424805,-2.794945240020752
1772905545583773400,2.4307734375,-15.065739631652832,-5.668207168579102,-2.0614607334136963
1772905545593773600,2.440773681640625,-14.860355377197266,-5.267925262451172,-1.895646095275879
1772905545603773400,2.4507734375,-15.208894729614258,-4.819256782531738,-2.157064914703369
1772905545613773600,2.460773681640625,-15.511402130126953,-4.346216678619385,-2.52115535736084
1772905545623773400,2.4707734375,-15.272977828979492,-3.899703025817871,-2.689056873321533
1772905545633773600,2.480773681640625,-14.394087791442871,-3.4879612922668457,-2.5481925010681152
1772905545643773400,2.4907734375,-13.095458030700684,-3.0984368324279785,-2.1758055686950684
1772905545653773600,2.500773681640625,-11.692733764648438,-2.700234889984131,-1.6926295757293701
1772905545663773400,2.5107734375,-10.3779296875,-2.265382766723633,-1.1700924634933472
1772905545673773600,2.520773681640625,-9.18265151977539,-1.8092865943908691,-0.6426560878753662
1772905545683773400,2.5307734375,-8.072579383850098,-1.3561815023422241,-0.16147930920124054
1772905545693773600,2.540773681640625,-6.935169219970703,-0.9354290962219238,0.2132500261068344
1772905545703773400,2.5507734375,-5.671957015991211,-0.6123390197753906,0.47425949573516846
1772905545713773600,2.560773681640625,-4.158140659332275,-0.4015614986419678,0.640567421913147
1772905545723773400,2.5707734375,-2.3052515983581543,-0.22286772727966309,0.804102897644043
1772905545733773600,2.580773681640625,-0.01636815071105957,0.0051000118255615234,1.1745808124542236
1772905545743773400,2.5907734375,2.8369297981262207,0.3698023557662964,1.8861019611358643
1772905545753773600,2.600773681640625,6.538516521453857,0.9334222078323364,2.9979238510131836
1772905545763773400,2.6107734375,11.12712574005127,1.7849398851394653,4.266880989074707
1772905545773773600,2.620773681640625,15.870291709899902,3.033595561981201,5.201234340667725
1772905545783773400,2.6307734375,19.438201904296875,4.683200359344482,5.401213645935059
1772905545793773600,2.640773681640625,20.983945846557617,6.893349647521973,4.897733211517334
1772905545803773400,2.6507734375,21.120746612548828,9.630626678466797,4.531032562255859
1772905545813773600,2.660773681640625,21.984764099121094,12.329426765441895,5.451550483703613
1772905545823773400,2.6707734375,25.97433090209961,14.127345085144043,8.243058204650879
1772905545833773600,2.680773681640625,34.133121490478516,14.15323257446289,12.979414939880371
1772905545843773400,2.6907734375,45.61767578125,11.86556625366211,19.642810821533203
1772905545853773600,2.700773681640625,56.70451354980469,7.041448593139648,27.32389259338379
1772905545863773400,2.7107734375,61.59132766723633,1.321630835533142,32.58944320678711
1772905545873773600,2.720773681640625,56.46146011352539,-2.324718952178955,31.523998260498047
1772905545883773400,2.7307734375,42.607791900634766,-2.8177132606506348,23.92966079711914
1772905545893773600,2.740773681640625,25.460445404052734,-0.7519724369049072,12.8518648147583
1772905545903773400,2.7507734375,10.709574699401855,2.2829666137695312,2.020522117614746
1772905545913773600,2.760773681640625,1.1736507415771484,4.58146858215332,-6.0873236656188965
1772905545923773400,2.7707734375,-4.039910316467285,5.13126277923584,-10.884628295898438
1772905545933773600,2.780773681640625,-7.668201446533203,3.831153392791748,-12.994033813476562
1772905545943773400,2.7907734375,-11.791914939880371,1.2818818092346191,-13.02132797241211
1772905545953773600,2.800773681640625,-16.778316497802734,-1.6654813289642334,-11.535594940185547
1772905545963773400,2.8107734375,-21.714574813842773,-4.459853172302246,-9.490697860717773
1772905545973773600,2.820773681640625,-25.5266056060791,-6.774397373199463,-8.043455123901367
1772905545983773400,2.8307734375,-27.703800201416016,-8.363816261291504,-7.934549331665039
1772905545993773600,2.840773681640625,-28.583959579467773,-9.229698181152344,-9.062631607055664
1772905546003773400,2.8507734375,-28.878263473510742,-9.592491149902344,-10.684218406677246
1772905546013773600,2.860773681640625,-28.939918518066406,-9.604789733886719,-12.009552955627441
1772905546023773400,2.8707734375,-28.75911521911621,-9.391674041748047,-12.594560623168945
1772905546033773600,2.880773681640625,-28.276426315307617,-9.076233863830566,-12.421764373779297
1772905546043773400,2.8907734375,-27.49441146850586,-8.669466972351074,-11.744556427001953
1772905546053773600,2.900773681640625,-26.654327392578125,-8.16319751739502,-10.914899826049805
1772905546063773400,2.9107734375,-26.06412124633789,-7.632120609283447,-10.186824798583984
1772905546073773600,2.920773681640625,-25.854074478149414,-7.142429351806641,-9.61617660522461
1772905546083773400,2.9307734375,-25.86931800842285,-6.726218223571777,-9.063925743103027
1772905546093773600,2.940773681640625,-25.8338623046875,-6.373012542724609,-8.33761978149414
1772905546103773400,2.9507734375,-25.55605697631836,-6.058279991149902,-7.418158531188965
1772905546113773600,2.960773681640625,-24.91701889038086,-5.801029682159424,-6.444501876831055
1772905546123773400,2.9707734375,-23.853294372558594,-5.613539218902588,-5.535660743713379
1772905546133773600,2.980773681640625,-22.5341854095459,-5.462344646453857,-4.802063941955566
1772905546143773400,2.9907734375,-21.269208908081055,-5.304446697235107,-4.339982032775879
1772905546153773600,3.000773681640625,-20.30950355529785,-5.111416816711426,-4.180085182189941
1772905546163773400,3.0107734375,-19.69821548461914,-4.886671543121338,-4.207633018493652
1772905546173773600,3.020773681640625,-19.227453231811523,-4.627450942993164,-4.205632209777832
1772905546183773400,3.0307734375,-18.51319122314453,-4.330289840698242,-4.013518333435059
1772905546193773600,3.040773681640625,-17.33257484436035,-4.0014142990112305,-3.601238965988159
1772905546203773400,3.0507734375,-15.77961254119873,-3.6150052547454834,-3.1236813068389893
1772905546213773600,3.060773681640625,-14.180139541625977,-3.1617095470428467,-2.7348215579986572
1772905546223773400,3.0707734375,-12.801982879638672,-2.6599652767181396,-2.4661052227020264
1772905546233773600,3.080773681640625,-11.639776229858398,-2.1545801162719727,-2.2469239234924316
1772905546243773400,3.0907734375,-10.479336738586426,-1.706654667854309,-1.9385454654693604
1772905546253773600,3.100773681640625,-9.034396171569824,-1.3170629739761353,-1.4805538654327393
1772905546263773400,3.1107734375,-7.291957378387451,-0.9859440326690674,-0.963468074798584
1772905546273773600,3.120773681640625,-5.374885082244873,-0.6863971948623657,-0.503242015838623
1772905546283773400,3.1307734375,-3.4591503143310547,-0.27960842847824097,-0.15018415451049805
1772905546293773600,3.140773681640625,-1.8773722648620605,0.4101983904838562,-0.0762256383895874
1772905546303773400,3.1507734375,-0.5906062126159668,1.113802194595337,0.026718974113464355
1772905546313773600,3.160773681640625,0.8317762613296509,1.6083576679229736,0.43409430980682373
1772905546323773400,3.1707734375,2.863943576812744,1.8550724983215332,1.1366691589355469
1772905546333773600,3.180773681640625,5.635013103485107,1.9210577011108398,1.8753345012664795
1772905546343773400,3.1907734375,8.914535522460938,2.0194523334503174,2.4215123653411865
1772905546353773600,3.200773681640625,12.502937316894531,2.38481068611145,2.9142627716064453
1772905546363773400,3.2107734375,16.245380401611328,3.055049419403076,3.5536088943481445
1772905546373773600,3.220773681640625,20.06437110900879,3.9481589794158936,4.363718509674072
1772905546383773400,3.2307734375,23.607078552246094,5.273433685302734,5.058347702026367
1772905546393773600,3.240773681640625,26.937725067138672,7.030150413513184,6.073095321655273
1772905546403773400,3.2507734375,31.273448944091797,8.429290771484375,8.682592391967773
1772905546413773600,3.260773681640625,37.81134033203125,8.368875503540039,14.008415222167969
1772905546423773400,3.2707734375,46.114192962646484,6.394957065582275,21.714096069335938
1772905546433773600,3.280773681640625,53.210052490234375,3.2031354904174805,29.662160873413086
1772905546443773400,3.2907734375,54.95297622680664,0.27256762981414795,34.91523361206055
1772905546453773600,3.300773681640625,49.201026916503906,-1.10140061378479,34.89907455444336
1772905546463773400,3.3107734375,37.693084716796875,-0.6143337488174438,29.231935501098633
1772905546473773600,3.320773681640625,24.718120574951172,1.0710763931274414,19.956398010253906
1772905546483773400,3.3307734375,14.085578918457031,2.9717116355895996,9.849875450134277
1772905546493773600,3.340773681640625,7.254365921020508,4.361501693725586,0.9740114212036133
1772905546503773400,3.3507734375,3.4167022705078125,4.879251480102539,-5.686263561248779
1772905546513773600,3.360773681640625,0.7062625885009766,4.439526557922363,-10.020326614379883
1772905546523773400,3.3707734375,-2.4003849029541016,3.140319585800171,-12.355611801147461
1772905546533773600,3.380773681640625,-6.718665599822998,1.2433149814605713,-12.98428726196289
1772905546543773400,3.3907734375,-12.4822998046875,-0.8713271617889404,-12.216197967529297
1772905546553773600,3.400773681640625,-18.975486755371094,-2.8069307804107666,-10.680120468139648
1772905546563773400,3.4107734375,-24.78139877319336,-4.300040245056152,-9.282675743103027
1772905546573773600,3.420773681640625,-28.65487289428711,-5.351452827453613,-8.850386619567871
1772905546583773400,3.4307734375,-30.129066467285156,-6.073063850402832,-9.71968936920166
1772905546593773600,3.440773681640625,-29.583175659179688,-6.53756856918335,-11.5557861328125
1772905546603773400,3.4507734375,-27.860902786254883,-6.792981147766113,-13.68764877319336
1772905546613773600,3.460773681640625,-26.058555603027344,-6.835497856140137,-15.563070297241211
1772905546623773400,3.4707734375,-25.193134307861328,-6.682581901550293,-16.808568954467773
1772905546633773600,3.480773681640625,-25.71609878540039,-6.380025863647461,-17.276517868041992
1772905546643773400,3.4907734375,-27.360822677612305,-5.956692695617676,-17.127281188964844
1772905546653773600,3.500773681640625,-29.446535110473633,-5.482479572296143,-16.704856872558594
1772905546663773400,3.5107734375,-31.273653030395508,-5.020941734313965,-16.26087188720703
1772905546673773600,3.520773681640625,-32.28342056274414,-4.61998987197876,-15.74266242980957
1772905546683773400,3.5307734375,-32.155818939208984,-4.309513568878174,-14.974241256713867
1772905546693773600,3.540773681640625,-30.93850326538086,-4.1039605140686035,-13.905460357666016
1772905546703773400,3.5507734375,-28.89509391784668,-4.027307987213135,-12.627786636352539
1772905546713773600,3.560773681640625,-26.37744903564453,-4.0381059646606445,-11.376130104064941
1772905546723773400,3.5707734375,-23.79436492919922,-4.090357303619385,-10.348649978637695
1772905546733773600,3.580773681640625,-21.532255172729492,-4.102688312530518,-9.633977890014648
1772905546743773400,3.5907734375,-19.85150718688965,-4.021095275878906,-9.207680702209473
1772905546753773600,3.600773681640625,-18.818918228149414,-3.836225986480713,-8.955451011657715
1772905546763773400,3.6107734375,-18.262659072875977,-3.559683084487915,-8.746403694152832
1772905546773773600,3.620773681640625,-17.862884521484375,-3.2237741947174072,-8.465163230895996
1772905546783773400,3.6307734375,-17.315826416015625,-2.868873119354248,-8.014205932617188
1772905546793773600,3.640773681640625,-16.473281860351562,-2.5207505226135254,-7.351215362548828
1772905546803773400,3.6507734375,-15.339855194091797,-2.184304714202881,-6.5345940589904785
1772905546813773600,3.660773681640625,-14.070205688476562,-1.8233369588851929,-5.704806327819824
1772905546823773400,3.6707734375,-12.785198211669922,-1.4540674686431885,-4.973779678344727
1772905546833773600,3.680773681640625,-11.455953598022461,-1.1138412952423096,-4.365774631500244
1772905546843773400,3.6907734375,-9.947092056274414,-0.8269619345664978,-3.801500082015991
1772905546853773600,3.700773681640625,-8.144753456115723,-0.5893999934196472,-3.1276750564575195
1772905546863773400,3.7107734375,-6.089788436889648,-0.3755202889442444,-2.2323248386383057
1772905546873773600,3.720773681640625,-3.9090371131896973,-0.2008204460144043,-1.1274921894073486
1772905546883773400,3.7307734375,-1.7283298969268799,-0.013078689575195312,0.12554669380187988
1772905546893773600,3.740773681640625,0.3143916130065918,0.2936073839664459,1.3367724418640137
1772905546903773400,3.7507734375,2.315568685531616,0.6287029385566711,2.4020748138427734
1772905546913773600,3.760773681640625,4.4736008644104,0.9029175043106079,3.3538708686828613
1772905546923773400,3.7707734375,7.011951923370361,1.1278244256973267,4.343814373016357
1772905546933773600,3.780773681640625,10.064596176147461,1.2913614511489868,5.6956048011779785
1772905546943773400,3.7907734375,13.608097076416016,1.2690168619155884,7.844693660736084
1772905546953773600,3.800773681640625,17.457378387451172,0.9622745513916016,10.772882461547852
1772905546963773400,3.8107734375,20.885164260864258,0.6957104206085205,13.853039741516113
1772905546973773600,3.820773681640625,23.59663200378418,0.7430257797241211,17.160999298095703
1772905546983773400,3.8307734375,26.42072868347168,1.1191728115081787,21.259475708007812
1772905546993773600,3.840773681640625,30.328332901000977,1.3830219507217407,26.47285270690918
1772905547003773400,3.8507734375,35.8744010925293,0.7461427450180054,32.5418586730957
1772905547013773600,3.860773681640625,42.73274230957031,-1.1809908151626587,38.14447021484375
1772905547023773400,3.8707734375,48.930511474609375,-3.7122230529785156,40.738590240478516
1772905547033773600,3.880773681640625,51.70729064941406,-5.4723076820373535,38.06991958618164
1772905547043773400,3.8907734375,49.598052978515625,-5.664933204650879,30.44659423828125
1772905547053773600,3.900773681640625,43.07662582397461,-4.224118709564209,20.312458038330078
1772905547063773400,3.9107734375,33.89542007446289,-1.6895852088928223,10.54278564453125
1772905547073773600,3.920773681640625,23.851215362548828,1.198017954826355,2.9913406372070312
1772905547083773400,3.9307734375,13.965357780456543,3.7798213958740234,-1.8958368301391602
1772905547093773600,3.940773681640625,4.876638412475586,5.514558792114258,-4.704084873199463
1772905547103773400,3.9507734375,-2.6522598266601562,6.124171257019043,-6.432029724121094
1772905547113773600,3.960773681640625,-8.193687438964844,5.732100963592529,-7.98203182220459
1772905547123773400,3.9707734375,-12.031618118286133,4.741864204406738,-9.834667205810547
1772905547133773600,3.980773681640625,-14.903772354125977,3.549510955810547,-11.980900764465332
1772905547143773400,3.9907734375,-17.455039978027344,2.389408588409424,-13.99594783782959
1772905547153773600,4.000773681640625,-19.831567764282227,1.3723721504211426,-15.470366477966309
1772905547163773400,4.0107734375,-21.795310974121094,0.5878828167915344,-16.398033142089844
1772905547183773400,4.0307734375,-23.995254516601562,-0.33417490124702454,-17.096664428710938
1772905547193773600,4.040773681640625,-24.380369186401367,-0.5724450349807739,-17.069313049316406
1772905547203773400,4.0507734375,-24.37290382385254,-0.8044832348823547,-16.93436622619629
1772905547213773600,4.060773681640625,-24.05829429626465,-1.032246708869934,-16.83233070373535
1772905547223773400,4.0707734375,-23.734582901000977,-1.2014241218566895,-16.862146377563477
1772905547233773600,4.080773681640625,-23.81008529663086,-1.261858344078064,-17.06513023376465
1772905547243773400,4.0907734375,-24.43019676208496,-1.2013146877288818,-17.389389038085938
1772905547253773600,4.100773681640625,-25.45659637451172,-1.0252634286880493,-17.712331771850586
1772905547263773400,4.1107734375,-26.607492446899414,-0.7585420608520508,-17.88028335571289
1772905547273773600,4.120773681640625,-27.573091506958008,-0.47615891695022583,-17.811153411865234
1772905547283773400,4.1307734375,-28.06853485107422,-0.2734708786010742,-17.434406280517578
1772905547293773600,4.140773681640625,-27.91147232055664,-0.22587990760803223,-16.680931091308594
1772905547303773400,4.1507734375,-27.035173416137695,-0.3689579963684082,-15.63367748260498
1772905547313773600,4.160773681640625,-25.478374481201172,-0.6790923476219177,-14.603851318359375
1772905547323773400,4.1707734375,-23.424955368041992,-1.085936427116394,-13.889066696166992
1772905547333773600,4.180773681640625,-21.29151725769043,-1.4707744121551514,-13.610091209411621
1772905547343773400,4.1907734375,-19.61185073852539,-1.7496994733810425,-13.646201133728027
1772905547353773600,4.200773681640625,-18.663761138916016,-1.9017318487167358,-13.686920166015625
1772905547363773400,4.2107734375,-18.281492233276367,-1.9125065803527832,-13.417244911193848
1772905547373773600,4.220773681640625,-18.048860549926758,-1.8107537031173706,-12.630617141723633
1772905547383773400,4.2307734375,-17.646852493286133,-1.6419634819030762,-11.38483715057373
1772905547393773600,4.240773681640625,-16.956531524658203,-1.4818333387374878,-9.93319034576416
1772905547403773400,4.2507734375,-15.95447063446045,-1.3814746141433716,-8.474833488464355
1772905547413773600,4.260773681640625,-14.7016019821167,-1.2978994846343994,-7.08489465713501
1772905547423773400,4.2707734375,-13.317459106445312,-1.2178643941879272,-5.958181381225586
1772905547433773600,4.280773681640625,-11.896541595458984,-1.2340553998947144,-5.138897895812988
1772905547443773400,4.2907734375,-10.344934463500977,-1.3116246461868286,-4.438957214355469
1772905547453773600,4.300773681640625,-8.503326416015625,-1.3669908046722412,-3.567420482635498
1772905547463773400,4.3107734375,-6.378074645996094,-1.3551591634750366,-2.310575485229492
1772905547473773600,4.320773681640625,-4.196476459503174,-1.2387325763702393,-0.8107352256774902
1772905547483773400,4.3307734375,-2.1596240997314453,-1.0148472785949707,0.5755561590194702
1772905547493773600,4.340773681640625,-0.2796211242675781,-0.7898215055465698,1.7608519792556763
1772905547503773400,4.3507734375,1.629603624343872,-0.6571637988090515,2.8392462730407715
1772905547513773600,4.360773681640625,3.8832411766052246,-0.5369859337806702,3.790975570678711
1772905547523773400,4.3707734375,6.575366020202637,-0.24486106634140015,4.4771904945373535
1772905547533773600,4.380773681640625,9.422476768493652,0.34559154510498047,4.934393405914307
1772905547543773400,4.3907734375,12.042637825012207,1.2587969303131104,5.3191752433776855
1772905547553773600,4.400773681640625,14.423768997192383,2.48107647895813,5.6629462242126465
1772905547563773400,4.4107734375,16.804529190063477,3.913757801055908,5.790977954864502
1772905547573773600,4.420773681640625,19.166271209716797,5.326671600341797,5.766372203826904
1772905547583773400,4.4307734375,21.451982498168945,6.45797061920166,6.334323406219482
1772905547593773600,4.440773681640625,24.35627555847168,7.018222808837891,8.483070373535156
1772905547603773400,4.4507734375,28.989994049072266,6.796165466308594,12.349587440490723
1772905547613773600,4.460773681640625,35.246517181396484,5.778585910797119,17.36526107788086
1772905547623773400,4.4707734375,41.083984375,4.209954261779785,22.35393524169922
1772905547633773600,4.480773681640625,43.65440368652344,2.649750232696533,25.66612434387207
1772905547643773400,4.4907734375,41.48384094238281,1.6964507102966309,25.963001251220703
1772905547653773600,4.500773681640625,35.62738037109375,1.687711238861084,23.007841110229492
1772905547663773400,4.5107734375,28.687652587890625,2.4787755012512207,17.803510665893555
1772905547673773600,4.520773681640625,22.89794921875,3.644981861114502,11.913032531738281
1772905547683773400,4.5307734375,19.086334228515625,4.734665393829346,6.628541946411133
1772905547693773600,4.540773681640625,16.581939697265625,5.396920680999756,2.4651525020599365
1772905547703773400,4.5507734375,13.98544979095459,5.429080963134766,-0.6801388263702393
1772905547713773600,4.560773681640625,10.293899536132812,4.807398319244385,-3.1282012462615967
1772905547723773400,4.5707734375,5.396737098693848,3.7012667655944824,-5.031897068023682
1772905547733773600,4.580773681640625,-0.16400527954101562,2.3199381828308105,-6.35369873046875
1772905547743773400,4.5907734375,-5.747837066650391,0.8840885162353516,-7.203431129455566
1772905547753773600,4.600773681640625,-10.953611373901367,-0.5363895893096924,-7.74532413482666
1772905547763773400,4.6107734375,-15.555538177490234,-1.9643027782440186,-8.111461639404297
1772905547773773600,4.620773681640625,-19.28526496887207,-3.3182566165924072,-8.50302791595459
1772905547783773400,4.6307734375,-21.908323287963867,-4.484623432159424,-9.175765037536621
1772905547793773600,4.640773681640625,-23.303874969482422,-5.362940788269043,-10.221761703491211
1772905547803773400,4.6507734375,-23.614112854003906,-5.868513107299805,-11.551619529724121
1772905547813773600,4.660773681640625,-23.271358489990234,-6.056668281555176,-12.985464096069336
1772905547823773400,4.6707734375,-22.87788963317871,-6.051645278930664,-14.404134750366211
1772905547833773600,4.680773681640625,-22.931636810302734,-5.963258743286133,-15.683300018310547
1772905547843773400,4.6907734375,-23.623252868652344,-5.84644079208374,-16.648941040039062
1772905547853773600,4.700773681640625,-24.782033920288086,-5.70402193069458,-17.102245330810547
1772905547863773400,4.7107734375,-26.00723648071289,-5.527844429016113,-16.96463966369629
1772905547873773600,4.720773681640625,-27.008386611938477,-5.3157758712768555,-16.377948760986328
1772905547883773400,4.7307734375,-27.751754760742188,-5.081317901611328,-15.604040145874023
1772905547893773600,4.740773681640625,-28.41297149658203,-4.855834484100342,-14.813033103942871
1772905547903773400,4.7507734375,-29.066984176635742,-4.64568567276001,-14.079440116882324
1772905547913773600,4.760773681640625,-29.54684829711914,-4.461221694946289,-13.382412910461426
1772905547923773400,4.7707734375,-29.624174118041992,-4.318428993225098,-12.604360580444336
1772905547933773600,4.780773681640625,-29.242830276489258,-4.226823329925537,-11.688194274902344
1772905547943773400,4.7907734375,-28.410362243652344,-4.204115867614746,-10.665661811828613
1772905547953773600,4.800773681640625,-27.054462432861328,-4.2070746421813965,-9.607215881347656
1772905547963773400,4.8107734375,-25.22053337097168,-4.181880950927734,-8.56301498413086
1772905547973773600,4.820773681640625,-23.19537353515625,-4.126177787780762,-7.552546501159668
1772905547983773400,4.8307734375,-21.27837371826172,-4.04557466506958,-6.678820610046387
1772905547993773600,4.840773681640625,-19.651887893676758,-3.922114610671997,-6.040025234222412
1772905548003773400,4.8507734375,-18.35793685913086,-3.7469518184661865,-5.612802505493164
1772905548013773600,4.860773681640625,-17.293188095092773,-3.5368146896362305,-5.244824409484863
1772905548023773400,4.8707734375,-16.221294403076172,-3.322169780731201,-4.706638813018799
1772905548033773600,4.880773681640625,-14.8732328414917,-3.1109225749969482,-3.7907960414886475
1772905548043773400,4.8907734375,-13.071768760681152,-2.8880462646484375,-2.5133156776428223
1772905548053773600,4.900773681640625,-10.849200248718262,-2.6176648139953613,-1.1178264617919922
1772905548063773400,4.9107734375,-8.471376419067383,-2.2837963104248047,0.13953495025634766
1772905548073773600,4.920773681640625,-6.237651824951172,-1.8884471654891968,1.1536009311676025
1772905548083773400,4.9307734375,-4.279289245605469,-1.4883381128311157,2.024212598800659
1772905548093773600,4.940773681640625,-2.462702751159668,-1.123875617980957,2.9831929206848145
1772905548103773400,4.9507734375,-0.2801358699798584,-0.886602520942688,4.307668209075928
1772905548113773600,4.960773681640625,2.9029040336608887,-0.7636948823928833,6.035516738891602
1772905548123773400,4.9707734375,7.402386665344238,-0.5683757662773132,7.915493965148926
1772905548133773600,4.980773681640625,13.017931938171387,-0.32253411412239075,9.802730560302734
1772905548143773400,4.9907734375,19.688766479492188,-0.145525261759758,11.670879364013672
1772905548153773600,5.000773681640625,27.668119430541992,-0.18521654605865479,13.58768367767334
1772905548163773400,5.0107734375,36.62305450439453,-0.6230011582374573,15.926667213439941
1772905548173773600,5.020773681640625,44.99837875366211,-1.4052584171295166,19.26445198059082
1772905548183773400,5.0307734375,50.708099365234375,-2.3727989196777344,23.930110931396484
1772905548193773600,5.040773681640625,52.3623161315918,-3.3475496768951416,29.604555130004883
1772905548203773400,5.0507734375,49.915828704833984,-4.093044757843018,35.005245208740234
1772905548213773600,5.060773681640625,45.014427185058594,-4.50122594833374,38.17885971069336
1772905548223773400,5.0707734375,40.04472732543945,-4.6238322257995605,37.28076934814453
1772905548233773600,5.080773681640625,36.38168716430664,-4.440707206726074,31.582273483276367
1772905548243773400,5.0907734375,33.81768035888672,-3.8585410118103027,22.261959075927734
1772905548253773600,5.100773681640625,31.188926696777344,-2.7894225120544434,11.7213134765625
1772905548263773400,5.1107734375,27.165130615234375,-1.2821686267852783,2.2225112915039062
1772905548273773600,5.120773681640625,21.003793716430664,0.4063444137573242,-4.877651691436768
1772905548283773400,5.1307734375,12.993877410888672,1.8916045427322388,-9.304665565490723
1772905548293773600,5.140773681640625,4.222677230834961,2.8478446006774902,-11.574045181274414
1772905548303773400,5.1507734375,-3.907008171081543,3.1695556640625,-12.572994232177734
1772905548313773600,5.160773681640625,-10.331119537353516,2.9642088413238525,-13.145803451538086
1772905548323773400,5.1707734375,-14.861665725708008,2.4300689697265625,-13.869535446166992
1772905548333773600,5.180773681640625,-18.085615158081055,1.7100121974945068,-14.923417091369629
1772905548343773400,5.1907734375,-20.566593170166016,0.8672780990600586,-16.10360336303711
1772905548353773600,5.200773681640625,-22.40468406677246,-0.031023919582366943,-17.228504180908203
1772905548363773400,5.2107734375,-23.617830276489258,-0.9021242260932922,-18.211774826049805
1772905548373773600,5.220773681640625,-24.44936752319336,-1.677717685699463,-18.820037841796875
1772905548383773400,5.2307734375,-25.248210906982422,-2.23345947265625,-18.85440444946289
1772905548393773600,5.240773681640625,-26.35688591003418,-2.408621072769165,-18.382307052612305
1772905548403773400,5.2507734375,-27.978309631347656,-2.1360015869140625,-17.68419647216797
1772905548413773600,5.260773681640625,-30.092689514160156,-1.4871586561203003,-17.056116104125977
1772905548423773400,5.2707734375,-32.3922119140625,-0.6507806777954102,-16.614273071289062
1772905548433773600,5.280773681640625,-34.36509323120117,0.12969982624053955,-16.178373336791992
1772905548443773400,5.2907734375,-35.578857421875,0.6713338494300842,-15.554945945739746
1772905548453773600,5.300773681640625,-35.84096908569336,0.9141941070556641,-14.899148941040039
1772905548463773400,5.3107734375,-35.2563362121582,0.847337007522583,-14.501941680908203
1772905548473773600,5.320773681640625,-34.16472625732422,0.5407190918922424,-14.48759651184082
1772905548483773400,5.3307734375,-32.901336669921875,0.11938965320587158,-14.63815689086914
1772905548493773600,5.340773681640625,-31.628358840942383,-0.3075498342514038,-14.572285652160645
1772905548503773400,5.3507734375,-30.417461395263672,-0.6992486715316772,-14.058161735534668
1772905548513773600,5.360773681640625,-29.276180267333984,-1.0479613542556763,-13.168499946594238
1772905548523773400,5.3707734375,-28.16106414794922,-1.2965935468673706,-12.246845245361328
1772905548533773600,5.380773681640625,-27.03218650817871,-1.4275857210159302,-11.64962387084961
1772905548543773400,5.3907734375,-25.83315658569336,-1.4323062896728516,-11.469880104064941
1772905548553773600,5.400773681640625,-24.47744369506836,-1.32689368724823,-11.523933410644531
1772905548563773400,5.4107734375,-22.92264175415039,-1.1400779485702515,-11.514349937438965
1772905548573773600,5.420773681640625,-21.271005630493164,-0.8838309049606323,-11.18524169921875
1772905548583773400,5.4307734375,-19.698205947875977,-0.5605959892272949,-10.368949890136719
1772905548593773600,5.440773681640625,-18.357816696166992,-0.16231906414031982,-9.072810173034668
1772905548603773400,5.4507734375,-17.29446029663086,0.24141865968704224,-7.42923641204834
1772905548613773600,5.460773681640625,-16.3597354888916,0.5471035242080688,-5.64078426361084
1772905548623773400,5.4707734375,-15.209606170654297,0.6904588341712952,-3.89113187789917
1772905548633773600,5.480773681640625,-13.513428688049316,0.6563190221786499,-2.2934486865997314
1772905548643773400,5.4907734375,-11.103618621826172,0.5136080980300903,-0.9338560104370117
1772905548653773600,5.500773681640625,-8.09124755859375,0.40181899070739746,0.11436735093593597
1772905548663773400,5.5107734375,-4.820378303527832,0.45562636852264404,0.9370227456092834
1772905548673773600,5.520773681640625,-1.7627027034759521,0.770448625087738,1.7892180681228638
1772905548683773400,5.5307734375,0.7469089031219482,1.416553020477295,2.861401081085205
1772905548693773600,5.540773681640625,2.847670555114746,2.361969470977783,3.934591054916382
1772905548703773400,5.5507734375,4.90714693069458,3.466139316558838,4.59557580947876
1772905548713773600,5.560773681640625,7.1434502601623535,4.4984307289123535,4.648202896118164
1772905548723773400,5.5707734375,9.964033126831055,5.1921706199646,4.375909805297852
1772905548733773600,5.580773681640625,13.981559753417969,5.436128616333008,4.559596061706543
1772905548743773400,5.5907734375,19.61182975769043,5.29266357421875,6.31088924407959
1772905548753773600,5.600773681640625,27.18486785888672,4.770930290222168,10.127161026000977
1772905548763773400,5.6107734375,37.11565399169922,3.626983165740967,15.408827781677246
1772905548773773600,5.620773681640625,48.97074890136719,1.596874713897705,21.302419662475586
1772905548783773400,5.6307734375,60.968685150146484,-1.0806273221969604,27.12877082824707
1772905548793773600,5.640773681640625,70.8796615600586,-3.78777813911438,32.514644622802734
1772905548803773400,5.6507734375,76.78822326660156,-6.076905727386475,36.794517517089844
1772905548813773600,5.660773681640625,76.79322052001953,-7.835090160369873,38.587928771972656
1772905548823773400,5.6707734375,69.31718444824219,-8.878864288330078,36.361724853515625
1772905548833773600,5.680773681640625,54.84648132324219,-8.886275291442871,29.878631591796875
1772905548843773400,5.6907734375,36.30731964111328,-7.695572376251221,20.62101173400879
1772905548853773600,5.700773681640625,17.814741134643555,-5.673893928527832,10.966558456420898
1772905548863773400,5.7107734375,3.0576109886169434,-3.5690934658050537,2.8456878662109375
1772905548873773600,5.720773681640625,-6.215944290161133,-2.029064178466797,-3.2115869522094727
1772905548883773400,5.7307734375,-10.852357864379883,-1.250313401222229,-7.721726417541504
1772905548893773600,5.740773681640625,-13.090167045593262,-1.0620486736297607,-11.161355972290039
1772905548903773400,5.7507734375,-15.043201446533203,-1.1848042011260986,-13.657352447509766
1772905548913773600,5.760773681640625,-17.982881546020508,-1.4027060270309448,-15.343538284301758
1772905548923773400,5.7707734375,-22.36368179321289,-1.6507328748703003,-16.23759651184082
1772905548933773600,5.780773681640625,-27.871707916259766,-1.9401484727859497,-16.216571807861328
1772905548943773400,5.7907734375,-33.44976806640625,-2.254274845123291,-15.492635726928711
1772905548953773600,5.800773681640625,-37.70148849487305,-2.637500286102295,-14.691034317016602
1772905548963773400,5.8107734375,-39.60236358642578,-3.2194623947143555,-14.358600616455078
1772905548973773600,5.820773681640625,-38.935302734375,-3.999602794647217,-14.726192474365234
1772905548983773400,5.8307734375,-36.31789779663086,-4.7966766357421875,-15.741676330566406
1772905548993773600,5.840773681640625,-32.96148681640625,-5.382497787475586,-17.105247497558594
1772905549003773400,5.8507734375,-30.07517433166504,-5.572556018829346,-18.371509552001953
1772905549013773600,5.860773681640625,-28.364830017089844,-5.247159957885742,-19.122947692871094
1772905549023773400,5.8707734375,-28.001249313354492,-4.435667037963867,-19.22652244567871
1772905549033773600,5.880773681640625,-28.84299659729004,-3.2787818908691406,-18.81397247314453
1772905549043773400,5.8907734375,-30.46045684814453,-1.934205412864685,-17.939401626586914
1772905549053773600,5.900773681640625,-32.2506217956543,-0.523513913154602,-16.559463500976562
1772905549063773400,5.9107734375,-33.74760055541992,0.8031787276268005,-14.798218727111816
1772905549073773600,5.920773681640625,-34.75641632080078,1.907538652420044,-13.055547714233398
1772905549083773400,5.9307734375,-35.286964416503906,2.705401659011841,-11.763754844665527
1772905549093773600,5.940773681640625,-35.31748962402344,3.158670425415039,-11.058490753173828
1772905549103773400,5.9507734375,-34.718292236328125,3.283782958984375,-10.663603782653809
1772905549113773600,5.960773681640625,-33.32265853881836,3.2105772495269775,-10.192895889282227
1772905549123773400,5.9707734375,-31.143089294433594,3.079864025115967,-9.504569053649902
1772905549133773600,5.980773681640625,-28.50680160522461,2.9903924465179443,-8.800394058227539
1772905549143773400,5.9907734375,-25.83614158630371,2.97635555267334,-8.425718307495117
1772905549153773600,6.000773681640625,-23.520877838134766,3.0453333854675293,-8.452640533447266
1772905549163773400,6.0107734375,-21.791873931884766,3.1614136695861816,-8.50423812866211
1772905549173773600,6.020773681640625,-20.528263092041016,3.2378907203674316,-8.055087089538574
1772905549183773400,6.0307734375,-19.278671264648438,3.1706836223602295,-6.845541477203369
1772905549193773600,6.040773681640625,-17.373186111450195,2.917478322982788,-5.016650199890137
1772905549203773400,6.0507734375,-14.058845520019531,2.4934749603271484,-2.908463478088379
1772905549213773600,6.060773681640625,-8.516303062438965,1.907450556755066,-0.6807665824890137
1772905549223773400,6.0707734375,-0.7006697654724121,1.414722204208374,1.6567540168762207
1772905549233773600,6.080773681640625,8.014911651611328,1.210719108581543,4.074958801269531
1772905549243773400,6.0907734375,15.530532836914062,1.2330615520477295,6.701072692871094
1772905549253773600,6.100773681640625,20.491674423217773,1.3895699977874756,9.55064868927002
1772905549263773400,6.1107734375,22.81964874267578,1.578029990196228,12.152925491333008
1772905549273773600,6.120773681640625,23.34653663635254,1.7898281812667847,13.687217712402344
1772905549283773400,6.1307734375,23.562847137451172,2.1751656532287598,13.832090377807617
1772905549293773600,6.140773681640625,24.936519622802734,2.5933942794799805,13.397805213928223
1772905549303773400,6.1507734375,28.468063354492188,2.5056910514831543,13.674395561218262
1772905549313773600,6.160773681640625,34.614219665527344,1.530713438987732,15.623522758483887
1772905549323773400,6.1707734375,43.0059928894043,-0.41166067123413086,19.173133850097656
1772905549333773600,6.180773681640625,52.042518615722656,-3.1267037391662598,23.20509910583496
1772905549343773400,6.1907734375,58.782081604003906,-5.956104278564453,26.032094955444336
1772905549353773600,6.200773681640625,60.01247787475586,-7.982165336608887,26.47775650024414
1772905549363773400,6.2107734375,54.32839584350586,-8.55237865447998,24.498567581176758
1772905549373773600,6.220773681640625,43.15895080566406,-7.538993835449219,20.946455001831055
1772905549383773400,6.2307734375,29.879823684692383,-5.37969970703125,16.715137481689453
1772905549393773600,6.240773681640625,17.78384017944336,-2.7759389877319336,12.279325485229492
1772905549403773400,6.2507734375,8.661834716796875,-0.4106024503707886,7.807324409484863
1772905549413773600,6.260773681640625,2.544666290283203,1.2599512338638306,3.4017720222473145
1772905549423773400,6.2707734375,-1.6424903869628906,2.0510525703430176,-0.647334098815918
1772905549433773600,6.280773681640625,-5.251509666442871,1.989654779434204,-3.9505953788757324
1772905549443773400,6.2907734375,-9.179932594299316,1.273663878440857,-6.343500137329102
1772905549453773600,6.300773681640625,-13.55837631225586,0.1686340719461441,-8.01788330078125
1772905549463773400,6.3107734375,-17.822460174560547,-1.0807167291641235,-9.547675132751465
1772905549473773600,6.320773681640625,-21.224876403808594,-2.271634101867676,-11.527730941772461
1772905549483773400,6.3307734375,-23.463024139404297,-3.202768087387085,-14.098864555358887
1772905549493773600,6.340773681640625,-24.797054290771484,-3.669419288635254,-16.903179168701172
1772905549503773400,6.3507734375,-25.75259780883789,-3.5832326412200928,-19.347932815551758
1772905549513773600,6.360773681640625,-26.6756534576416,-3.082275390625,-20.84198760986328
1772905549523773400,6.3707734375,-27.737348556518555,-2.375295400619507,-21.17755699157715
1772905549533773600,6.380773681640625,-29.18311309814453,-1.6456444263458252,-20.55453872680664
1772905549543773400,6.3907734375,-31.05455780029297,-0.9500647187232971,-19.309356689453125
1772905549553773600,6.400773681640625,-33.03965377807617,-0.26024913787841797,-17.76528549194336
1772905549563773400,6.4107734375,-34.67646789550781,0.4324365258216858,-16.236186981201172
1772905549573773600,6.420773681640625,-35.575950622558594,1.0890711545944214,-15.007043838500977
1772905549583773400,6.4307734375,-35.54450225830078,1.6855682134628296,-14.25831127166748
1772905549593773600,6.440773681640625,-34.64451217651367,2.174055576324463,-13.930298805236816
1772905549603773400,6.4507734375,-33.20673751831055,2.4991703033447266,-13.701253890991211
1772905549613773600,6.460773681640625,-31.56513023376465,2.741325616836548,-13.528599739074707
1772905549623773400,6.4707734375,-29.92664909362793,2.893648862838745,-13.565607070922852
1772905549633773600,6.480773681640625,-28.361125946044922,2.8738956451416016,-13.63183879852295
1772905549643773400,6.4907734375,-26.793853759765625,2.7339587211608887,-13.456464767456055
1772905549653773600,6.500773681640625,-25.03431510925293,2.534604072570801,-12.912135124206543
1772905549663773400,6.5107734375,-22.994047164916992,2.2962400913238525,-12.062801361083984
1772905549673773600,6.520773681640625,-20.746843338012695,2.0247983932495117,-10.972872734069824
1772905549683773400,6.5307734375,-18.458580017089844,1.735438585281372,-9.765107154846191
1772905549693773600,6.540773681640625,-16.339784622192383,1.4427837133407593,-8.564157485961914
1772905549703773400,6.5507734375,-14.625192642211914,1.1845651865005493,-7.491703033447266
1772905549713773600,6.560773681640625,-13.463216781616211,0.9661989808082581,-6.580777168273926
1772905549723773400,6.5707734375,-12.761453628540039,0.7965542674064636,-5.772426605224609
1772905549733773600,6.580773681640625,-12.259050369262695,0.7115479707717896,-4.9761881828308105
1772905549743773400,6.5907734375,-11.687362670898438,0.7343470454216003,-4.172309875488281
1772905549753773600,6.600773681640625,-10.885080337524414,0.8231548070907593,-3.377269744873047
1772905549763773400,6.6107734375,-9.750222206115723,0.9393141865730286,-2.6056575775146484
1772905549773773600,6.620773681640625,-8.248228073120117,1.0524958372116089,-1.8065872192382812
1772905549783773400,6.6307734375,-6.472778797149658,1.1699261665344238,-0.9141812920570374
1772905549793773600,6.640773681640625,-4.511236190795898,1.2915987968444824,0.08323049545288086
1772905549803773400,6.6507734375,-2.480884075164795,1.3512805700302124,1.2165532112121582
1772905549813773600,6.660773681640625,-0.4306090474128723,1.3225716352462769,2.374917507171631
1772905549823773400,6.6707734375,1.7347216606140137,1.2719217538833618,3.3917436599731445
1772905549833773600,6.680773681640625,4.189363479614258,1.26035475730896,4.308239936828613
1772905549843773400,6.6907734375,6.9448418617248535,1.3979747295379639,5.237447738647461
1772905549853773600,6.700773681640625,9.55821418762207,1.821698784828186,6.144219875335693
1772905549863773400,6.7107734375,11.369455337524414,2.6466617584228516,6.9142165184021
1772905549873773600,6.720773681640625,12.13786792755127,3.7908713817596436,7.788546085357666
1772905549883773400,6.7307734375,12.480568885803223,4.919871807098389,9.046319007873535
1772905549893773600,6.740773681640625,13.651187896728516,5.458783149719238,10.66756820678711
1772905549903773400,6.7507734375,16.882715225219727,4.867956161499023,12.46093463897705
1772905549913773600,6.760773681640625,22.70467185974121,3.004964828491211,14.465868949890137
1772905549923773400,6.7707734375,30.641490936279297,0.374020516872406,17.100637435913086
1772905549933773600,6.780773681640625,39.25762176513672,-2.1563215255737305,20.338699340820312
1772905549943773400,6.7907734375,46.646297454833984,-3.819939136505127,23.32118034362793
1772905549953773600,6.800773681640625,51.0407829284668,-4.2357177734375,24.647693634033203
1772905549963773400,6.8107734375,51.16709518432617,-3.58705735206604,23.373958587646484
1772905549973773600,6.820773681640625,46.5225715637207,-2.284128189086914,19.511428833007812
1772905549983773400,6.8307734375,37.7529182434082,-0.7005394697189331,13.92543888092041
1772905549993773600,6.840773681640625,26.63933563232422,0.9265762567520142,7.923641681671143
1772905550003773400,6.8507734375,15.358156204223633,2.315955638885498,2.7790045738220215
1772905550013773600,6.860773681640625,5.694931983947754,3.121236562728882,-0.8742861747741699
1772905550023773400,6.8707734375,-1.543285846710205,3.174835205078125,-3.2062137126922607
1772905550033773600,6.880773681640625,-6.558870792388916,2.5743651390075684,-4.910593032836914
1772905550043773400,6.8907734375,-10.023579597473145,1.5768165588378906,-6.654399394989014
1772905550053773600,6.900773681640625,-12.774104118347168,0.45665276050567627,-8.69095516204834
1772905550063773400,6.9107734375,-15.505830764770508,-0.5851439833641052,-10.859564781188965
1772905550073773600,6.920773681640625,-18.464582443237305,-1.483087420463562,-12.853492736816406
1772905550083773400,6.9307734375,-21.475936889648438,-2.2089109420776367,-14.46491527557373
1772905550093773600,6.940773681640625,-24.220577239990234,-2.747189998626709,-15.634437561035156
1772905550103773400,6.9507734375,-26.39856719970703,-3.0827889442443848,-16.309955596923828
1772905550113773600,6.960773681640625,-27.92626190185547,-3.195727825164795,-16.367063522338867
1772905550123773400,6.9707734375,-29.0031795501709,-3.112342357635498,-15.884134292602539
1772905550133773600,6.980773681640625,-29.89137077331543,-2.9023098945617676,-15.156805992126465
1772905550143773400,6.9907734375,-30.605754852294922,-2.651620864868164,-14.417976379394531
1772905550153773600,7.000773681640625,-30.893871307373047,-2.4352431297302246,-13.763201713562012
1772905550163773400,7.0107734375,-30.36382293701172,-2.3217215538024902,-13.255107879638672
1772905550173773600,7.020773681640625,-28.86107635498047,-2.2919671535491943,-12.882440567016602
1772905550183773400,7.0307734375,-26.668201446533203,-2.2417190074920654,-12.652324676513672
1772905550193773600,7.040773681640625,-24.32196807861328,-2.0390396118164062,-12.537799835205078
1772905550203773400,7.0507734375,-22.339876174926758,-1.614501953125,-12.476835250854492
1772905550213773600,7.060773681640625,-21.04252815246582,-1.017204761505127,-12.36944580078125
1772905550223773400,7.0707734375,-20.514314651489258,-0.3362818956375122,-12.158812522888184
1772905550233773600,7.080773681640625,-20.563718795776367,0.3359462022781372,-11.845714569091797
1772905550243773400,7.0907734375,-20.837081909179688,0.9010487794876099,-11.452658653259277
1772905550253773600,7.100773681640625,-20.94028091430664,1.2781908512115479,-10.90151309967041
1772905550263773400,7.1107734375,-20.582805633544922,1.4521408081054688,-10.049070358276367
1772905550273773600,7.120773681640625,-19.676984786987305,1.4640583992004395,-8.887279510498047
1772905550283773400,7.1307734375,-18.332046508789062,1.3975486755371094,-7.576079845428467
1772905550293773600,7.140773681640625,-16.658889770507812,1.3431246280670166,-6.3108811378479
1772905550303773400,7.1507734375,-14.73525619506836,1.3190606832504272,-5.271275043487549
1772905550313773600,7.160773681640625,-12.497152328491211,1.3377152681350708,-4.603098392486572
1772905550323773400,7.1707734375,-9.760213851928711,1.4066410064697266,-4.306430339813232
1772905550333773600,7.180773681640625,-6.509209632873535,1.5563280582427979,-4.16343879699707
1772905550343773400,7.1907734375,-2.9233932495117188,1.8065063953399658,-3.807304620742798
1772905550353773600,7.200773681640625,0.774205207824707,2.170886993408203,-2.961782455444336
1772905550363773400,7.2107734375,4.416222095489502,2.63814115524292,-1.709864854812622
1772905550373773600,7.220773681640625,9.356171607971191,3.545264720916748,0.17413711547851562
1772905550383773400,7.2307734375,12.619775772094727,3.7577428817749023,1.5723625421524048
1772905550393773600,7.240773681640625,16.543411254882812,3.6620309352874756,3.4466092586517334
1772905550403773400,7.2507734375,22.044921875,3.1418814659118652,6.5216827392578125
1772905550413773600,7.260773681640625,29.949052810668945,2.1437032222747803,11.100804328918457
1772905550423773400,7.2707734375,40.45042419433594,0.5788434147834778,16.753583908081055
1772905550433773600,7.280773681640625,52.48361587524414,-1.6434205770492554,22.923080444335938
1772905550443773400,7.2907734375,63.255550384521484,-4.411337852478027,29.09733009338379
1772905550453773600,7.300773681640625,68.89634704589844,-7.254524230957031,34.31834030151367
1772905550463773400,7.3107734375,66.59317016601562,-9.516569137573242,37.242435455322266
1772905550473773600,7.320773681640625,65.61941528320312,-9.656447410583496,36.86182403564453
1772905550483773400,7.3307734375,40.6804084777832,-10.59384822845459,32.796417236328125
1772905550493773600,7.340773681640625,39.249210357666016,-10.703632354736328,32.24711990356445
1772905550503773400,7.3507734375,22.67613410949707,-9.426509857177734,25.396940231323242
1772905550513773600,7.360773681640625,8.831869125366211,-7.5564374923706055,17.110023498535156
1772905550523773400,7.3707734375,-0.9242525100708008,-5.825793743133545,8.950552940368652
1772905550533773600,7.380773681640625,-7.05511474609375,-4.716489315032959,2.0732808113098145
1772905550543773400,7.3907734375,-10.920644760131836,-4.2831220626831055,-3.080707550048828
1772905550553773600,7.400773681640625,-13.971236228942871,-4.244210243225098,-6.593207836151123
1772905550563773400,7.4107734375,-19.354766845703125,-4.2096757888793945,-9.108648300170898
1772905550573773600,7.420773681640625,-23.772010803222656,-4.187373161315918,-10.136473655700684
1772905550583773400,7.4307734375,-28.42144203186035,-4.435087203979492,-11.27412223815918
1772905550603773400,7.4507734375,-36.28790283203125,-6.154343128204346,-14.135625839233398
1772905550613773600,7.460773681640625,-38.30267333984375,-7.645229816436768,-15.689529418945312
1772905550623773400,7.4707734375,-38.460567474365234,-9.0739107131958,-17.086912155151367
1772905550633773600,7.480773681640625,-36.87175750732422,-9.919299125671387,-18.098766326904297
1772905550643773400,7.4907734375,-34.185638427734375,-9.984920501708984,-18.622636795043945
1772905550653773600,7.500773681640625,-31.17388153076172,-9.305543899536133,-18.825448989868164
1772905550663773400,7.5107734375,-28.506351470947266,-8.029609680175781,-18.94845199584961
1772905550673773600,7.520773681640625,-26.83004379272461,-6.424206733703613,-18.973081588745117
1772905550683773400,7.5307734375,-26.656221389770508,-4.738467693328857,-18.69615936279297
1772905550693773600,7.540773681640625,-27.987531661987305,-3.0906307697296143,-17.95852279663086
1772905550703773400,7.5507734375,-30.334375381469727,-1.5077604055404663,-16.688636779785156
1772905550713773600,7.560773681640625,-32.966835021972656,-0.02122819423675537,-15.065508842468262
1772905550723773400,7.5707734375,-35.032142639160156,1.251554012298584,-13.476393699645996
1772905550733773600,7.580773681640625,-35.82220458984375,2.161606788635254,-12.252233505249023
1772905550743773400,7.5907734375,-35.007598876953125,2.657097339630127,-11.458087921142578
1772905550753773600,7.600773681640625,-32.68229293823242,2.813917636871338,-10.958857536315918
1772905550763773400,7.6107734375,-29.204694747924805,2.7942662239074707,-10.57876205444336
1772905550773773600,7.620773681640625,-25.211162567138672,2.828850746154785,-10.223164558410645
1772905550783773400,7.6307734375,-21.46510887145996,3.0959575176239014,-9.938745498657227
1772905550793773600,7.640773681640625,-18.5565185546875,3.644007444381714,-9.808979034423828
1772905550803773400,7.6507734375,-16.775020599365234,4.400083065032959,-9.633158683776855
1772905550813773600,7.660773681640625,-16.11958122253418,5.237000465393066,-8.940727233886719
1772905550823773400,7.6707734375,-16.322507858276367,5.983852386474609,-7.501199722290039
1772905550833773600,7.680773681640625,-16.92000961303711,6.406786918640137,-5.682981967926025
1772905550843773400,7.6907734375,-17.130531311035156,6.367018222808838,-4.196812152862549
1772905550853773600,7.700773681640625,-15.809903144836426,5.902335166931152,-3.2498960494995117
1772905550863773400,7.7107734375,-12.328849792480469,5.191553115844727,-2.398254871368408
1772905550873773600,7.720773681640625,-6.971672534942627,4.394850254058838,-1.2120718955993652
1772905550883773400,7.7307734375,-0.5410065650939941,3.582919120788574,0.39504194259643555
1772905550893773600,7.740773681640625,5.982745170593262,2.862060308456421,2.4194438457489014
1772905550903773400,7.7507734375,11.70683765411377,2.3559529781341553,4.7895002365112305
1772905550913773600,7.760773681640625,15.918354034423828,2.1314878463745117,7.37860107421875
1772905550923773400,7.7707734375,18.268144607543945,2.0785276889801025,9.728177070617676
1772905550933773600,7.780773681640625,18.973562240600586,2.001661539077759,11.230159759521484
1772905550943773400,7.7907734375,18.77725601196289,1.7956902980804443,11.616873741149902
1772905550953773600,7.800773681640625,18.642627716064453,1.4437381029129028,11.244436264038086
1772905550963773400,7.8107734375,19.38039207458496,0.9096537828445435,10.90127182006836
1772905550973773600,7.820773681640625,21.524391174316406,0.09931674599647522,11.421929359436035
1772905550983773400,7.8307734375,25.453359603881836,-1.0994832515716553,13.261914253234863
1772905550993773600,7.840773681640625,31.173603057861328,-2.7341020107269287,15.947425842285156
1772905551003773400,7.8507734375,37.799495697021484,-4.600904941558838,18.511432647705078
1772905551013773600,7.860773681640625,43.53547286987305,-6.231225967407227,20.023454666137695
1772905551023773400,7.8707734375,46.463829040527344,-7.164163589477539,19.858951568603516
1772905551033773600,7.880773681640625,45.62911605834961,-7.340164661407471,17.958982467651367
1772905551043773400,7.8907734375,41.64775848388672,-7.08366060256958,14.762600898742676
1772905551053773600,7.900773681640625,36.225711822509766,-6.741599082946777,10.990762710571289
1772905551063773400,7.9107734375,30.69854164123535,-6.501524925231934,7.2199859619140625
1772905551073773600,7.920773681640625,24.997051239013672,-6.266977310180664,3.7488389015197754
1772905551083773400,7.9307734375,18.159744262695312,-5.784107685089111,0.9438672065734863
1772905551093773600,7.940773681640625,9.636183738708496,-4.777851581573486,-0.780820369720459
1772905551103773400,7.9507734375,-0.0025348663330078125,-3.1265006065368652,-1.4420976638793945
1772905551113773600,7.960773681640625,-9.250693321228027,-1.034271001815796,-1.7686996459960938
1772905551123773400,7.9707734375,-16.50312614440918,1.0386476516723633,-2.710963726043701
1772905551133773600,7.980773681640625,-20.701993942260742,2.656290054321289,-4.9169230461120605
1772905551143773400,7.9907734375,-21.80714988708496,3.5450448989868164,-8.406729698181152
1772905551153773600,8.000773681640625,-20.846771240234375,3.6535236835479736,-12.491216659545898
1772905551163773400,8.0107734375,-19.28633689880371,3.0616233348846436,-16.192909240722656
1772905551173773600,8.020773681640625,-18.16657257080078,1.9277901649475098,-18.839824676513672
1772905551183773400,8.0307734375,-17.72947883605957,0.42889875173568726,-20.276180267333984
1772905551193773600,8.040773681640625,-17.517208099365234,-1.1443923711776733,-20.62332534790039
1772905551203773400,8.0507734375,-16.904083251953125,-2.3673391342163086,-20.23406219482422
1772905551213773600,8.060773681640624,-15.824183464050293,-2.9051079750061035,-19.660932540893555
1772905551223773400,8.0707734375,-14.92303466796875,-2.7740890979766846,-19.30184555053711
1772905551233773600,8.080773681640625,-14.99793815612793,-2.297455310821533,-19.07453727722168
1772905551243773400,8.0907734375,-16.349262237548828,-1.8362035751342773,-18.57230567932129
1772905551253773600,8.100773681640625,-18.644502639770508,-1.5643258094787598,-17.522037506103516
1772905551263773400,8.1107734375,-21.271913528442383,-1.4491931200027466,-15.965204238891602
1772905551273773600,8.120773681640625,-23.77193832397461,-1.352370262145996,-14.13498592376709
1772905551283773400,8.1307734375,-25.90542984008789,-1.2041292190551758,-12.284814834594727
1772905551293773600,8.140773681640624,-27.452442169189453,-1.0245860815048218,-10.578036308288574
1772905551303773400,8.1507734375,-28.059383392333984,-0.8150063753128052,-9.178241729736328
1772905551313773600,8.160773681640626,-27.44780731201172,-0.5893523693084717,-8.26346206665039
1772905551323773400,8.1707734375,-25.759483337402344,-0.4056462049484253,-7.918458938598633
1772905551333773600,8.180773681640625,-23.510696411132812,-0.2990400791168213,-8.063331604003906
1772905551343773400,8.1907734375,-21.341327667236328,-0.20312988758087158,-8.497325897216797
1772905551353773600,8.200773681640625,-19.75096321105957,-0.027611255645751953,-8.89631175994873
1772905551363773400,8.2107734375,-18.979963302612305,0.2780611515045166,-8.92221736907959
1772905551373773600,8.220773681640624,-19.11339569091797,0.7677831053733826,-8.398857116699219
1772905551383773400,8.2307734375,-20.227752685546875,1.461753249168396,-7.4476752281188965
1772905551393773600,8.240773681640626,-22.260427474975586,2.277829647064209,-6.336654186248779
1772905551403773400,8.2507734375,-24.714277267456055,3.1229331493377686,-5.272480010986328
1772905551413773600,8.260773681640625,-26.636837005615234,3.937462091445923,-4.324224472045898
1772905551423773400,8.2707734375,-27.122356414794922,4.54429292678833,-3.3875648975372314
1772905551433773600,8.280773681640625,-25.675540924072266,4.856651306152344,-2.3372819423675537
1772905551443773400,8.2907734375,-22.473892211914062,4.839401721954346,-1.2483562231063843
1772905551453773600,8.300773681640624,-18.011486053466797,4.366654396057129,-0.2298603057861328
1772905551463773400,8.3107734375,-12.248119354248047,3.711081027984619,0.3646790385246277
1772905551473773600,8.320773681640626,-5.523173809051514,3.010321617126465,0.7665159106254578
1772905551483773400,8.3307734375,1.603806495666504,2.263319969177246,1.591640591621399
1772905551493773600,8.340773681640625,8.44642448425293,1.601914882659912,3.2281999588012695
1772905551503773400,8.3507734375,14.25217056274414,1.2203911542892456,5.298346519470215
1772905551513773600,8.360773681640625,18.4953556060791,1.1056268215179443,6.864077091217041
1772905551523773400,8.3707734375,21.233102798461914,1.1664067506790161,7.203088760375977
1772905551533773600,8.380773681640624,22.750652313232422,1.3817331790924072,6.2801618576049805
1772905551543773400,8.3907734375,23.228639602661133,1.7621930837631226,4.911260604858398
1772905551553773600,8.400773681640626,23.49198341369629,2.198643684387207,4.537482261657715
1772905551563773400,8.4107734375,25.435894012451172,2.2130274772644043,6.572504043579102
1772905551573773600,8.420773681640625,30.90909194946289,1.3559834957122803,10.868252754211426
1772905551583773400,8.4307734375,39.637935638427734,-0.5796292424201965,15.574409484863281
1772905551593773600,8.440773681640625,48.78279495239258,-3.447498083114624,18.80954360961914
1772905551603773400,8.4507734375,54.29871368408203,-6.653216361999512,19.987749099731445
1772905551613773600,8.460773681640624,53.4564208984375,-9.29097843170166,19.615999221801758
1772905551623773400,8.4707734375,46.14104080200195,-10.672552108764648,18.568552017211914
1772905551633773600,8.480773681640626,34.63033676147461,-10.61174201965332,17.25833511352539
1772905551643773400,8.4907734375,22.451276779174805,-9.45910930633545,15.407546997070312
1772905551653773600,8.500773681640625,12.79884147644043,-7.874052047729492,12.542621612548828
1772905551663773400,8.5107734375,7.321327209472656,-6.515754699707031,8.658076286315918
1772905551673773600,8.520773681640625,5.500219345092773,-5.724944591522217,4.38663387298584
1772905551683773400,8.5307734375,5.633272171020508,-5.478822231292725,0.49921321868896484
1772905551693773600,8.540773681640625,5.84758186340332,-5.568774700164795,-2.417675733566284
1772905551703773400,8.5507734375,4.525058746337891,-5.706103324890137,-4.129775047302246
1772905551713773600,8.560773681640624,0.6898031234741211,-5.651116847991943,-4.826541900634766
1772905551723773400,8.5707734375,-5.597905158996582,-5.281393051147461,-5.03742790222168
1772905551733773600,8.580773681640625,-13.303411483764648,-4.648418426513672,-5.291516304016113
1772905551743773400,8.5907734375,-20.96552276611328,-3.861311674118042,-5.799100399017334
1772905551753773600,8.600773681640625,-27.264968872070312,-3.0750088691711426,-6.445949077606201
1772905551763773400,8.6107734375,-31.617393493652344,-2.571887969970703,-6.8893022537231445
1772905551773773600,8.620773681640625,-34.16450119018555,-2.5562267303466797,-7.116620063781738
1772905551783773400,8.6307734375,-35.007686614990234,-2.9655380249023438,-7.503480911254883
1772905551793773600,8.640773681640624,-34.10149002075195,-3.5139245986938477,-8.51461124420166
1772905551803773400,8.6507734375,-31.770835876464844,-3.8617799282073975,-10.271283149719238
1772905551813773600,8.660773681640626,-28.85366439819336,-3.7188446521759033,-12.274614334106445
1772905551823773400,8.6707734375,-26.394210815429688,-3.0004496574401855,-13.692610740661621
1772905551833773600,8.680773681640625,-25.232580184936523,-1.8544925451278687,-13.973291397094727
1772905551843773400,8.6907734375,-25.585399627685547,-0.5364398956298828,-13.201591491699219
1772905551853773600,8.700773681640625,-27.050479888916016,0.7514430284500122,-11.905006408691406
1772905551863773400,8.7107734375,-29.013879776000977,1.8820359706878662,-10.591814041137695
1772905551873773600,8.720773681640624,-30.987388610839844,2.815871477127075,-9.619518280029297
1772905551883773400,8.7307734375,-32.64697265625,3.539517402648926,-9.184922218322754
1772905551893773600,8.740773681640626,-33.72582244873047,4.099174976348877,-9.213038444519043
1772905551903773400,8.7507734375,-34.095855712890625,4.538311004638672,-9.40824031829834
1772905551913773600,8.760773681640625,-33.76491165161133,4.827306270599365,-9.477020263671875
1772905551923773400,8.7707734375,-32.73280715942383,5.003327369689941,-9.28749942779541
1772905551933773600,8.780773681640625,-31.018112182617188,5.0957112312316895,-8.875871658325195
1772905551943773400,8.7907734375,-28.66390609741211,5.111475944519043,-8.36098575592041
1772905551953773600,8.800773681640624,-25.796340942382812,5.023004531860352,-7.855523109436035
1772905551963773400,8.8107734375,-22.677669525146484,4.7842206954956055,-7.377993583679199
1772905551973773600,8.820773681640626,-19.631235122680664,4.37538480758667,-6.908080577850342
1772905551983773400,8.8307734375,-16.852081298828125,3.8384134769439697,-6.548089027404785
1772905551993773600,8.840773681640625,-14.40234375,3.2934410572052,-6.380609035491943
1772905552003773400,8.8507734375,-12.259035110473633,2.852382183074951,-6.1983513832092285
1772905552013773600,8.860773681640625,-10.337103843688965,2.6441335678100586,-5.556583881378174
1772905552023773400,8.8707734375,-8.552940368652344,2.685683250427246,-4.177219390869141
1772905552033773600,8.880773681640624,-6.685159683227539,2.850891590118408,-2.165665864944458
1772905552043773400,8.8907734375,-4.217085838317871,2.9877123832702637,0.02239394187927246
1772905552053773600,8.900773681640626,-0.6336355209350586,2.956814765930176,1.8757622241973877
1772905552063773400,8.9107734375,4.0655622482299805,2.732692241668701,3.1766445636749268
1772905552073773600,8.920773681640625,9.51909351348877,2.4018537998199463,4.225569725036621
1772905552083773400,8.9307734375,15.065362930297852,2.163200616836548,5.505529403686523
1772905552093773600,8.940773681640625,19.91181182861328,2.2063300609588623,7.301610469818115
1772905552103773400,8.9507734375,24.086828231811523,2.649261474609375,9.414722442626953
1772905552113773600,8.960773681640624,28.86452865600586,3.4902164936065674,11.2733154296875
1772905552123773400,8.9707734375,35.97107696533203,4.3473219871521,12.990699768066406
1772905552133773600,8.980773681640626,46.79496765136719,4.566657066345215,15.942461967468262
1772905552143773400,8.9907734375,60.07218933105469,3.500291347503662,21.895092010498047
1772905552153773600,9.000773681640625,71.66817474365234,0.7961945533752441,31.07200813293457
1772905552163773400,9.0107734375,77.71147918701172,-2.7088732719421387,39.94348907470703
1772905552173773600,9.020773681640625,73.85629272460938,-5.31563663482666,43.23247146606445
1772905552183773400,9.0307734375,59.6871337890625,-5.918792247772217,38.77692794799805
1772905552193773600,9.040773681640625,40.45413589477539,-4.606035232543945,28.63730812072754
1772905552203773400,9.0507734375,22.258956909179688,-2.3590803146362305,16.712968826293945
1772905552213773600,9.060773681640624,8.193811416625977,-0.26710712909698486,6.024930953979492
1772905552223773400,9.0707734375,-1.9947481155395508,1.0498453378677368,-2.3389315605163574
1772905552233773600,9.080773681640625,-9.950159072875977,1.4884361028671265,-8.488821029663086
1772905552243773400,9.0907734375,-16.796138763427734,1.1767024993896484,-12.615850448608398
1772905552253773600,9.100773681640625,-22.633237838745117,0.46888935565948486,-14.956897735595703
1772905552263773400,9.1107734375,-26.950267791748047,-0.47592997550964355,-16.019481658935547
1772905552273773600,9.120773681640625,-29.328718185424805,-1.6405833959579468,-16.588233947753906
1772905552283773400,9.1307734375,-29.60598373413086,-2.976776123046875,-17.342960357666016
1772905552293773600,9.140773681640624,-28.053207397460938,-4.308673858642578,-18.561676025390625
1772905552303773400,9.1507734375,-25.636350631713867,-5.455430030822754,-20.11884880065918
1772905552313773600,9.160773681640626,-23.58595848083496,-6.270179748535156,-21.735393524169922
1772905552323773400,9.1707734375,-22.718721389770508,-6.682833671569824,-23.095123291015625
1772905552333773600,9.180773681640625,-23.250661849975586,-6.738560199737549,-23.842206954956055
1772905552343773400,9.1907734375,-24.98668670654297,-6.471532344818115,-23.72772216796875
1772905552353773600,9.200773681640625,-27.597688674926758,-5.921608924865723,-22.870891571044922
1772905552363773400,9.2107734375,-30.72945785522461,-5.169731616973877,-21.665634155273438
1772905552373773600,9.220773681640624,-33.88280487060547,-4.320273399353027,-20.43592071533203
1772905552383773400,9.2307734375,-36.46312713623047,-3.5168344974517822,-19.30330467224121
1772905552393773600,9.240773681640626,-37.883872985839844,-2.9302000999450684,-18.23094940185547
1772905552403773400,9.2507734375,-37.855735778808594,-2.664363384246826,-17.203733444213867
1772905552413773600,9.260773681640625,-36.54951477050781,-2.7573318481445312,-16.388408660888672
1772905552423773400,9.2707734375,-34.352333068847656,-3.1723978519439697,-15.96268367767334
1772905552433773600,9.280773681640625,-31.612993240356445,-3.7551541328430176,-15.855923652648926
1772905552443773400,9.2907734375,-28.591136932373047,-4.302246570587158,-15.829833984375
1772905552463773400,9.3107734375,-22.53143882751465,-4.7138237953186035,-15.148253440856934
1772905552473773600,9.320773681640626,-19.928964614868164,-4.549265384674072,-14.14133071899414
1772905552483773400,9.3307734375,-17.97947120666504,-4.164386749267578,-12.782861709594727
1772905552493773600,9.340773681640625,-16.95183753967285,-3.620495080947876,-11.346436500549316
1772905552503773400,9.3507734375,-16.822067260742188,-3.01497745513916,-10.027399063110352
1772905552513773600,9.360773681640625,-17.192447662353516,-2.4271092414855957,-8.915928840637207
1772905552523773400,9.3707734375,-17.459026336669922,-1.91182541847229,-7.969090938568115
1772905552533773600,9.380773681640624,-17.07342529296875,-1.499092698097229,-7.043177127838135
1772905552543773400,9.3907734375,-15.69318962097168,-1.1654232740402222,-5.998908996582031
1772905552553773600,9.400773681640626,-13.274843215942383,-0.8720595836639404,-4.795950889587402
1772905552563773400,9.4107734375,-10.057637214660645,-0.6077821254730225,-3.433316946029663
1772905552573773600,9.420773681640625,-6.454909324645996,-0.33315134048461914,-2.0229275226593018
1772905552583773400,9.4307734375,-2.9004199504852295,0.017984867095947266,-0.8298981785774231
1772905552593773600,9.440773681640625,0.08570599555969238,0.5074902772903442,-0.14883889257907867
1772905552603773400,9.4507734375,2.167340040206909,1.1269903182983398,0.10222965478897095
1772905552613773600,9.460773681640624,3.2181687355041504,1.7837984561920166,0.27872490882873535
1772905552623773400,9.4707734375,3.4958837032318115,2.363837718963623,0.8442150354385376
1772905552633773600,9.480773681640626,3.6923506259918213,2.749699831008911,2.064281702041626
1772905552643773400,9.4907734375,4.461245536804199,2.9615252017974854,3.775714874267578
1772905552653773600,9.500773681640625,6.188387870788574,2.9763131141662598,5.6942009925842285
1772905552663773400,9.5107734375,8.980953216552734,2.7875728607177734,7.634101867675781
1772905552673773600,9.520773681640625,12.502958297729492,2.5247342586517334,9.28848648071289
1772905552683773400,9.5307734375,15.646051406860352,2.237215042114258,10.236759185791016
1772905552693773600,9.540773681640625,17.341527938842773,1.9183152914047241,10.314135551452637
1772905552703773400,9.5507734375,17.3060302734375,1.6351509094238281,9.691524505615234
1772905552713773600,9.560773681640624,15.872587203979492,1.4482722282409668,8.800113677978516
1772905552723773400,9.5707734375,13.986111640930176,1.3957278728485107,8.264492988586426
1772905552733773600,9.580773681640625,13.046615600585938,1.4627183675765991,8.773486137390137
1772905552743773400,9.5907734375,14.265640258789062,1.4314689636230469,10.84040355682373
1772905552753773600,9.600773681640625,18.034589767456055,0.902135968208313,14.477049827575684
1772905552763773400,9.6107734375,23.729488372802734,-0.005147218704223633,18.478107452392578
1772905552773773600,9.620773681640625,30.06719207763672,-1.4088276624679565,21.95159339904785
1772905552783773400,9.6307734375,35.95020294189453,-3.4429643154144287,24.769275665283203
1772905552793773600,9.640773681640624,40.89933395385742,-5.921976089477539,27.274412155151367
1772905552803773400,9.6507734375,44.564903259277344,-8.179047584533691,29.507980346679688
1772905552813773600,9.660773681640626,46.3872184753418,-9.522093772888184,30.56930160522461
1772905552823773400,9.6707734375,45.71084213256836,-9.675559997558594,29.22724151611328
1772905552833773600,9.680773681640625,42.541725158691406,-8.79240894317627,25.08525276184082
1772905552843773400,9.6907734375,37.34477233886719,-7.183712959289551,18.928024291992188
1772905552853773600,9.700773681640625,30.539321899414062,-5.18724250793457,12.067071914672852
1772905552863773400,9.7107734375,22.565494537353516,-3.1341400146484375,5.543801307678223
1772905552873773600,9.720773681640624,14.162129402160645,-1.325192928314209,-0.026597976684570312
1772905552883773400,9.7307734375,6.114682197570801,-0.08373153209686279,-4.269075393676758
1772905552893773600,9.740773681640626,-1.2530479431152344,0.36259180307388306,-7.135265350341797
1772905552903773400,9.7507734375,-7.969513893127441,0.22838765382766724,-8.906135559082031
1772905552913773600,9.760773681640625,-14.232259750366211,-0.03352034091949463,-10.212050437927246
1772905552923773400,9.7707734375,-20.20193862915039,-0.18130922317504883,-11.914939880371094
1772905552933773600,9.780773681640625,-25.577068328857422,-0.12938904762268066,-14.344549179077148
1772905552943773400,9.7907734375,-29.468406677246094,0.10632479190826416,-17.04461669921875
1772905552953773600,9.800773681640624,-31.391447067260742,0.31007134914398193,-19.350200653076172
1772905552963773400,9.8107734375,-31.835031509399414,0.295953631401062,-20.847122192382812
1772905552973773600,9.820773681640626,-31.883031845092773,0.09223270416259766,-21.46030044555664
1772905552983773400,9.8307734375,-32.51728057861328,-0.13999176025390625,-21.414867401123047
1772905552993773600,9.840773681640625,-34.09030532836914,-0.2511742115020752,-20.974628448486328
1772905553003773400,9.8507734375,-36.25776290893555,-0.13709330558776855,-20.300277709960938
1772905553013773600,9.860773681640625,-38.46860122680664,0.24639439582824707,-19.62822723388672
1772905553023773400,9.8707734375,-40.31101608276367,0.8241543769836426,-19.228988647460938
1772905553033773600,9.880773681640624,-41.52522277832031,1.4405816793441772,-19.19060516357422
1772905553043773400,9.8907734375,-41.831260681152344,1.9271931648254395,-19.29931640625
1772905553053773600,9.900773681640626,-41.06428527832031,2.2002737522125244,-19.182357788085938
1772905553063773400,9.9107734375,-39.28241729736328,2.250884771347046,-18.586103439331055
1772905553073773600,9.920773681640625,-36.859439849853516,2.1664679050445557,-17.624343872070312
1772905553083773400,9.9307734375,-34.287132263183594,1.990779995918274,-16.664813995361328
1772905553093773600,9.940773681640625,-31.875164031982422,1.7814935445785522,-15.971979141235352
1772905553103773400,9.9507734375,-29.755760192871094,1.583702802658081,-15.54896354675293
1772905553113773600,9.960773681640624,-27.91016387939453,1.3746469020843506,-15.245369911193848
1772905553123773400,9.9707734375,-26.24748420715332,1.1401429176330566,-14.90566349029541
1772905553133773600,9.980773681640626,-24.668973922729492,0.8718690872192383,-14.46969223022461
1772905553153773600,10.000773681640625,-21.33380126953125,0.2559967041015625,-12.815250396728516
1772905553163773400,10.0107734375,-19.764034271240234,0.021582841873168945,-11.448046684265137
1772905553173773600,10.020773681640625,-18.723684310913086,-0.1618938446044922,-10.052122116088867
1772905553183773400,10.0307734375,-18.33329963684082,-0.3429121971130371,-9.021749496459961
1772905553193773600,10.040773681640625,-18.311115264892578,-0.54533851146698,-8.554311752319336
1772905553203773400,10.0507734375,-18.03333282470703,-0.7583374977111816,-8.4868745803833
1772905553213773600,10.060773681640624,-16.815895080566406,-0.9748820066452026,-8.348045349121094
1772905553223773400,10.0707734375,-14.26556396484375,-1.1990370750427246,-7.565798759460449
1772905553233773600,10.080773681640625,-10.453853607177734,-1.3189467191696167,-5.948383331298828
1772905553243773400,10.0907734375,-5.985198974609375,-1.1830779314041138,-3.8868956565856934
1772905553253773600,10.100773681640625,-1.8150380849838257,-0.8391162157058716,-1.8649852275848389
1772905553263773400,10.1107734375,1.4047024250030518,-0.375396728515625,-0.15737874805927277
1772905553273773600,10.120773681640625,3.6079959869384766,0.17310774326324463,1.242150068283081
1772905553283773400,10.1307734375,5.227220058441162,0.7243712544441223,2.5511765480041504
1772905553293773600,10.140773681640624,7.189335823059082,1.2297041416168213,3.9266905784606934
1772905553303773400,10.1507734375,10.15937614440918,1.6275466680526733,5.617156028747559
1772905553313773600,10.160773681640626,14.104066848754883,1.8125803470611572,8.057023048400879
1772905553323773400,10.1707734375,18.38960075378418,1.7916882038116455,11.382148742675781
1772905553333773600,10.180773681640625,22.42052459716797,1.5788346529006958,15.287915229797363
1772905553343773400,10.1907734375,26.426393508911133,1.1353087425231934,19.39239501953125
1772905553353773600,10.200773681640625,31.270336151123047,0.1587061882019043,23.675867080688477
1772905553363773400,10.2107734375,37.59608840942383,-1.7208282947540283,28.144729614257812
1772905553373773600,10.220773681640624,45.12502670288086,-4.494589805603027,32.006813049316406
1772905553383773400,10.2307734375,52.8336181640625,-7.534472942352295,33.90778350830078
1772905553393773600,10.240773681640626,59.5070915222168,-9.994519233703613,33.15453338623047
1772905553403773400,10.2507734375,63.86031723022461,-11.334327697753906,30.19074058532715
1772905553413773600,10.260773681640625,64.43876647949219,-11.446187019348145,26.13831901550293
1772905553423773400,10.2707734375,60.12256622314453,-10.511754989624023,21.751935958862305
1772905553433773600,10.280773681640625,51.14250564575195,-8.832303047180176,17.232635498046875
1772905553443773400,10.2907734375,39.385196685791016,-6.768949508666992,12.670967102050781
1772905553453773600,10.300773681640624,27.381954193115234,-4.692060947418213,8.291460037231445
1772905553463773400,10.3107734375,17.00348663330078,-2.8806099891662598,4.354743003845215
1772905553473773600,10.320773681640626,8.80778694152832,-1.4754862785339355,0.9559950828552246
1772905553483773400,10.3307734375,2.3254013061523438,-0.5643956661224365,-1.9696340560913086
1772905553493773600,10.340773681640625,-3.2089767456054688,-0.18546295166015625,-4.5753092765808105
1772905553503773400,10.3507734375,-8.315272331237793,-0.23776459693908691,-6.9873456954956055
1772905553513773600,10.360773681640625,-13.098848342895508,-0.5416972637176514,-9.153143882751465
1772905553523773400,10.3707734375,-17.536781311035156,-0.8848865032196045,-10.98041820526123
1772905553533773600,10.380773681640624,-21.73250389099121,-1.108675479888916,-12.452088356018066
1772905553543773400,10.3907734375,-25.881855010986328,-1.1730215549468994,-13.515954971313477
1772905553553773600,10.400773681640626,-30.02251434326172,-1.1663517951965332,-14.137163162231445
1772905553563773400,10.4107734375,-33.801998138427734,-1.1572895050048828,-14.462217330932617
1772905553573773600,10.420773681640625,-36.63658142089844,-1.0840394496917725,-14.859676361083984
1772905553583773400,10.4307734375,-38.28266143798828,-0.885516881942749,-15.676326751708984
1772905553593773600,10.440773681640625,-39.02870559692383,-0.5447859764099121,-16.9892635345459
1772905553603773400,10.4507734375,-39.29646301269531,-0.08067893981933594,-18.542499542236328
1772905553613773600,10.460773681640624,-39.397491455078125,0.44840240478515625,-19.85416030883789
1772905553623773400,10.4707734375,-39.435462951660156,0.9332091808319092,-20.501380920410156
1772905553633773600,10.480773681640626,-39.40528106689453,1.3169662952423096,-20.35037612915039
1772905553643773400,10.4907734375,-39.30743408203125,1.6075098514556885,-19.475284576416016
1772905553653773600,10.500773681640625,-39.11463928222656,1.843867540359497,-18.05902862548828
1772905553663773400,10.5107734375,-38.876827239990234,2.074579954147339,-16.48295021057129
1772905553673773600,10.520773681640625,-38.752010345458984,2.2713191509246826,-15.238944053649902
1772905553683773400,10.5307734375,-38.76072692871094,2.3711392879486084,-14.678804397583008
1772905553693773600,10.540773681640625,-38.66162109375,2.3494584560394287,-14.769619941711426
1772905553703773400,10.5507734375,-38.03659439086914,2.2022078037261963,-15.151412010192871
1772905553713773600,10.560773681640624,-36.54186248779297,1.9504096508026123,-15.353572845458984
1772905553723773400,10.5707734375,-34.16950225830078,1.6493780612945557,-15.112274169921875
1772905553733773600,10.580773681640625,-31.21307373046875,1.3952906131744385,-14.527329444885254
1772905553743773400,10.5907734375,-28.121326446533203,1.2335655689239502,-13.799697875976562
1772905553753773600,10.600773681640625,-25.284923553466797,1.2086126804351807,-12.998634338378906
1772905553763773400,10.6107734375,-22.923799514770508,1.3109428882598877,-12.0814208984375
1772905553773773600,10.620773681640625,-21.046737670898438,1.481623649597168,-10.914090156555176
1772905553783773400,10.6307734375,-19.544435501098633,1.7034285068511963,-9.403512954711914
1772905553793773600,10.640773681640624,-18.243257522583008,1.9606670141220093,-7.679624080657959
1772905553803773400,10.6507734375,-16.851097106933594,2.23012638092041,-6.0372843742370605
1772905553813773600,10.660773681640626,-15.017264366149902,2.5120978355407715,-4.735488414764404
1772905553823773400,10.6707734375,-12.5730619430542,2.804396629333496,-3.8245770931243896
1772905553833773600,10.680773681640625,-9.550680160522461,3.1008200645446777,-3.036025285720825
1772905553843773400,10.6907734375,-6.073822975158691,3.466536045074463,-1.9819520711898804
1772905553853773600,10.700773681640625,-2.1256747245788574,3.9787349700927734,-0.5876965522766113
1772905553863773400,10.7107734375,2.4380152225494385,4.662679672241211,0.8963627219200134
1772905553873773600,10.720773681640624,7.465054035186768,5.57327938079834,2.164269208908081
1772905553883773400,10.7307734375,12.491703987121582,6.756730079650879,3.1928303241729736
1772905553893773600,10.740773681640626,17.242767333984375,8.255165100097656,4.287343502044678
1772905553903773400,10.7507734375,21.94439697265625,9.922159194946289,5.780420303344727
1772905553913773600,10.760773681640625,27.47630500793457,11.343626976013184,7.446351528167725
1772905553923773400,10.7707734375,34.76906967163086,12.058048248291016,8.525979995727539
1772905553933773600,10.780773681640625,43.660125732421875,11.791086196899414,8.578099250793457
1772905553943773400,10.7907734375,52.1901741027832,10.651594161987305,8.063190460205078
1772905553953773600,10.800773681640624,57.76225280761719,9.019829750061035,7.950511455535889
1772905553963773400,10.8107734375,59.08546829223633,7.259920120239258,8.85095500946045
1772905553973773600,10.820773681640626,56.29753494262695,5.631515979766846,10.471689224243164
1772905553983773400,10.8307734375,50.0956916809082,4.373804092407227,11.866504669189453
1772905553993773600,10.840773681640625,41.280494689941406,3.7463271617889404,12.30478286743164
1772905554003773400,10.8507734375,30.881494522094727,3.997678518295288,11.627849578857422
1772905554013773600,10.860773681640625,20.397544860839844,5.020288467407227,9.764101028442383
1772905554023773400,10.8707734375,11.53696060180664,6.249312400817871,6.878113746643066
1772905554033773600,10.880773681640624,5.12614107131958,7.061964988708496,3.5620131492614746
1772905554043773400,10.8907734375,0.43607044219970703,7.181994915008545,0.6433781385421753
1772905554053773600,10.900773681640626,-3.871314525604248,6.609823226928711,-1.2772645950317383
1772905554063773400,10.9107734375,-8.283712387084961,5.421710968017578,-2.051302433013916
1772905554073773600,10.920773681640625,-12.059208869934082,3.710054874420166,-2.072556972503662
1772905554083773400,10.9307734375,-14.065610885620117,1.6505138874053955,-2.0950775146484375
1772905554093773600,10.940773681640625,-14.00984001159668,-0.5331783294677734,-2.6418962478637695
1772905554103773400,10.9507734375,-12.834270477294922,-2.5640268325805664,-3.5629642009735107
1772905554113773600,10.960773681640624,-11.988325119018555,-4.175812244415283,-4.386137008666992
1772905554123773400,10.9707734375,-12.536080360412598,-5.292311668395996,-4.88830041885376
1772905554133773600,10.980773681640626,-14.804256439208984,-5.989007949829102,-5.128566741943359
1772905554143773400,10.9907734375,-18.33432960510254,-6.332979679107666,-5.147792339324951
1772905554153773600,11.000773681640625,-22.217700958251953,-6.395900726318359,-4.91115665435791
1772905554163773400,11.0107734375,-25.47475242614746,-6.316969871520996,-4.5376739501953125
1772905554173773600,11.020773681640625,-27.58030128479004,-6.199679374694824,-4.280919075012207
1772905554183773400,11.0307734375,-28.648040771484375,-6.097568511962891,-4.236944675445557
1772905554193773600,11.040773681640625,-28.908245086669922,-6.022078037261963,-4.310870170593262
1772905554203773400,11.0507734375,-28.44830322265625,-5.947497367858887,-4.4799957275390625
1772905554213773600,11.060773681640624,-27.43378257751465,-5.894980430603027,-4.752485275268555
1772905554223773400,11.0707734375,-26.208314895629883,-5.887060642242432,-4.985426425933838
1772905554233773600,11.080773681640625,-25.180702209472656,-5.909137725830078,-5.0414886474609375
1772905554243773400,11.0907734375,-24.66142463684082,-5.939836502075195,-4.9755659103393555
1772905554253773600,11.100773681640625,-24.635778427124023,-5.95980978012085,-4.9357733726501465
1772905554273773600,11.120773681640625,-24.578784942626953,-5.909402847290039,-5.246339321136475
1772905554283773400,11.1307734375,-23.973546981811523,-5.845844268798828,-5.5027384757995605
1772905554293773600,11.140773681640624,-23.095706939697266,-5.766556739807129,-5.597296714782715
1772905554303773400,11.1507734375,-22.18157196044922,-5.629998683929443,-5.448018550872803
1772905554313773600,11.160773681640626,-21.3636474609375,-5.407861232757568,-5.12564754486084
1772905554323773400,11.1707734375,-20.634075164794922,-5.130246162414551,-4.724132537841797
1772905554333773600,11.180773681640625,-19.800195693969727,-4.834949016571045,-4.360695838928223
1772905554343773400,11.1907734375,-18.666715621948242,-4.555395126342773,-4.091188907623291
1772905554353773600,11.200773681640625,-17.25139808654785,-4.291362285614014,-3.8627071380615234
1772905554363773400,11.2107734375,-15.655953407287598,-4.019583702087402,-3.594783067703247
1772905554373773600,11.220773681640624,-13.998550415039062,-3.7244930267333984,-3.2195825576782227
1772905554383773400,11.2307734375,-12.414932250976562,-3.4096920490264893,-2.7798070907592773
1772905554393773600,11.240773681640626,-10.89000129699707,-3.1030988693237305,-2.4170262813568115
1772905554403773400,11.2507734375,-9.277360916137695,-2.81670880317688,-2.2524454593658447
1772905554413773600,11.260773681640625,-7.491313457489014,-2.5687499046325684,-2.3126468658447266
1772905554423773400,11.2707734375,-5.589567184448242,-2.3268821239471436,-2.4259493350982666
1772905554433773600,11.280773681640625,-3.7282800674438477,-2.0328943729400635,-2.31240177154541
1772905554443773400,11.2907734375,-1.996860384941101,-1.6345129013061523,-1.9490995407104492
1772905554453773600,11.300773681640624,-0.4578862190246582,-1.0330277681350708,-1.6605689525604248
1772905554463773400,11.3107734375,0.8217955827713013,-0.1286700963973999,-1.7405078411102295
1772905554473773600,11.320773681640626,1.7856128215789795,1.0432937145233154,-2.1433424949645996
1772905554483773400,11.3307734375,2.408970355987549,2.3248813152313232,-2.625706195831299
1772905554493773600,11.340773681640625,2.761371374130249,3.5245656967163086,-2.801926851272583
1772905554503773400,11.3507734375,2.986905097961426,4.508072853088379,-2.371795177459717
1772905554513773600,11.360773681640625,3.8883230686187744,5.009477615356445,-1.0130155086517334
1772905554523773400,11.3707734375,6.835793972015381,4.80422830581665,1.5947880744934082
1772905554533773600,11.380773681640624,12.710968017578125,3.9204585552215576,5.489867210388184
1772905554543773400,11.3907734375,21.308441162109375,2.3665528297424316,10.070890426635742
1772905554553773600,11.400773681640626,31.929121017456055,-0.07202856242656708,14.240158081054688
1772905554563773400,11.4107734375,44.231056213378906,-3.1240038871765137,17.069091796875
1772905554573773600,11.420773681640625,57.42337417602539,-5.800485610961914,18.24382209777832
1772905554583773400,11.4307734375,68.54388427734375,-7.097211837768555,17.657419204711914
1772905554593773600,11.440773681640625,73.36982727050781,-6.563106536865234,15.256627082824707
1772905554603773400,11.4507734375,69.1349868774414,-4.310421466827393,11.741592407226562
1772905554613773600,11.460773681640624,56.925392150878906,-0.981136679649353,8.192922592163086
1772905554623773400,11.4707734375,41.00482177734375,2.5361523628234863,5.300830364227295
1772905554633773600,11.480773681640626,25.958860397338867,5.436329364776611,3.211698532104492
1772905554643773400,11.4907734375,14.348636627197266,7.265568256378174,1.7796883583068848
1772905554653773600,11.500773681640625,6.3289079666137695,7.963977336883545,0.7674450874328613
1772905554663773400,11.5107734375,0.5345306396484375,7.790979385375977,0.029659509658813477
1772905554673773600,11.520773681640625,-4.695545196533203,7.164933681488037,-0.7152154445648193
1772905554683773400,11.5307734375,-10.392274856567383,6.472667217254639,-1.8463951349258423
1772905554693773600,11.540773681640625,-16.528987884521484,5.9309868812561035,-3.3139936923980713
1772905554703773400,11.5507734375,-22.17993927001953,5.494521141052246,-4.817009925842285
1772905554713773600,11.560773681640624,-26.33932113647461,4.912508964538574,-6.143928050994873
1772905554723773400,11.5707734375,-28.71341323852539,3.9484543800354004,-7.1536455154418945
1772905554733773600,11.580773681640625,-29.69530487060547,2.6241846084594727,-7.858929634094238
1772905554743773400,11.5907734375,-29.829273223876953,1.2049942016601562,-8.366060256958008
1772905554753773600,11.600773681640625,-29.608596801757812,-0.03334176540374756,-8.742223739624023
1772905554763773400,11.6107734375,-29.387380599975586,-0.9107123613357544,-9.060134887695312
1772905554773773600,11.620773681640625,-29.347225189208984,-1.3672490119934082,-9.410432815551758
1772905554783773400,11.6307734375,-29.59573745727539,-1.4835209846496582,-9.790306091308594
1772905554793773600,11.640773681640624,-30.117948532104492,-1.4190852642059326,-10.160520553588867
1772905554803773400,11.6507734375,-30.73407745361328,-1.3353649377822876,-10.45444107055664
1772905554813773600,11.660773681640626,-31.13391876220703,-1.376644253730774,-10.587444305419922
1772905554823773400,11.6707734375,-31.01111602783203,-1.6200648546218872,-10.500167846679688
1772905554833773600,11.680773681640625,-30.17087745666504,-2.0682733058929443,-10.149334907531738
1772905554843773400,11.6907734375,-28.649658203125,-2.6469297409057617,-9.505849838256836
1772905554853773600,11.700773681640625,-26.767980575561523,-3.2765285968780518,-8.60275936126709
1772905554863773400,11.7107734375,-24.96527671813965,-3.94311785697937,-7.4595417976379395
1772905554873773600,11.720773681640624,-23.543556213378906,-4.630435943603516,-6.117189884185791
1772905554883773400,11.7307734375,-22.502994537353516,-5.242892265319824,-4.687125205993652
1772905554893773600,11.740773681640626,-21.677412033081055,-5.678178787231445,-3.3995513916015625
1772905554903773400,11.7507734375,-20.92000961303711,-5.88601541519165,-2.548954725265503
1772905554913773600,11.760773681640625,-20.14674186706543,-5.897527694702148,-2.2673280239105225
1772905554923773400,11.7707734375,-19.24520492553711,-5.796513080596924,-2.393367052078247
1772905554933773600,11.780773681640625,-18.054325103759766,-5.604547500610352,-2.6097054481506348
1772905554943773400,11.7907734375,-16.505859375,-5.342835426330566,-2.57504940032959
1772905554953773600,11.800773681640624,-14.648584365844727,-5.007528305053711,-2.0686287879943848
1772905554963773400,11.8107734375,-12.59328842163086,-4.60115385055542,-1.0951025485992432
1772905554973773600,11.820773681640626,-10.483818054199219,-4.104073524475098,0.09891462326049805
1772905554983773400,11.8307734375,-8.54351806640625,-3.5276095867156982,1.121530294418335
1772905555003773400,11.8507734375,-5.606590747833252,-2.3757922649383545,1.8778434991836548
1772905555013773600,11.860773681640625,-4.416014671325684,-1.888626217842102,1.725414752960205
1772905555023773400,11.8707734375,-3.229877471923828,-1.4985334873199463,1.5430727005004883
1772905555033773600,11.880773681640624,-2.0951905250549316,-1.1739532947540283,1.595864176750183
1772905555043773400,11.8907734375,-0.9639884233474731,-0.8398532867431641,1.9048357009887695
1772905555053773600,11.900773681640626,0.24691236019134521,-0.4785497188568115,2.2929444313049316
1772905555063773400,11.9107734375,1.7015058994293213,-0.08892560005187988,2.5650649070739746
1772905555093773600,11.940773681640625,10.384858131408691,1.3481526374816895,3.087555408477783
1772905555103773400,11.9507734375,12.69112491607666,1.9034301042556763,2.1886050701141357
1772905555113773600,11.960773681640624,14.307740211486816,2.6437928676605225,0.970058798789978
1772905555123773400,11.9707734375,14.943943977355957,3.5410683155059814,0.24666082859039307
1772905555133773600,11.980773681640626,15.14177417755127,4.378233909606934,0.7726531028747559
1772905555143773400,11.9907734375,16.031219482421875,4.936147689819336,2.8784306049346924
1772905555153773600,12.000773681640625,15.60687255859375,5.048123836517334,2.655573844909668
1772905555163773400,12.0107734375,18.295061111450195,5.16994047164917,6.232415199279785
1772905555173773600,12.020773681640625,23.406137466430664,4.72057580947876,10.758671760559082
1772905555183773400,12.0307734375,30.733936309814453,3.492149829864502,15.63177490234375
1772905555193773600,12.040773681640625,38.64051818847656,1.6758933067321777,19.980974197387695
1772905555203773400,12.0507734375,44.78749465942383,-0.17182619869709015,22.81147575378418
1772905555213773600,12.060773681640624,47.76799774169922,-1.491438865661621,23.531522750854492
1772905555223773400,12.0707734375,47.64141845703125,-2.105407238006592,22.098861694335938
1772905555233773600,12.080773681640625,45.109893798828125,-2.2198519706726074,18.918766021728516
1772905555243773400,12.0907734375,40.7642936706543,-2.122529983520508,14.730628967285156
1772905555253773600,12.100773681640625,28.76946449279785,-1.7034575939178467,7.092658996582031
1772905555263773400,12.1107734375,20.623981475830078,-1.6525039672851562,4.3965559005737305
1772905555273773600,12.120773681640625,12.115409851074219,-1.7241963148117065,2.6373119354248047
1772905555283773400,12.1307734375,4.034527778625488,-2.048233985900879,1.4542913436889648
1772905555293773600,12.140773681640624,-3.0413150787353516,-2.636350631713867,0.30443668365478516
1772905555303773400,12.1507734375,-8.953532218933105,-3.369798183441162,-1.3499836921691895
1772905555313773600,12.160773681640626,-13.969976425170898,-4.080597400665283,-3.6141555309295654
1772905555323773400,12.1707734375,-18.543123245239258,-4.668631553649902,-6.123562335968018
1772905555333773600,12.180773681640625,-22.947484970092773,-5.170880317687988,-8.433067321777344
1772905555343773400,12.1907734375,-27.108169555664062,-5.619953632354736,-10.331939697265625
1772905555353773600,12.200773681640625,-30.681379318237305,-5.926551818847656,-11.789986610412598
1772905555363773400,12.2107734375,-33.41106414794922,-5.9941725730896,-12.874330520629883
1772905555373773600,12.220773681640624,-35.361427307128906,-5.826360702514648,-13.64184856414795
1772905555383773400,12.2307734375,-36.74956512451172,-5.457123756408691,-14.21164321899414
1772905555393773600,12.240773681640626,-37.767555236816406,-4.9707770347595215,-14.695476531982422
1772905555403773400,12.2507734375,-38.545597076416016,-4.435220718383789,-15.146644592285156
1772905555413773600,12.260773681640625,-39.17927551269531,-3.892094850540161,-15.532903671264648
1772905555423773400,12.2707734375,-39.62051773071289,-3.4021105766296387,-15.721601486206055
1772905555433773600,12.280773681640625,-39.66724395751953,-3.0138416290283203,-15.586997985839844
1772905555443773400,12.2907734375,-39.140045166015625,-2.768444538116455,-15.009828567504883
1772905555453773600,12.300773681640624,-37.97732162475586,-2.6517107486724854,-13.972715377807617
1772905555463773400,12.3107734375,-36.191062927246094,-2.6347689628601074,-12.61003303527832
1772905555473773600,12.320773681640626,-33.88623046875,-2.6888175010681152,-11.213530540466309
1772905555483773400,12.3307734375,-31.300601959228516,-2.7730979919433594,-10.045903205871582
1772905555493773600,12.340773681640625,-28.73290252685547,-2.85146427154541,-9.253551483154297
1772905555503773400,12.3507734375,-26.467388153076172,-2.931248188018799,-8.825689315795898
1772905555513773600,12.360773681640625,-24.667383193969727,-3.032707691192627,-8.642387390136719
1772905555523773400,12.3707734375,-23.296092987060547,-3.131873846054077,-8.549205780029297
1772905555533773600,12.380773681640624,-22.11507797241211,-3.136610507965088,-8.393632888793945
1772905555543773400,12.3907734375,-20.84613037109375,-2.939079523086548,-8.10234260559082
1772905555553773600,12.400773681640626,-19.414182662963867,-2.5184152126312256,-7.796897888183594
1772905555563773400,12.4107734375,-17.904983520507812,-1.9643909931182861,-7.586767196655273
1772905555573773600,12.420773681640625,-16.31264305114746,-1.3525441884994507,-7.377757549285889
1772905555583773400,12.4307734375,-14.575721740722656,-0.7556552886962891,-7.01503324508667
1772905555593773600,12.440773681640625,-12.655882835388184,-0.23610055446624756,-6.377261638641357
1772905555603773400,12.4507734375,-10.56901741027832,0.18099427223205566,-5.398155212402344
1772905555613773600,12.460773681640624,-8.356006622314453,0.5226778388023376,-4.154496192932129
1772905555623773400,12.4707734375,-6.080306053161621,0.8516495227813721,-2.896244525909424
1772905555633773600,12.480773681640626,-3.787297248840332,1.1702032089233398,-1.8273611068725586
1772905555643773400,12.4907734375,-1.5055947303771973,1.4841370582580566,-0.941533088684082
1772905555653773600,12.500773681640625,0.7751314640045166,1.778153657913208,-0.06603884696960449
1772905555663773400,12.5107734375,3.097517490386963,2.025324583053589,0.9412740468978882
1772905555673773600,12.520773681640625,5.586320400238037,2.2356855869293213,2.017263889312744
1772905555683773400,12.5307734375,8.498320579528809,2.371577262878418,3.024266481399536
1772905555693773600,12.540773681640625,11.806443214416504,2.3905136585235596,3.824566125869751
1772905555703773400,12.5507734375,15.078625679016113,2.27120041847229,4.346556663513184
1772905555713773600,12.560773681640624,17.681991577148438,2.0179405212402344,4.632415771484375
1772905555723773400,12.5707734375,18.947917938232422,1.7370564937591553,4.782481670379639
1772905555733773600,12.580773681640625,18.69770622253418,1.6010937690734863,5.01657772064209
1772905555743773400,12.5907734375,17.68623924255371,1.7366379499435425,5.5746965408325195
1772905555753773600,12.600773681640625,17.28884506225586,2.1263346672058105,6.612812042236328
1772905555763773400,12.6107734375,18.411401748657227,2.7426767349243164,8.467477798461914
1772905555773773600,12.620773681640625,20.85353660583496,3.487128257751465,11.751961708068848
1772905555783773400,12.6307734375,24.063322067260742,4.04954719543457,16.799196243286133
1772905555793773600,12.640773681640624,28.11189079284668,3.927600145339966,23.205921173095703
1772905555803773400,12.6507734375,33.64302062988281,2.7504703998565674,29.16934585571289
1772905555813773600,12.660773681640626,40.59312057495117,0.8452710509300232,32.30425262451172
1772905555823773400,12.6707734375,46.74570846557617,-0.7760211229324341,31.121706008911133
1772905555833773600,12.680773681640625,48.75828170776367,-1.205771565437317,25.764385223388672
1772905555843773400,12.6907734375,45.154666900634766,-0.16132497787475586,17.912107467651367
1772905555853773600,12.700773681640625,37.210208892822266,1.8687670230865479,9.94714641571045
1772905555863773400,12.7107734375,27.660690307617188,3.967315435409546,3.651813507080078
1772905555873773600,12.720773681640624,18.889020919799805,5.339646339416504,-0.4284934997558594
1772905555883773400,12.7307734375,11.824482917785645,5.670770168304443,-2.700007438659668
1772905555893773600,12.740773681640626,6.112811088562012,5.099071979522705,-3.932952404022217
1772905555903773400,12.7507734375,1.052739143371582,3.926088333129883,-4.814955234527588
1772905555913773600,12.760773681640625,-3.7208852767944336,2.4991843700408936,-5.7780866622924805
1772905555923773400,12.7707734375,-8.193384170532227,1.1037811040878296,-7.0592474937438965
1772905555953773600,12.800773681640624,-19.63804817199707,-1.8213229179382324,-12.960456848144531
1772905555963773400,12.8107734375,-23.35700225830078,-2.378288745880127,-14.591009140014648
1772905555973773600,12.820773681640626,-26.939180374145508,-2.7591552734375,-15.502598762512207
1772905555983773400,12.8307734375,-29.978086471557617,-2.9842071533203125,-15.764260292053223
1772905555993773600,12.840773681640625,-32.15929412841797,-3.0950632095336914,-15.63665771484375
1772905556003773400,12.8507734375,-33.31800842285156,-3.1928863525390625,-15.313952445983887
1772905556013773600,12.860773681640625,-33.50757598876953,-3.3517861366271973,-15.009047508239746
1772905556023773400,12.8707734375,-33.08226776123047,-3.6104116439819336,-14.798967361450195
1772905556033773600,12.880773681640624,-32.57706069946289,-3.949525833129883,-14.644186019897461
1772905556053773600,12.900773681640626,-32.803855895996094,-4.484889984130859,-14.463939666748047
1772905556063773400,12.9107734375,-33.26640701293945,-4.6087470054626465,-14.157129287719727
1772905556073773600,12.920773681640625,-33.15614318847656,-4.598418235778809,-13.436263084411621
1772905556083773400,12.9307734375,-32.210174560546875,-4.470093250274658,-12.409446716308594
1772905556093773600,12.940773681640625,-30.696022033691406,-4.316037654876709,-11.33300495147705
1772905556103773400,12.9507734375,-28.95633888244629,-4.203229904174805,-10.311932563781738
1772905556113773600,12.960773681640624,-27.236234664916992,-4.100662708282471,-9.342561721801758
1772905556123773400,12.9707734375,-25.764503479003906,-3.9870200157165527,-8.51075267791748
1772905556133773600,12.980773681640626,-24.633546829223633,-3.8867383003234863,-7.924396991729736
1772905556143773400,12.9907734375,-23.75469970703125,-3.796870231628418,-7.592870712280273
1772905556153773600,13.000773681640625,-22.89752769470215,-3.700145959854126,-7.400613784790039
1772905556163773400,13.0107734375,-21.83106803894043,-3.5417838096618652,-7.188270092010498
1772905556173773600,13.020773681640625,-20.548582077026367,-3.2785661220550537,-6.840186595916748
1772905556183773400,13.0307734375,-19.18457794189453,-2.9350109100341797,-6.282632350921631
1772905556193773600,13.040773681640625,-17.845745086669922,-2.5195181369781494,-5.473949432373047
1772905556203773400,13.0507734375,-16.546628952026367,-2.0902090072631836,-4.380286693572998
1772905556213773600,13.060773681640624,-15.04659366607666,-1.7340302467346191,-3.035677194595337
1772905556223773400,13.0707734375,-12.895036697387695,-1.4809552431106567,-1.5331921577453613
1772905556233773600,13.080773681640625,-9.711963653564453,-1.3109668493270874,0.13231897354125977
1772905556243773400,13.0907734375,-5.416119575500488,-1.1853641271591187,2.1598916053771973
1772905556253773600,13.100773681640625,-0.14381885528564453,-0.9893964529037476,4.8673248291015625
1772905556263773400,13.1107734375,5.809952259063721,-0.40374866127967834,8.25618839263916
1772905556273773600,13.120773681640625,12.066797256469727,0.899190366268158,11.654256820678711
1772905556283773400,13.1307734375,18.192401885986328,3.1876282691955566,13.815902709960938
1772905556293773600,13.140773681640624,23.708866119384766,6.337657451629639,14.25584888458252
1772905556303773400,13.1507734375,28.305946350097656,9.87198543548584,14.34999942779541
1772905556313773600,13.160773681640626,31.654691696166992,13.223087310791016,16.127790451049805
1772905556323773400,13.1707734375,32.739070892333984,16.184236526489258,19.977733612060547
1772905556333773600,13.180773681640625,31.657567977905273,18.488542556762695,24.877023696899414
1772905556343773400,13.1907734375,31.379371643066406,19.379770278930664,29.750268936157227
1772905556353773600,13.200773681640625,34.94981384277344,18.08133888244629,33.3889045715332
1772905556363773400,13.2107734375,41.556671142578125,14.816357612609863,33.80555725097656
1772905556373773600,13.220773681640624,46.62792205810547,10.862024307250977,29.446470260620117
1772905556383773400,13.2307734375,46.34486770629883,7.554055690765381,21.23741912841797
1772905556393773600,13.240773681640626,40.386131286621094,5.54180908203125,12.046268463134766
1772905556403773400,13.2507734375,30.714519500732422,4.766337871551514,4.414708137512207
1772905556413773600,13.260773681640625,19.77556037902832,4.882045745849609,-0.6768202781677246
1772905556423773400,13.2707734375,9.40903091430664,5.456838607788086,-3.6621224880218506
1772905556433773600,13.280773681640625,0.8221216201782227,6.079141616821289,-5.517109394073486
