time,seconds_elapsed,z,y,x
1772905543422979600,0.2699794921875,7.967800140380859,1.3806586265563965,-0.23359930515289307
1772905543433049300,0.28004931640625,8.446663856506348,1.150648593902588,-0.05892325937747955
1772905543442956500,0.28995654296875,9.030811309814453,0.9041878581047058,0.18514464795589447
1772905543452983800,0.29998388671875,9.583852767944336,0.7797610759735107,0.3768695592880249
1772905543462946000,0.309946044921875,9.957133293151855,0.877866804599762,0.43190449476242065
1772905543472944400,0.3199443359375,10.062716484069824,1.1940184831619263,0.29312077164649963
1772905543482923300,0.32992333984375,9.940383911132812,1.6630117893218994,-0.05892325937747955
1772905543492906200,0.33990625,9.727422714233398,2.213959217071533,-0.5808576941490173
1772905543502887200,0.34988720703125,9.54078197479248,2.7622146606445312,-1.0764710903167725
1772905543512847600,0.35984765625,9.291629791259766,3.1283164024353027,-1.2822538614273071
1772905543522819000,0.369819091796875,8.858229637145996,2.9608190059661865,-1.1434701681137085
1772905543532818000,0.37981787109375,8.240582466125488,2.3024935722351074,-0.7603194117546082
1772905543542802000,0.389802001953125,7.503293514251709,1.6414763927459717,-0.32243284583091736
1772905543552789000,0.3997890625,6.909574508666992,1.3639088869094849,-0.02063809521496296
1772905543562774500,0.4097744140625,6.849454879760742,1.5625132322311401,0.0726819857954979
1772905543572754200,0.419754150390625,7.426723480224609,1.9935203790664673,0.0726819857954979
1772905543582737200,0.429737060546875,8.578269004821777,2.297708034515381,0.12293126434087753
1772905543592718000,0.439718017578125,9.985847473144531,2.2618155479431152,0.1707877218723297
1772905543602700000,0.449699951171875,11.125727653503418,1.979163408279419,0.0894317477941513
1772905543612706000,0.4597060546875,11.630912780761719,1.6558332443237305,-0.11874382197856903
1772905543622699300,0.46969921875,11.475080490112305,1.428515076637268,-0.32961133122444153
1772905543632677400,0.479677490234375,10.886146545410156,1.3519448041915894,-0.40378883481025696
1772905543642663400,0.489663330078125,10.050752639770508,1.466800332069397,-0.29371899366378784
1772905543652632300,0.49963232421875,9.28445053100586,1.7614165544509888,-0.0972084179520607
1772905543662610700,0.509610595703125,9.018847465515137,2.199303150177002,0.03918246924877167
1772905543672790800,0.519790771484375,9.260522842407227,2.6566312313079834,0.06550352275371552
1772905543682953700,0.52995361328125,9.612566947937012,2.9608190059661865,0.015254244208335876
1772905543692774000,0.53977392578125,9.681958198547363,3.0230321884155273,-0.01585244946181774
1772905543702593800,0.54959375,9.279664993286133,2.8411777019500732,0.07507480680942535
1772905543712523300,0.559523193359375,8.518448829650879,2.4819552898406982,0.29312077164649963
1772905543722482000,0.56948193359375,7.699504852294922,2.137089729309082,0.5419743061065674
1772905543732467500,0.579467529296875,7.1249284744262695,2.03419828414917,0.7214360237121582
1772905543742438100,0.589438232421875,7.031608581542969,2.3048863410949707,0.7262216806411743
1772905543752429000,0.599428955078125,7.380960464477539,2.8268208503723145,0.5706881880760193
1772905543762402000,0.609402099609375,7.902894973754883,3.348755359649658,0.364905446767807
1772905543772377900,0.6193779296875,8.374580383300781,3.655036687850952,0.24975086748600006
1772905543782351000,0.62935107421875,8.571090698242188,3.6526436805725098,0.33858439326286316
1772905543792329200,0.6393291015625,8.46341323852539,3.401397466659546,0.5778666734695435
1772905543802303000,0.649302978515625,8.214261054992676,3.0373892784118652,0.7935197949409485
1772905543812283100,0.659283203125,8.041977882385254,2.6662025451660156,0.8844470977783203
1772905543822257400,0.66925732421875,8.132905006408691,2.292922258377075,0.9155537486076355
1772905543832242000,0.679241943359375,8.523234367370605,1.9456639289855957,0.9634101986885071
1772905543842217500,0.689217529296875,9.136096000671387,1.7255241870880127,1.023230791091919
1772905543852213200,0.699213134765625,9.763314247131348,1.703988790512085,1.0615159273147583
1772905543862190600,0.709190673828125,10.23021411895752,1.8427724838256836,1.0878369808197021
1772905543872163800,0.719163818359375,10.483853340148926,2.048555374145508,1.1548360586166382
1772905543882141000,0.729140869140625,10.435997009277344,2.2498514652252197,1.2481560707092285
1772905543892091000,0.7390908203125,9.945169448852539,2.4364917278289795,1.2170493602752686
1772905543902065200,0.749065185546875,9.097810745239258,2.568096876144409,1.0016953945159912
1772905543912067300,0.7590673828125,8.219046592712402,2.6183462142944336,0.6831508874893188
1772905543922044400,0.76904443359375,7.71386194229126,2.620738983154297,0.39840495586395264
1772905543932021800,0.779021728515625,7.840681552886963,2.6255247592926025,0.28115665912628174
1772905543941998800,0.788998779296875,8.559126853942871,2.644667148590088,0.39840495586395264
1772905543951970300,0.79897021484375,9.531210899353027,2.6566312313079834,0.6855437159538269
1772905543961947000,0.80894677734375,10.266106605529785,2.620738983154297,1.0064810514450073
1772905543971955500,0.81895556640625,10.46471118927002,2.520240545272827,1.2170493602752686
1772905543981935400,0.828935302734375,10.144072532653809,2.400599241256714,1.2098709344863892
1772905543991884000,0.838884033203125,9.497711181640625,2.369492530822754,0.9705886840820312
1772905544001860600,0.848860595703125,8.72901725769043,2.5010979175567627,0.6065805554389954
1772905544011852500,0.8588525390625,8.025228500366211,2.743072032928467,0.2715853750705719
1772905544021830700,0.86883056640625,7.424330234527588,2.9991040229797363,0.1133599728345871
1772905544031812600,0.8788125,6.890431880950928,3.1977083683013916,0.1899302899837494
1772905544041791200,0.888791259765625,6.569494724273682,3.284149169921875,0.47976094484329224
1772905544051835000,0.8988349609375,6.643671989440918,3.224029302597046,0.905982494354248
1772905544061820400,0.9088203125,7.134500026702881,3.0637102127075195,1.308275818824768
1772905544071860200,0.918860107421875,7.89332389831543,2.848356246948242,1.547558069229126
1772905544081851400,0.928851318359375,8.72183895111084,2.630310297012329,1.638485312461853
1772905544091830000,0.938830078125,9.377771377563477,2.503490686416626,1.6671991348266602
1772905544101819600,0.948819580078125,9.662816047668457,2.5010979175567627,1.6767704486846924
1772905544111807000,0.958806884765625,9.55753231048584,2.5872395038604736,1.6791633367538452
1772905544121796400,0.96879638671875,9.219844818115234,2.709273338317871,1.6504493951797485
1772905544131799300,0.97879931640625,8.874979019165039,2.8268208503723145,1.5643078088760376
1772905544141790200,0.988790283203125,8.664410591125488,2.908176898956299,1.4398809671401978
1772905544151787500,0.99878759765625,8.559126853942871,2.941676378250122,1.3130614757537842
1772905544161779000,1.008779052734375,8.504091262817383,2.93210506439209,1.2290135622024536
1772905544171827200,1.0188271484375,8.48016357421875,2.8986055850982666,1.2218350172042847
1772905544181824800,1.02882470703125,8.477770805358887,2.8674988746643066,1.2744771242141724
1772905544191793400,1.03879345703125,8.528019905090332,2.8339993953704834,1.2864413261413574
1772905544201788000,1.048787841796875,8.714659690856934,2.743072032928467,1.2074781656265259
1772905544211788300,1.058788330078125,9.054739952087402,2.5848467350006104,1.1045867204666138
1772905544221783300,1.068783203125,9.495318412780762,2.3982064723968506,1.1596217155456543
1772905544231603500,1.078603515625,9.801599502563477,2.252244234085083,1.4685949087142944
1772905544241458000,1.0884580078125,9.614959716796875,2.175374984741211,1.8708882331848145
1772905544251492400,1.098492431640625,8.879764556884766,2.1969103813171387,2.0766708850860596
1772905544261465300,1.10846533203125,7.8693952560424805,2.292922258377075,1.9307087659835815
1772905544271526700,1.118526611328125,6.964609622955322,2.369492530822754,1.5044872760772705
1772905544281508900,1.1285087890625,6.394818305969238,2.3910279273986816,1.0256235599517822
1772905544291518500,1.1385185546875,6.119344711303711,2.3814568519592285,0.6927221417427063
1772905544301503500,1.14850341796875,6.238986015319824,2.4221346378326416,0.5467599630355835
1772905544311518500,1.1585185546875,6.672386169433594,2.4771697521209717,0.6209374666213989
1772905544321506600,1.168506591796875,7.2589263916015625,2.4149563312530518,0.783948540687561
1772905544331512600,1.1785126953125,7.871788501739502,2.276172637939453,0.8054839372634888
1772905544341502500,1.18850244140625,8.374580383300781,2.2642083168029785,0.781555712223053
1772905544351505700,1.198505615234375,8.717052459716797,2.448455810546875,0.8198408484458923
1772905544361496800,1.208496826171875,8.906085968017578,2.723630428314209,0.8772686123847961
1772905544371550200,1.21855029296875,9.049954414367676,2.989532709121704,0.8748757839202881
1772905544381548000,1.228548095703125,9.171988487243652,3.0565319061279297,0.8844470977783203
1772905544391510300,1.23851025390625,9.167202949523926,2.8196423053741455,1.0088738203048706
1772905544401504300,1.248504150390625,8.798408508300781,2.5250260829925537,1.0974082946777344
1772905544411479000,1.25847900390625,7.840681552886963,2.407777786254883,1.0016953945159912
1772905544421471200,1.26847119140625,6.636493682861328,2.5154547691345215,0.6951149702072144
1772905544431463400,1.27846337890625,5.829514026641846,2.678166627883911,0.32662028074264526
1772905544441486800,1.28848681640625,5.690730571746826,2.7044878005981445,0.1420738399028778
1772905544451481000,1.298481201171875,6.136094570159912,2.599203586578369,0.18514464795589447
1772905544461475600,1.3084755859375,6.854240417480469,2.407777786254883,0.3601198196411133
1772905544471295500,1.31829541015625,7.52004337310791,2.206481695175171,0.5228317379951477
1772905544481143300,1.328143310546875,7.967800140380859,2.0557336807250977,0.6017948985099792
1772905544491323400,1.338323486328125,8.161619186401367,1.9959131479263306,0.6041877269744873
1772905544501438200,1.348438232421875,8.197511672973633,2.0365912914276123,0.5778666734695435
1772905544511439400,1.358439453125,8.15683364868164,2.1705892086029053,0.5682953596115112
1772905544521434400,1.368434326171875,8.211868286132812,2.417349100112915,0.6137589812278748
1772905544531434800,1.378434814453125,8.319544792175293,2.6877379417419434,0.7887341380119324
1772905544541435600,1.388435546875,8.264510154724121,2.924926519393921,1.0447661876678467
1772905544551255600,1.398255615234375,8.348258972167969,3.1283164024353027,1.2074781656265259
1772905544561069800,1.40806982421875,9.198308944702148,3.3032915592193604,1.1309077739715576
1772905544571106300,1.418106201171875,11.149656295776367,3.5066816806793213,0.8030911087989807
1772905544581087200,1.428087158203125,13.929219245910645,3.808476448059082,0.4342973232269287
1772905544591097900,1.438097900390625,16.84547233581543,4.296911239624023,0.31465616822242737
1772905544601081900,1.448081787109375,19.517356872558594,5.012664318084717,0.5324030518531799
1772905544611079000,1.458078857421875,22.316062927246094,5.776273727416992,0.7887341380119324
1772905544621064200,1.468064208984375,25.93610382080078,6.295815467834473,0.9275178909301758
1772905544630884400,1.47788427734375,30.281768798828125,6.399005889892578,1.3776676654815674
1772905544640780000,1.487780029296875,34.00948715209961,6.238387584686279,2.500499725341797
1772905544650798300,1.49779833984375,34.94538116455078,6.204888343811035,3.972982883453369
1772905544660765700,1.507765625,31.773096084594727,6.63350248336792,4.961816787719727
1772905544670800100,1.517800048828125,25.60110855102539,7.519444942474365,4.856233596801758
1772905544680774400,1.5277744140625,18.95235252380371,8.520243644714355,3.6879379749298096
1772905544690736600,1.537736572265625,13.725829124450684,9.207282066345215,2.0120646953582764
1772905544700709600,1.547709716796875,10.337891578674316,9.372386932373047,0.5539384484291077
1772905544710682400,1.557682373046875,7.967800140380859,9.023035049438477,-0.2913261651992798
1772905544720655400,1.5676552734375,5.635695457458496,8.273483276367188,-0.5401797294616699
1772905544730655200,1.5776552734375,3.248854875564575,7.196115016937256,-0.2745763957500458
1772905544740630800,1.587630859375,1.7165511846542358,5.877071380615234,0.4366901218891144
1772905544750626600,1.59762646484375,1.5822539329528809,4.450051784515381,1.3728820085525513
1772905544760604400,1.6076044921875,2.3198416233062744,3.0876386165618896,2.2896320819854736
1772905544770627000,1.617626953125,2.848954439163208,1.9671993255615234,2.7804598808288574
1772905544780609500,1.627609619140625,2.355733871459961,1.1386845111846924,2.557927370071411
1772905544790456600,1.63745654296875,0.8330013751983643,0.6263213157653809,1.674377679824829
1772905544800425000,1.647425048828125,-1.135095238685608,0.38703906536102295,0.43908295035362244
1772905544810414300,1.657414306640625,-2.9042885303497314,0.36311084032058716,-0.7821539044380188
1772905544820384800,1.667384765625,-4.0441694259643555,0.4731806814670563,-1.6845471858978271
1772905544830389200,1.67738916015625,-4.441378116607666,0.5688936114311218,-2.2280170917510986
1772905544840363300,1.68736328125,-4.214059829711914,0.5401797294616699,-2.510669231414795
1772905544850357000,1.69735693359375,-3.5099716186523438,0.372682124376297,-2.5633113384246826
1772905544860333300,1.707333251953125,-2.5094728469848633,0.15972091257572174,-2.4915266036987305
1772905544870344700,1.7173447265625,-1.604387640953064,-0.10857433080673218,-2.472383975982666
1772905544880324600,1.72732470703125,-1.0393823385238647,-0.4175475537776947,-2.575275421142578
1772905544890258700,1.7372587890625,-0.8979067206382751,-0.745364248752594,-2.6255247592926025
1772905544900233700,1.747233642578125,-0.984347403049469,-1.0208379030227661,-2.386242389678955
1772905544910209300,1.757209228515625,-0.8668000102043152,-1.1859427690505981,-1.7802600860595703
1772905544920184600,1.7671845703125,-0.3735794425010681,-1.2529417276382446,-0.9568299651145935
1772905544930176300,1.77717626953125,0.3732803463935852,-1.2505489587783813,-0.1498505175113678
1772905544940153000,1.787153076171875,1.1321041584014893,-1.181157112121582,0.41994038224220276
1772905544950119400,1.797119384765625,1.673181176185608,-1.0328021049499512,0.589830756187439
1772905544960095000,1.807094970703125,1.8529419898986816,-0.7932206988334656,0.3529413342475891
1772905544970088000,1.817087890625,1.7548363208770752,-0.46779683232307434,-0.07567301392555237
1772905544980065300,1.827065185546875,1.587039589881897,-0.23300109803676605,-0.34636107087135315
1772905544990045700,1.837045654296875,1.2831511497497559,-0.09661021083593369,-0.4468596279621124
1772905545000023300,1.847023193359375,0.5551348328590393,0.09481559693813324,-0.6717849373817444
1772905545009999000,1.8569990234375,-0.3927220106124878,0.26979073882102966,-1.0357930660247803
1772905545019976700,1.866976806640625,-0.9652048349380493,0.3439682424068451,-1.2822538614273071
1772905545029986800,1.87698681640625,-0.8644071817398071,0.3846462368965149,-1.2870395183563232
1772905545039967700,1.8869677734375,-0.16301104426383972,0.3966103494167328,-1.1171491146087646
1772905545049962500,1.89696240234375,0.8401798605918884,0.37028929591178894,-0.9592227935791016
1772905545059945000,1.906945068359375,1.8385851383209229,0.2745763957500458,-0.8395816683769226
1772905545069986800,1.91698681640625,2.760420083999634,0.10438688844442368,-0.6119644045829773
1772905545079975200,1.92697509765625,3.6436707973480225,-0.03678964823484421,-0.28654050827026367
1772905545089883600,1.936883544921875,4.534399032592773,-0.06550352275371552,-0.11395817995071411
1772905545099863800,1.94686376953125,5.5998029708862305,0.0062811593525111675,-0.23599213361740112
1772905545109812500,1.9568125,7.069893836975098,0.1788634955883026,-0.40378883481025696
1772905545119789600,1.96678955078125,8.975776672363281,0.4181457459926605,-0.20967108011245728
1772905545129755100,1.976755126953125,11.211869239807129,0.7295117974281311,0.6209374666213989
1772905545139731000,1.98673095703125,13.670793533325195,1.1892328262329102,1.9235303401947021
1772905545149709800,1.996709716796875,16.071990966796875,1.8858433961868286,2.9889345169067383
1772905545159686000,2.006685791015625,17.870197296142578,3.0613174438476562,3.027219772338867
1772905545169670400,2.01667041015625,18.16212272644043,4.950450897216797,1.8421742916107178
1772905545179647200,2.026647216796875,16.00977897644043,7.540980339050293,0.1540379524230957
1772905545189628000,2.0366279296875,11.216654777526855,10.974082946777344,-0.9257232546806335
1772905545199605500,2.04660546875,5.6859450340271,14.80259895324707,0.34576287865638733
1772905545209589000,2.056589111328125,4.6372904777526855,17.290237426757812,5.043172836303711
1772905545219566800,2.06656689453125,12.46869945526123,16.533506393432617,11.196316719055176
1772905545229546800,2.076546630859375,27.59283447265625,12.104392051696777,15.477075576782227
1772905545239524900,2.08652490234375,43.990848541259766,6.0278191566467285,15.321243286132812
1772905545249500700,2.096500732421875,55.80870056152344,1.095613718032837,11.133803367614746
1772905545259478500,2.106478515625,60.216278076171875,-1.059123158454895,5.921638011932373
1772905545269466400,2.11646630859375,57.187564849853516,-0.4247260093688965,2.191526412963867
1772905545279445200,2.1264453125,48.61647415161133,1.955235242843628,0.32183465361595154
1772905545289426000,2.136426025390625,37.456947326660156,4.835595607757568,-0.5665007829666138
1772905545299405000,2.146405029296875,26.264219284057617,7.22243595123291,-0.9041878581047058
1772905545309385700,2.1563857421875,16.807186126708984,8.582456588745117,-0.31764721870422363
1772905545319364900,2.16636474609375,10.299606323242188,8.907880783081055,1.236191987991333
1772905545329362200,2.176362060546875,6.962216377258301,8.515457153320312,2.962613582611084
1772905545339343400,2.18634326171875,5.791228771209717,7.732406139373779,3.9993040561676025
1772905545349316900,2.19631689453125,5.386841773986816,6.75075101852417,4.1021952629089355
1772905545359297300,2.20629736328125,4.536791801452637,5.764309883117676,3.333501100540161
1772905545369268200,2.216268310546875,2.334198474884033,4.881059169769287,1.82063889503479
1772905545379247400,2.226247314453125,-1.013061285018921,4.002295017242432,-0.11156535893678665
1772905545389227500,2.2362275390625,-4.053740501403809,2.9536404609680176,-2.120339870452881
1772905545399207000,2.24620703125,-5.3177490234375,1.6271194219589233,-3.9065821170806885
1772905545409176600,2.256176513671875,-4.410271167755127,0.2027917206287384,-5.153841018676758
1772905545419155000,2.266155029296875,-2.212463617324829,-0.9275178909301758,-5.647061347961426
1772905545429144600,2.27614453125,-0.263509601354599,-1.4973087310791016,-5.318945407867432
1772905545439124200,2.286124267578125,0.2799602448940277,-1.485344648361206,-4.313362121582031
1772905545449113600,2.296113525390625,-0.7304090857505798,-1.028016448020935,-3.0326035022735596
1772905545459094300,2.30609423828125,-2.641077995300293,-0.3717848062515259,-1.797009825706482
1772905545469088500,2.316088623046875,-4.599603176116943,0.22193430364131927,-0.6789634227752686
1772905545479070700,2.32607080078125,-5.928217887878418,0.5856433510780334,0.2763710021972656
1772905545489044200,2.336044189453125,-6.3616180419921875,0.724726140499115,0.8988040089607239
1772905545499025400,2.346025390625,-6.110072612762451,0.7534400224685669,0.9586246013641357
1772905545509011500,2.356011474609375,-5.396712303161621,0.7462615370750427,0.4630111753940582
1772905545518993200,2.3659931640625,-4.269094467163086,0.7175477147102356,-0.3248256742954254
1772905545528968400,2.375968505859375,-2.7176482677459717,0.6529414653778076,-1.0621141195297241
1772905545538949600,2.38594970703125,-0.8620143532752991,0.5306084156036377,-1.466800332069397
1772905545548926700,2.3959267578125,1.0842477083206177,0.3774677813053131,-1.2942179441452026
1772905545558907400,2.405907470703125,2.8920252323150635,0.28175488114356995,-0.5353940725326538
1772905545568900000,2.415900146484375,4.278367042541504,0.3200400173664093,0.4223332107067108
1772905545578881800,2.4258818359375,4.862514495849609,0.4827519655227661,1.0256235599517822
1772905545588877600,2.435877685546875,4.48414945602417,0.7079764008522034,1.023230791091919
1772905545598860800,2.44586083984375,3.452244758605957,0.9424729943275452,0.5563312768936157
1772905545608846800,2.455846923828125,2.365305185317993,1.1650055646896362,-0.04695914313197136
1772905545618830300,2.465830322265625,1.714158296585083,1.3280165195465088,-0.4827519655227661
1772905545628818000,2.47581787109375,1.591825246810913,1.4261223077774048,-0.633499801158905
1772905545638802000,2.485802001953125,1.7715860605239868,1.4859428405761719,-0.5712863802909851
1772905545648771000,2.49577099609375,1.934298038482666,1.552941918373108,-0.4085744619369507
1772905545658753500,2.50575341796875,1.896012783050537,1.667797327041626,-0.20488543808460236
1772905545668735700,2.51573583984375,1.6468602418899536,1.8236299753189087,0.017647067084908485
1772905545678718200,2.52571826171875,1.256830096244812,1.9983060359954834,0.2186441719532013
1772905545688698600,2.53569873046875,0.8808578252792358,2.161017894744873,0.3433700501918793
1772905545698680800,2.545680908203125,0.6631109714508057,2.242672920227051,0.3840480446815491
1772905545708651300,2.5556513671875,0.7707880139350891,2.2235305309295654,0.3696911036968231
1772905545718632400,2.565632568359375,1.3812568187713623,2.1801605224609375,0.39840495586395264
1772905545728609500,2.575609619140625,2.609373092651367,2.192124605178833,0.6783652305603027
1772905545738590200,2.585590087890625,4.59421968460083,2.345564365386963,1.3417752981185913
1772905545748553700,2.5955537109375,7.6253275871276855,2.7140591144561768,2.4430718421936035
1772905545758532400,2.605532470703125,11.740982055664062,3.3990044593811035,3.7334015369415283
1772905545768495900,2.615495849609375,16.201204299926758,4.507479667663574,4.715056896209717
1772905545778473000,2.625472900390625,19.663318634033203,6.04456901550293,4.983352184295654
1772905545788440600,2.635440673828125,21.262622833251953,8.172985076904297,4.566701889038086
1772905545798417000,2.6454169921875,21.593130111694336,10.864012718200684,4.3055853843688965
1772905545808391000,2.655390869140625,22.770998001098633,13.55743408203125,5.339882850646973
1772905545818367000,2.665366943359375,27.125934600830078,15.396318435668945,8.246563911437988
1772905545828341200,2.67534130859375,35.702110290527344,15.513566970825195,13.101900100708008
1772905545838317000,2.685317138671875,47.66353225708008,13.370794296264648,19.89422607421875
1772905545848287500,2.69528759765625,59.29922866821289,8.73320484161377,27.723243713378906
1772905545858262800,2.7052626953125,64.82276153564453,3.2288150787353516,33.16781234741211
1772905545868245200,2.715245361328125,60.43193054199219,-0.17318053543567657,32.3249397277832
1772905545878221300,2.72522119140625,47.42873764038086,-0.39601215720176697,25.00828742980957
1772905545888198100,2.7351982421875,31.246376037597656,1.9624136686325073,14.270195960998535
1772905545898174200,2.74517431640625,17.5707950592041,5.306981563568115,3.8434712886810303
1772905545908174000,2.755174072265625,9.212666511535645,7.926225185394287,-3.796213150024414
1772905545918152700,2.765152587890625,5.269294738769531,8.800203323364258,-8.067700386047363
1772905545928149200,2.775149169921875,2.99013090133667,7.818548202514648,-9.60209846496582
1772905545938129700,2.785129638671875,0.2727817893028259,5.5728840827941895,-9.020342826843262
1772905545948119000,2.795119140625,-3.282653570175171,2.9057838916778564,-6.911069869995117
1772905545958100500,2.8051005859375,-6.806982040405273,0.36311084032058716,-4.253541469573975
1772905545968076800,2.815076904296875,-9.275477409362793,-1.72941255569458,-2.232802629470825
1772905545978057500,2.825057373046875,-10.223334312438965,-3.1253254413604736,-1.6151553392410278
1772905545988048100,2.835048095703125,-10.024730682373047,-3.824328899383545,-2.3069801330566406
1772905545998029800,2.84502978515625,-9.402297019958496,-4.047160625457764,-3.568894863128662
1772905546008021000,2.85502099609375,-8.707780838012695,-3.9463627338409424,-4.610371112823486
1772905546018003700,2.865003662109375,-7.927421569824219,-3.644867181777954,-4.983950614929199
1772905546027987500,2.874987548828125,-6.993622303009033,-3.261716365814209,-4.665405750274658
1772905546037970400,2.884970458984375,-5.897111415863037,-2.8043880462646484,-3.899104595184326
1772905546047974100,2.89497412109375,-4.860421180725098,-2.260918378829956,-3.0254251956939697
1772905546057959200,2.904959228515625,-4.166203498840332,-1.7030915021896362,-2.2830519676208496
1772905546067919400,2.91491943359375,-3.9146578311920166,-1.1955139636993408,-1.7132610082626343
1772905546077901800,2.92490185546875,-3.9218363761901855,-0.7692924737930298,-1.174576759338379
1772905546087881700,2.9348818359375,-3.8979079723358154,-0.4127618968486786,-0.4827519655227661
1772905546097864200,2.9448642578125,-3.658625841140747,-0.09900303930044174,0.3768695592880249
1772905546107849500,2.954849365234375,-3.0984063148498535,0.1501496136188507,1.2625130414962769
1772905546117832200,2.964832275390625,-2.1670000553131104,0.3152543902397156,2.055135488510132
1772905546127826400,2.974826416015625,-1.0465607643127441,0.42293140292167664,2.644068956375122
1772905546137810200,2.98481005859375,-0.057726845145225525,0.50907301902771,2.9338996410369873
1772905546147793200,2.994793212890625,0.5383850932121277,0.5952146053314209,2.893221616744995
1772905546157777000,3.00477685546875,0.6894320249557495,0.6720840334892273,2.63449764251709
1772905546167766500,3.0147666015625,0.5910272002220154,0.7366902828216553,2.3712873458862305
1772905546177751000,3.0247509765625,0.6125625967979431,0.789332389831543,2.268096685409546
1772905546187715800,3.0347158203125,0.9693922996520996,0.8228318691253662,2.3545374870300293
1772905546197698000,3.044697998046875,1.563111424446106,0.8659027218818665,2.469393014907837
1772905546207659000,3.054658935546875,2.0659031867980957,0.9376873970031738,2.4526431560516357
1772905546217639200,3.06463916015625,2.214557409286499,1.0310074090957642,2.268096685409546
1772905546227618000,3.0746181640625,2.0252251625061035,1.1123634576797485,1.9857436418533325
1772905546237598000,3.084597900390625,1.7285152673721313,1.1315059661865234,1.7461622953414917
1772905546247580200,3.094580078125,1.6277176141738892,1.0980064868927002,1.6169499158859253
1772905546257560300,3.104560302734375,1.7572290897369385,1.0214362144470215,1.5332010984420776
1772905546267555000,3.11455517578125,2.020439624786377,0.9376873970031738,1.456630825996399
1772905546277536800,3.124536865234375,2.2791635990142822,0.9927222728729248,1.3417752981185913
1772905546287524400,3.1345244140625,2.2983062267303467,1.3663017749786377,1.023230791091919
1772905546297506600,3.144506591796875,2.2265214920043945,1.7973089218139648,0.8174480199813843
1772905546307500500,3.15450048828125,2.5088746547698975,2.082054853439331,1.0064810514450073
1772905546317484000,3.164484130859375,3.6269209384918213,2.177767753601074,1.5858432054519653
1772905546327463700,3.174463623046875,5.709873199462891,2.1466610431671143,2.2968106269836426
1772905546337447000,3.184447021484375,8.523234367370605,2.1969103813171387,2.907578706741333
1772905546347441700,3.194441650390625,11.860623359680176,2.558525562286377,3.549154281616211
1772905546357426000,3.204426025390625,15.5596284866333,3.2650065422058105,4.396512508392334
1772905546367401700,3.214401611328125,19.531713485717773,4.229613304138184,5.399703502655029
1772905546377385000,3.224385009765625,23.407787322998047,5.6590256690979,6.273681640625
1772905546387362300,3.2343623046875,27.1812686920166,7.550551891326904,7.456334590911865
1772905546397345000,3.244344970703125,31.98874855041504,9.106783866882324,10.226624488830566
1772905546407290600,3.25429052734375,39.041893005371094,9.204889297485352,15.711572647094727
1772905546417269500,3.26426953125,47.92195510864258,7.392326354980469,23.583660125732422
1772905546427248000,3.274248046875,55.676795959472656,4.366302967071533,31.71686363220215
1772905546437227000,3.28422705078125,58.17879104614258,1.6055840253829956,37.1877555847168
1772905546447282000,3.294281982421875,53.29952621459961,0.4061816334724426,37.436607360839844
1772905546457268500,3.3042685546875,42.78426742553711,1.0716854333877563,32.09523010253906
1772905546467191000,3.31419091796875,30.92095184326172,2.939283609390259,23.215166091918945
1772905546477171200,3.324171142578125,21.51177406311035,5.024628639221191,13.578371047973633
1772905546487152000,3.334152099609375,16.002599716186523,6.600003242492676,5.246562957763672
1772905546497132300,3.34413232421875,13.56760311126709,7.301399230957031,-0.8012964725494385
1772905546507100200,3.35410009765625,12.315559387207031,7.040581703186035,-4.466801643371582
1772905546517079300,3.364079345703125,10.689934730529785,5.9129638671875,-6.0972113609313965
1772905546527067400,3.3740673828125,7.835896015167236,4.17936372756958,-6.0110697746276855
1772905546537047300,3.38404736328125,3.4785659313201904,2.221137523651123,-4.548157691955566
1772905546547033300,3.394033447265625,-1.7048860788345337,0.43489551544189453,-2.3670997619628906
1772905546557013800,3.404013671875,-6.328118801116943,-0.9155537486076355,-0.39900317788124084
1772905546567020000,3.41402001953125,-9.167501449584961,-1.8323038816452026,0.5204389095306396
1772905546577003300,3.424003173828125,-9.77109146118164,-2.4308087825775146,0.05114658549427986
1772905546586967000,3.433967041015625,-8.513961791992188,-2.7876384258270264,-1.4715858697891235
1772905546596948200,3.4439482421875,-6.232405662536621,-2.950350284576416,-3.3723843097686768
1772905546606931500,3.453931396484375,-4.01037073135376,-2.9144580364227295,-5.091627597808838
1772905546616913000,3.463912841796875,-2.8492536544799805,-2.6967110633850098,-6.243173599243164
1772905546626889700,3.4738896484375,-3.179762125015259,-2.3422741889953613,-6.664609432220459
1772905546636870700,3.48387060546875,-4.712066173553467,-1.8801604509353638,-6.499504566192627
1772905546646844700,3.4938447265625,-6.74237585067749,-1.3797613382339478,-6.075675964355469
1772905546656825000,3.5038251953125,-8.549854278564453,-0.9032905697822571,-5.639883041381836
1772905546666817300,3.5138173828125,-9.557830810546875,-0.49651068449020386,-5.1442694664001465
1772905546676798700,3.523798828125,-9.442975044250488,-0.18514464795589447,-4.416253089904785
1772905546686763500,3.533763427734375,-8.265108108520508,0.01585244946181774,-3.4085757732391357
1772905546696743200,3.5437431640625,-6.301797389984131,0.07806584239006042,-2.2136600017547607
1772905546706732300,3.553732177734375,-3.9194436073303223,0.03738785535097122,-1.069292664527893
1772905546716713000,3.563712890625,-1.542174220085144,-0.06550352275371552,-0.17617157101631165
1772905546726712800,3.573712890625,0.42831525206565857,-0.1540379524230957,0.3720839321613312
1772905546736695300,3.5836953125,1.714158296585083,-0.1779661774635315,0.592223584651947
1772905546746648300,3.5936484375,2.228914260864258,-0.1301097273826599,0.5874379873275757
1772905546756628000,3.6036279296875,2.123331069946289,-0.022432712838053703,0.4821537733078003
1772905546766626800,3.613626708984375,1.6974085569381714,0.11395817995071411,0.381655216217041
1772905546776608500,3.6236083984375,1.2496516704559326,0.24107688665390015,0.3720839321613312
1772905546786578400,3.633578369140625,0.9311071038246155,0.33918261528015137,0.486939400434494
1772905546796558800,3.643558837890625,0.7468597888946533,0.41096729040145874,0.6640082597732544
1772905546806541600,3.65354150390625,0.5575276613235474,0.4995017349720001,0.7645068168640137
1772905546816522000,3.66352197265625,0.2632105052471161,0.5952146053314209,0.6831508874893188
1772905546826507800,3.6735078125,-0.08165507018566132,0.667298436164856,0.40797626972198486
1772905546836489000,3.683489013671875,-0.3089732229709625,0.6960122585296631,0.03678964823484421
1772905546846466000,3.693466064453125,-0.26590242981910706,0.6888338327407837,-0.2503490746021271
1772905546856447000,3.703447021484375,0.05234299600124359,0.6720840334892273,-0.30568310618400574
1772905546866413300,3.713413330078125,0.5670989751815796,0.6287141442298889,-0.054137613624334335
1772905546876392700,3.723392822265625,1.2065808773040771,0.6095715761184692,0.4582255482673645
1772905546886376400,3.73337646484375,1.92951238155365,0.7223333120346069,1.054337501525879
1772905546896356400,3.7433564453125,2.839383125305176,0.8994022011756897,1.638485312461853
1772905546906323500,3.753323486328125,4.134498596191406,1.0501500368118286,2.246561288833618
1772905546916301800,3.7633017578125,6.035595893859863,1.184447169303894,3.0296125411987305
1772905546926300200,3.773300048828125,8.669196128845215,1.2873386144638062,4.3055853843688965
1772905546936280600,3.783280517578125,12.001800537109375,1.2323036193847656,6.501298904418945
1772905546946244000,3.793244140625,15.835102081298828,0.9185447692871094,9.584750175476074
1772905546956223000,3.803222900390625,19.424036026000977,0.669691264629364,12.91047477722168
1772905546966206000,3.8132060546875,22.454845428466797,0.758225679397583,16.487445831298828
1772905546976185300,3.823185302734375,25.727928161621094,1.1988041400909424,20.883060455322266
1772905546986168600,3.83316845703125,30.135507583618164,1.545763373374939,26.42812728881836
1772905546996148200,3.843148193359375,36.24079513549805,0.9855438470840454,32.87080383300781
1772905547006137900,3.853137939453125,43.72733688354492,-0.8721838593482971,38.89952087402344
1772905547016118500,3.863118408203125,50.63481903076172,-3.3430724143981934,41.98326873779297
1772905547026118400,3.873118408203125,54.21418380737305,-5.052444934844971,39.878780364990234
1772905547036101000,3.88310107421875,53.00969696044922,-5.203492164611816,32.90190887451172
1772905547046096100,3.89309619140625,47.50082015991211,-3.7286159992218018,23.499910354614258
1772905547056080000,3.903079833984375,39.43939971923828,-1.1668001413345337,14.545669555664062
1772905547066062800,3.913062744140625,30.616764068603516,1.7422740459442139,7.88494873046875
1772905547076046600,3.923046630859375,22.045673370361328,4.339982032775879,3.9514474868774414
1772905547086044200,3.933044189453125,14.350654602050781,6.085247039794922,2.1412770748138428
1772905547096029400,3.943029541015625,8.274081230163574,6.700501441955566,1.4327025413513184
1772905547106007600,3.953007568359375,4.215854167938232,6.3101725578308105,0.8940183520317078
1772905547115992000,3.962991943359375,1.8577276468276978,5.318945407867432,0.012861421331763268
1772905547125968400,3.972968505859375,0.42352959513664246,4.121936321258545,-1.2320045232772827
1772905547135952000,3.982951904296875,-0.768694281578064,2.9512476921081543,-2.441277265548706
1772905547145928000,3.992927978515625,-1.8987047672271729,1.9360926151275635,-3.2216365337371826
1772905547155911000,4.002910888671875,-2.7559335231781006,1.1673983335494995,-3.5736806392669678
1772905547165872600,4.01287255859375,-3.1845479011535645,0.6406782865524292,-3.6191442012786865
1772905547175853300,4.022853271484375,-3.22761869430542,0.3152543902397156,-3.456432342529297
1772905547185834000,4.032833984375,-2.9904301166534424,0.125922292470932,-3.171387195587158
1772905547195814700,4.042814697265625,-2.5094728469848633,-0.05114658549427986,-2.862713098526001
1772905547205792000,4.0527919921875,-1.8532410860061646,-0.22103698551654816,-2.65423846244812
1772905547215772400,4.0627724609375,-1.3001999855041504,-0.33110684156417847,-2.627917528152466
1772905547225744400,4.072744384765625,-1.2355937957763672,-0.3287140130996704,-2.8073792457580566
1772905547235723800,4.082723876953125,-1.781456470489502,-0.19950158894062042,-3.1259236335754395
1772905547245698300,4.0926982421875,-2.7774689197540283,0.032602209597826004,-3.451646566390991
1772905547255677200,4.10267724609375,-3.9218363761901855,0.3415754437446594,-3.631108283996582
1772905547265656600,4.112656494140625,-4.896313190460205,0.6529414653778076,-3.5880374908447266
1772905547275635700,4.1226357421875,-5.423033237457275,0.8730811476707458,-3.2575290203094482
1772905547285615900,4.132615966796875,-5.332106113433838,0.9305089116096497,-2.5776681900024414
1772905547295595000,4.142594970703125,-4.5684967041015625,0.7989036440849304,-1.6390835046768188
1772905547305579800,4.152579833984375,-3.182155132293701,0.5042873620986938,-0.7627122402191162
1772905547315559700,4.1625595703125,-1.3695918321609497,0.11874382197856903,-0.25752753019332886
1772905547325533400,4.172533447265625,0.4378865361213684,-0.24017956852912903,-0.25752753019332886
1772905547335512600,4.1825126953125,1.690230131149292,-0.49172505736351013,-0.6574280261993408
1772905547345692700,4.192692626953125,2.089831590652466,-0.6161518096923828,-1.1602199077606201
1772905547355798500,4.202798583984375,1.7835501432418823,-0.5994020700454712,-1.459621787071228
1772905547365618400,4.212618408203125,1.1778669357299805,-0.4701896607875824,-1.3543375730514526
1772905547375438000,4.22243798828125,0.5910272002220154,-0.27367907762527466,-0.9017950296401978
1772905547385417700,4.232417724609375,0.1459621787071228,-0.08703892678022385,-0.3487538993358612
1772905547395393300,4.242393310546875,-0.12711870670318604,0.032602209597826004,0.11814561486244202
1772905547405375500,4.25237548828125,-0.2754737138748169,0.12831512093544006,0.4414757788181305
1772905547415351800,4.262351806640625,-0.39990049600601196,0.2147558331489563,0.4486542344093323
1772905547425354000,4.27235400390625,-0.5676971673965454,0.20039889216423035,0.12293126434087753
1772905547435332900,4.282332763671875,-0.649053156375885,0.12113664299249649,-0.3152543902397156
1772905547445325000,4.292324951171875,-0.44327038526535034,0.05892325937747955,-0.5401797294616699
1772905547455305200,4.30230517578125,0.08823533356189728,0.054137613624334335,-0.30568310618400574
1772905547465290000,4.3122900390625,0.7612167000770569,0.14057832956314087,0.28594231605529785
1772905547475270700,4.322270751953125,1.4195420742034912,0.31764721870422363,0.905982494354248
1772905547485254000,4.33225390625,2.11615252494812,0.47796630859375,1.4685949087142944
1772905547495234800,4.34223486328125,3.0427730083465576,0.5282155871391296,2.064706802368164
1772905547505218600,4.352218505859375,4.515256404876709,0.5497509837150574,2.667997360229492
1772905547515199700,4.36219970703125,6.6245293617248535,0.7295117974281311,3.1301112174987793
1772905547525183500,4.37218359375,9.078668594360352,1.196411371231079,3.4749767780303955
1772905547535165000,4.3821650390625,11.482258796691895,1.979163408279419,3.8434712886810303
1772905547545145600,4.3921455078125,13.807185173034668,3.0708887577056885,4.250550270080566
1772905547555127000,4.402126953125,16.273286819458008,4.383052825927734,4.504488468170166
1772905547565103900,4.412103759765625,18.844675064086914,5.694917678833008,4.6408796310424805
1772905547575084800,4.422084716796875,21.43998908996582,6.75075101852417,5.382953643798828
1772905547585064000,4.43206396484375,24.705595016479492,7.265506744384766,7.719843864440918
1772905547595044900,4.442044921875,29.75983428955078,7.031010150909424,11.790035247802734
1772905547605015300,4.452015380859375,36.504005432128906,6.034997940063477,17.028522491455078
1772905547614995000,4.461994873046875,42.90629959106445,4.521836757659912,22.264616012573242
1772905547624982300,4.471982177734375,46.126441955566406,3.0493533611297607,25.85594367980957
1772905547634963000,4.481962890625,44.69702911376953,2.213959217071533,26.47119903564453
1772905547644943400,4.491943359375,39.67658996582031,2.3503501415252686,23.88066864013672
1772905547654923800,4.501923828125,33.667015075683594,3.308077335357666,19.092330932617188
1772905547664916000,4.511916015625,28.89781951904297,4.655834674835205,13.671690940856934
1772905547674897400,4.5218974609375,26.192434310913086,5.939284801483154,8.912068367004395
1772905547684884500,4.531884521484375,24.873092651367188,6.8033928871154785,5.325525760650635
1772905547694866700,4.54186669921875,23.530120849609375,7.042974472045898,2.801995277404785
1772905547704846800,4.551846923828125,21.142980575561523,6.631109714508057,1.0088738203048706
1772905547714829000,4.5618291015625,17.577974319458008,5.735595703125,-0.22402802109718323
1772905547724799500,4.571799560546875,13.34985637664795,4.564907550811768,-0.88025963306427
1772905547734780400,4.581780517578125,9.071489334106445,3.339184045791626,-1.0908280611038208
1772905547744754400,4.59175439453125,5.118546962738037,2.12751841545105,-1.0405787229537964
1772905547754734300,4.601734375,1.695015788078308,0.9065806865692139,-0.877866804599762
1772905547764715000,4.611715087890625,-0.9508479237556458,-0.24496522545814514,-0.8156534433364868
1772905547774695200,4.621695068359375,-2.602792739868164,-1.2170493602752686,-1.1123634576797485
1772905547784674600,4.631674560546875,-3.158226728439331,-1.913659930229187,-1.8595223426818848
1772905547794654700,4.64165478515625,-2.7702903747558594,-2.2561326026916504,-2.96321177482605
1772905547804631300,4.65163134765625,-1.8652052879333496,-2.301596164703369,-4.236791610717773
1772905547814611200,4.661611083984375,-1.0345966815948486,-2.174776792526245,-5.551348686218262
1772905547824591000,4.671591064453125,-0.7615157961845398,-1.9857436418533325,-6.769893646240234
1772905547834570800,4.68157080078125,-1.2212368249893188,-1.7892330884933472,-7.706085205078125
1772905547844567300,4.6915673828125,-2.226820468902588,-1.5882359743118286,-8.149056434631348
1772905547854548700,4.701548828125,-3.361616611480713,-1.3725829124450684,-8.009973526000977
1772905547864539000,4.711538818359375,-4.3193440437316895,-1.1380863189697266,-7.428218841552734
1772905547874521300,4.721521240234375,-5.049454212188721,-0.8937192559242249,-6.6693949699401855
1772905547884503000,4.7315029296875,-5.715256690979004,-0.6664010882377625,-5.907878875732422
1772905547894485500,4.741485595703125,-6.39511775970459,-0.46061834692955017,-5.223232746124268
1772905547904469500,4.751469482421875,-6.938587665557861,-0.29042884707450867,-4.598406791687012
1772905547914452000,4.761451904296875,-7.132406234741211,-0.1779661774635315,-3.9209389686584473
1772905547924417300,4.771417236328125,-6.93619441986084,-0.1372881978750229,-3.1402807235717773
1772905547934398000,4.78139794921875,-6.373582363128662,-0.1899302899837494,-2.2974088191986084
1772905547944396300,4.791396240234375,-5.389533996582031,-0.2952145040035248,-1.4739787578582764
1772905547954378800,4.801378662109375,-4.046562194824219,-0.4007977843284607,-0.7316055297851562
1772905547964338400,4.81133837890625,-2.6458635330200195,-0.503689169883728,-0.0972084179520607
1772905547974318600,4.821318603515625,-1.4991034269332886,-0.6089733839035034,0.32183465361595154
1772905547984300800,4.83130078125,-0.7926225066184998,-0.6975077986717224,0.4247260093688965
1772905547994281200,4.84128125,-0.5581258535385132,-0.7549355626106262,0.2353939265012741
1772905548004244700,4.85124462890625,-0.6801598072052002,-0.7908278703689575,-0.09002995491027832
1772905548014223400,4.861223388671875,-0.9098708033561707,-0.8291130661964417,-0.3152543902397156
1772905548024205800,4.871205810546875,-0.9628120064735413,-0.8721838593482971,-0.2192423790693283
1772905548034185000,4.88118505859375,-0.6394818425178528,-0.900897741317749,0.19950158894062042
1772905548044170200,4.891170166015625,0.05473581701517105,-0.8769695162773132,0.7214360237121582
1772905548054150000,4.90114990234375,0.885643482208252,-0.7836494445800781,1.1165509223937988
1772905548064137500,4.911137451171875,1.5846468210220337,-0.623330295085907,1.3058829307556152
1772905548074118000,4.921117919921875,2.0491535663604736,-0.4534398913383484,1.4279168844223022
1772905548084092400,4.931092529296875,2.4370899200439453,-0.31435707211494446,1.7533408403396606
1772905548094072300,4.941072265625,3.277568817138672,-0.29760730266571045,2.5674986839294434
1772905548104048600,4.951048583984375,5.223830699920654,-0.3885345757007599,3.9131622314453125
1772905548114028000,4.961028076171875,8.609375953674316,-0.39840495586395264,5.541179180145264
1772905548124007400,4.97100732421875,13.29721450805664,-0.3334996700286865,7.305586814880371
1772905548133986800,4.98098681640625,19.239490509033203,-0.3119642436504364,9.175577163696289
1772905548143969500,4.990969482421875,26.692832946777344,-0.4821537733078003,11.210673332214355
1772905548153949400,5.000949462890625,35.32613754272461,-1.0256235599517822,13.774582862854004
1772905548163946000,5.010946044921875,43.58855438232422,-1.8897316455841064,17.43560218811035
1772905548173927400,5.020927490234375,49.399227142333984,-2.9168508052825928,22.499113082885742
1772905548183889700,5.0308896484375,51.3745002746582,-3.929612874984741,28.62354278564453
1772905548193869300,5.040869384765625,49.47340393066406,-4.693521499633789,34.532318115234375
1772905548203851300,5.050851318359375,45.34339141845703,-5.102993488311768,38.27947998046875
1772905548213831000,5.060830810546875,41.36921310424805,-5.2130632400512695,38.02553939819336
1772905548223798000,5.070798095703125,38.86960983276367,-5.018945693969727,33.0457763671875
1772905548233776400,5.0807763671875,37.6247444152832,-4.430012226104736,24.517459869384766
1772905548243763200,5.09076318359375,36.45854187011719,-3.357429265975952,14.83789348602295
1772905548253742300,5.100742431640625,34.02145004272461,-1.8490537405014038,6.25932502746582
1772905548263722200,5.11072216796875,29.54178810119629,-0.16121642291545868,0.125324085354805
1772905548273701600,5.12070166015625,23.27379035949707,1.3208380937576294,-3.3077781200408936
1772905548283674000,5.130674072265625,16.266109466552734,2.268994092941284,-4.579264163970947
1772905548293652700,5.14065283203125,9.882955551147461,2.575275421142578,-4.603192329406738
1772905548303636700,5.15063671875,5.1544389724731445,2.345564365386963,-4.253541469573975
1772905548313616000,5.160615966796875,2.23848557472229,1.775773525238037,-4.136292934417725
1772905548323592200,5.17059228515625,0.5216353535652161,1.0070792436599731,-4.454837322235107
1772905548333571000,5.180571044921875,-0.582054078578949,0.10199406743049622,-5.01505708694458
1772905548343569000,5.19056884765625,-1.1925230026245117,-0.8721838593482971,-5.635097503662109
1772905548353549800,5.2005498046875,-1.3432707786560059,-1.8323038816452026,-6.2240309715271
1772905548363505400,5.21050537109375,-1.2882359027862549,-2.6943182945251465,-6.540182590484619
1772905548373483800,5.22048388671875,-1.3695918321609497,-3.331108331680298,-6.3723859786987305
1772905548383464700,5.230464599609375,-1.9130617380142212,-3.582653760910034,-5.773880958557129
1772905548393443300,5.240443359375,-3.10319185256958,-3.37896466255188,-5.00787878036499
1772905548403393300,5.250393310546875,-4.90109920501709,-2.7900311946868896,-4.351646900177002
1772905548413368800,5.260368896484375,-6.981658458709717,-2.002493381500244,-3.904189348220825
1772905548423363600,5.270363525390625,-8.815756797790527,-1.2577273845672607,-3.4755749702453613
1772905548433341000,5.2803408203125,-9.952945709228516,-0.7381857633590698,-2.877070188522339
1772905548443301000,5.290301025390625,-10.182656288146973,-0.503689169883728,-2.271087884902954
1772905548453277000,5.30027685546875,-9.591330528259277,-0.5659025311470032,-1.955235242843628
1772905548463248400,5.310248291015625,-8.511569023132324,-0.8697910308837891,-2.05812668800354
1772905548473223700,5.3202236328125,-7.290631294250488,-1.291226863861084,-2.3670997619628906
1772905548483205400,5.330205322265625,-6.110072612762451,-1.7126628160476685,-2.5058834552764893
1772905548493181200,5.34018115234375,-5.0638108253479,-2.088634967803955,-2.2495524883270264
1772905548503138300,5.35013818359375,-4.182952880859375,-2.41166615486145,-1.679761528968811
1772905548513112600,5.360112548828125,-3.447758436203003,-2.6273193359375,-1.150648593902588
1772905548523101700,5.370101806640625,-2.8420751094818115,-2.720639228820801,-1.0238289833068848
1772905548533077200,5.3800771484375,-2.3297119140625,-2.6871397495269775,-1.3950155973434448
1772905548543074800,5.39007470703125,-1.841277003288269,-2.5435705184936523,-2.0844476222991943
1772905548553052700,5.400052734375,-1.348056435585022,-2.3183460235595703,-2.7978079319000244
1772905548563023000,5.410023193359375,-0.9508479237556458,-2.024028778076172,-3.279064416885376
1772905548573000200,5.420000244140625,-0.8117650747299194,-1.662413477897644,-3.3556346893310547
1772905548582976800,5.429976806640625,-1.0657033920288086,-1.231406331062317,-3.0254251956939697
1772905548592953900,5.439953857421875,-1.7288143634796143,-0.8051848411560059,-2.4053850173950195
1772905548602931000,5.449930908203125,-2.617149829864502,-0.486939400434494,-1.6773686408996582
1772905548612908000,5.459907958984375,-3.344866991043091,-0.33828529715538025,-0.999900758266449
1772905548622888700,5.469888671875,-3.538984775543213,-0.3717848062515259,-0.45643091201782227
1772905548632866000,5.479865966796875,-2.9904301166534424,-0.5180460810661316,-0.09481559693813324
1772905548642816500,5.48981640625,-1.7742780447006226,-0.6400800347328186,0.07986045628786087
1772905548652791300,5.499791259765625,-0.20129621028900146,-0.6065805554389954,0.16360925137996674
1772905548662793500,5.50979345703125,1.2855439186096191,-0.3239283561706543,0.4175475537776947
1772905548672770800,5.519770751953125,2.3748764991760254,0.27696922421455383,1.0328021049499512
1772905548682751200,5.529751220703125,3.2222347259521484,1.1700903177261353,1.7868403196334839
1772905548692729000,5.53972900390625,4.215854167938232,2.2307088375091553,2.2585253715515137
1772905548702665700,5.549665771484375,5.6069817543029785,3.2288150787353516,2.2393829822540283
1772905548712639200,5.55963916015625,7.792825222015381,3.8994035720825195,1.9977078437805176
1772905548722621200,5.56962109375,11.374581336975098,4.131507396697998,2.2968106269836426
1772905548732595500,5.579595458984375,16.75693702697754,3.9927237033843994,4.224229335784912
1772905548742575400,5.589575439453125,24.260231018066406,3.497110366821289,8.222636222839355
1772905548752550400,5.59955029296875,34.29423141479492,2.4053850173950195,13.695619583129883
1772905548762546000,5.6095458984375,46.4234504699707,0.45643091201782227,19.79612159729004
1772905548782514400,5.629514404296875,69.40770721435547,-4.683950424194336,31.506296157836914
1772905548792493000,5.6394931640625,76.1258544921875,-6.836294174194336,36.102909088134766
1772905548802477000,5.64947705078125,77.10272979736328,-8.459525108337402,38.27947998046875
1772905548812456400,5.65945654296875,70.7770004272461,-9.376574516296387,36.51716613769531
1772905548822450700,5.66945068359375,57.644893646240234,-9.268898010253906,30.591638565063477
1772905548832431400,5.679431396484375,40.631622314453125,-7.9758758544921875,21.991535186767578
1772905548842403000,5.689403076171875,23.841188430786133,-5.866602897644043,13.094721794128418
1772905548852382700,5.6993828125,10.938788414001465,-3.690330743789673,5.8235321044921875
1772905548862380500,5.709380615234375,3.638885021209717,-2.095813512802124,0.6927221417427063
1772905548872362200,5.7193623046875,1.0507482290267944,-1.2792627811431885,-2.836092948913574
1772905548882355200,5.729355224609375,0.8832506537437439,-1.0686944723129272,-5.268696308135986
1772905548892338000,5.739337890625,0.9646066427230835,-1.181157112121582,-6.76510763168335
1772905548902301700,5.7493017578125,-0.036191441118717194,-1.3965110778808594,-7.495217800140381
1772905548912282600,5.75928271484375,-2.6291139125823975,-1.6480566263198853,-7.511967658996582
1772905548922345200,5.76934521484375,-6.545865535736084,-1.949552297592163,-6.722036838531494
1772905548932334300,5.779334228515625,-10.762019157409668,-2.2896320819854736,-5.347659587860107
1772905548942216000,5.7892158203125,-13.89123249053955,-2.715853691101074,-4.0166521072387695
1772905548952194000,5.799194091796875,-14.899209022521973,-3.3598220348358154,-3.271885871887207
1772905548962154000,5.809154052734375,-13.551451683044434,-4.221836566925049,-3.3364920616149902
1772905548972130000,5.819130126953125,-10.441380500793457,-5.119743347167969,-4.145864486694336
1772905548982110000,5.82910986328125,-6.751947402954102,-5.8235321044921875,-5.383552074432373
1772905548992086800,5.839086669921875,-3.6610186100006104,-6.146862506866455,-6.585646152496338
1772905549002062600,5.8490625,-1.841277003288269,-5.967101573944092,-7.313363075256348
1772905549012039200,5.8590390625,-1.4318052530288696,-5.308775901794434,-7.4138617515563965
1772905549022019000,5.86901904296875,-2.2627129554748535,-4.3055853843688965,-7.011568546295166
1772905549031996000,5.878995849609375,-3.8883368968963623,-3.110968589782715,-6.166603088378906
1772905549041973500,5.888973388671875,-5.710471153259277,-1.8442680835723877,-4.840082168579102
1772905549051950600,5.89895068359375,-7.276274681091309,-0.656829833984375,-3.1594231128692627
1772905549061947400,5.908947509765625,-8.403892517089844,0.31046873331069946,-1.526620864868164
1772905549071926300,5.91892626953125,-9.117252349853516,0.968794047832489,-0.3774677813053131
1772905549081890600,5.928890625,-9.411869049072266,1.275374412536621,0.14685949683189392
1772905549091868000,5.938867919921875,-9.17707347869873,1.2418749332427979,0.31465616822242737
1772905549101864700,5.94886474609375,-8.26989459991455,0.9951151013374329,0.50129634141922
1772905549111844000,5.958843994140625,-6.7280192375183105,0.6984050869941711,0.836590588092804
1772905549121844200,5.96884423828125,-4.905884742736816,0.47557350993156433,1.114158034324646
1772905549131826000,5.978825927734375,-3.244368314743042,0.3607180118560791,0.9825528264045715
1772905549141892000,5.98889208984375,-2.140678882598877,0.3607180118560791,0.3601198196411133
1772905549151882200,5.99888232421875,-1.8293129205703735,0.43968117237091064,-0.3846462368965149
1772905549161830700,6.00883056640625,-2.186142683029175,0.511465847492218,-0.7292127013206482
1772905549171816400,6.01881640625,-2.7463622093200684,0.4731806814670563,-0.41096729040145874
1772905549181806300,6.028806396484375,-2.815753936767578,0.2841476798057556,0.4414757788181305
1772905549191792600,6.038792724609375,-1.6067804098129272,-0.03918246924877167,1.5068800449371338
1772905549201829400,6.048829345703125,1.745265007019043,-0.486939400434494,2.651247501373291
1772905549211821000,6.058821044921875,7.337889671325684,-0.8267202377319336,3.896113395690918
1772905549221825800,6.06882568359375,13.857434272766113,-0.8889335989952087,5.3231329917907715
1772905549231818800,6.07881884765625,19.263418197631836,-0.7334001660346985,7.087839603424072
1772905549241787000,6.088786865234375,22.342382431030273,-0.4486542344093323,9.223434448242188
1772905549251777500,6.098777587890625,23.09911346435547,-0.13250255584716797,11.27527904510498
1772905549261803800,6.1088037109375,22.383060455322266,0.20997019112110138,12.434003829956055
1772905549271798000,6.118798095703125,21.693628311157227,0.7319046258926392,12.38375473022461
1772905549281793800,6.128793701171875,22.49821662902832,1.2945170402526855,11.933605194091797
1772905549291788000,6.1387880859375,25.790142059326172,1.3591232299804688,12.36700439453125
1772905549301798700,6.148798583984375,32.01506805419922,0.542572557926178,14.634203910827637
1772905549311794700,6.158794677734375,40.78984832763672,-1.2385848760604858,18.64936065673828
1772905549321614600,6.168614501953125,50.498130798339844,-3.7956149578094482,23.203201293945312
1772905549331472100,6.17847216796875,58.18357467651367,-6.477071762084961,26.60041046142578
1772905549341494300,6.188494384765625,60.53482437133789,-8.370990753173828,27.665815353393555
1772905549351466800,6.198466796875,56.0958366394043,-8.825926780700684,26.35395050048828
1772905549361505800,6.208505859375,46.29872512817383,-7.715058326721191,23.51187515258789
1772905549371485200,6.218485107421875,34.51706314086914,-5.476273536682129,20.02852439880371
1772905549381524000,6.22852392578125,24.03530502319336,-2.8115665912628174,16.372291564941406
1772905549391509500,6.238509521484375,16.629817962646484,-0.40319061279296875,12.706785202026367
1772905549401504800,6.2485048828125,12.310773849487305,1.2945170402526855,9.127720832824707
1772905549411491600,6.25849169921875,9.973882675170898,2.098804473876953,5.914459228515625
1772905549421501200,6.268501220703125,8.231010437011719,2.041376829147339,3.4438700675964355
1772905549431490000,6.278489990234375,6.140880107879639,1.3232308626174927,1.8637096881866455
1772905549441310200,6.288310302734375,3.5264222621917725,0.20757736265659332,0.9658030271530151
1772905549451178500,6.298178466796875,0.9071788787841797,-1.0663015842437744,0.16121642291545868
1772905549461358600,6.308358642578125,-1.0082756280899048,-2.299203395843506,-1.1578270196914673
1772905549471449300,6.318449462890625,-1.9465612173080444,-3.292823076248169,-3.145066261291504
1772905549481441300,6.328441162109375,-2.188535451889038,-3.8434712886810303,-5.452943801879883
1772905549491442000,6.33844189453125,-2.2531416416168213,-3.8626139163970947,-7.488039493560791
1772905549501434400,6.348434326171875,-2.4756741523742676,-3.4866416454315186,-8.656634330749512
1772905549511427000,6.358427001953125,-3.0122644901275635,-2.9216363430023193,-8.745168685913086
1772905549521594600,6.3685947265625,-4.087240219116211,-2.347059965133667,-7.945367813110352
1772905549531599000,6.37859912109375,-5.717649936676025,-1.8131613731384277,-6.583253383636475
1772905549541603800,6.388603759765625,-7.563413143157959,-1.2816556692123413,-4.969593524932861
1772905549551418400,6.39841845703125,-9.134002685546875,-0.7357929348945618,-3.4061830043792725
1772905549561409800,6.408409912109375,-10.012765884399414,-0.20907287299633026,-2.1658036708831787
1772905549571401200,6.418401123046875,-9.981659889221191,0.27696922421455383,-1.4189438819885254
1772905549581422800,6.4284228515625,-9.100502967834473,0.6744768619537354,-1.1075778007507324
1772905549591416300,6.438416259765625,-7.716853141784668,0.9257232546806335,-0.9233304262161255
1772905549601410000,6.44841015625,-6.1797637939453125,1.1075778007507324,-0.8347960114479065
1772905549611432200,6.45843212890625,-4.712066173553467,1.2083754539489746,-1.0046863555908203
1772905549621427700,6.468427734375,-3.399901866912842,1.1530413627624512,-1.2607184648513794
1772905549631423200,6.47842333984375,-2.186142683029175,1.0070792436599731,-1.3399807214736938
1772905549641243100,6.4882431640625,-0.8979067206382751,0.8276175260543823,-1.1219347715377808
1772905549651099600,6.498099609375,0.5335994362831116,0.631106972694397,-0.6789634227752686
1772905549660919600,6.50791943359375,2.0156540870666504,0.4205385744571686,-0.08285148441791534
1772905549670753800,6.51775390625,3.363710403442383,0.20757736265659332,0.5395814776420593
1772905549680800800,6.52780078125,4.369294166564941,0.0038883367087692022,1.0734800100326538
1772905549690757600,6.537757568359375,4.802694320678711,-0.1540379524230957,1.4087743759155273
1772905549700797700,6.547797607421875,4.524827480316162,-0.26171496510505676,1.5236297845840454
1772905549710763300,6.55776318359375,3.6436707973480225,-0.30957141518592834,1.4877375364303589
1772905549720759600,6.567759521484375,2.441875457763672,-0.27367907762527466,1.4015958309173584
1772905549730728400,6.577728515625,1.2161520719528198,-0.14685949683189392,1.2960125207901
1772905549740679200,6.58767919921875,0.16271193325519562,0.030209386721253395,1.169192910194397
1772905549750646000,6.59764599609375,-0.5748756527900696,0.22193430364131927,1.023230791091919
1772905549760694300,6.6076943359375,-0.9146564602851868,0.4013960063457489,0.9275178909301758
1772905549770669600,6.617669677734375,-0.9026923179626465,0.5808576941490173,0.9658030271530151
1772905549780623600,6.62762353515625,-0.582054078578949,0.7654041647911072,1.2098709344863892
1772905549790596900,6.637596923828125,0.002093719784170389,0.8922237157821655,1.7174484729766846
1772905549800606200,6.647606201171875,0.8377870321273804,0.9376873970031738,2.3784656524658203
1772905549810583000,6.6575830078125,2.0228323936462402,0.968794047832489,3.024827003479004
1772905549820547800,6.6675478515625,3.7298123836517334,1.0453643798828125,3.6951162815093994
1772905549830523400,6.6775234375,5.96381139755249,1.275374412536621,4.497310161590576
1772905549840493800,6.687493896484375,8.269295692443848,1.7925232648849487,5.387739181518555
1772905549850468900,6.69746875,9.969097137451172,2.709273338317871,6.242575168609619
1772905549860434200,6.70743408203125,10.800004959106445,3.942474365234375,7.291229724884033
1772905549870408400,6.717408447265625,11.353046417236328,5.156233787536621,8.801998138427734
1772905549880410400,6.727410400390625,12.856636047363281,5.776273727416992,10.700702667236328
1772905549890387500,6.737387451171875,16.486248016357422,5.26391077041626,12.774084091186523
1772905549900391200,6.74739111328125,22.74467658996582,3.4779677391052246,15.065211296081543
1772905549910370800,6.757370849609375,31.160234451293945,0.9233304262161255,17.998212814331055
1772905549920368400,6.767368408203125,40.30380630493164,-1.5308083295822144,21.5533504486084
1772905549930350000,6.77735009765625,48.27639389038086,-3.1181468963623047,24.881467819213867
1772905549940328000,6.787327880859375,53.32106018066406,-3.457927703857422,26.590839385986328
1772905549950309000,6.79730908203125,54.1732063293457,-2.7349963188171387,25.745874404907227
1772905549960231700,6.807231689453125,50.34020233154297,-1.3606188297271729,22.362722396850586
1772905549970207000,6.81720703125,42.47529220581055,0.28893333673477173,17.308483123779297
1772905549980201000,6.827200927734375,32.36471939086914,1.9743777513504028,11.888140678405762
1772905549990178000,6.837177978515625,22.184457778930664,3.4133615493774414,7.367800235748291
1772905550000145000,6.847144775390625,13.71386432647705,4.258327007293701,4.372584342956543
1772905550010121000,6.857120849609375,7.744968891143799,4.342374801635742,2.720639228820801
1772905550020087000,6.867087158203125,4.053142547607422,3.765106439590454,1.7030915021896362
1772905550030062000,6.87706201171875,1.9366908073425293,2.7885355949401855,0.6352944374084473
1772905550040035600,6.88703564453125,0.5240281820297241,1.6893328428268433,-0.755533754825592
1772905550050010600,6.8970107421875,-0.9170492887496948,0.6720840334892273,-2.3285155296325684
1772905550060005400,6.90700537109375,-2.6697919368743896,-0.19710876047611237,-3.793820381164551
1772905550069982500,6.916982421875,-4.5924248695373535,-0.8889335989952087,-4.955236434936523
1772905550079989500,6.926989501953125,-6.392724990844727,-1.38933265209198,-5.752345561981201
1772905550089969700,6.9369697265625,-7.781459331512451,-1.6863417625427246,-6.130710601806641
1772905550099960800,6.9469609375,-8.67188835144043,-1.76051926612854,-5.960521221160889
1772905550109942000,6.95694189453125,-9.256335258483887,-1.638485312461853,-5.314159870147705
1772905550119955500,6.96695556640625,-9.783055305480957,-1.3917254209518433,-4.478765964508057
1772905550129940000,6.97693994140625,-10.249655723571777,-1.1093723773956299,-3.67657208442688
1772905550139917000,6.9869169921875,-10.383953094482422,-0.867398202419281,-2.9919257164001465
1772905550149900800,6.99690087890625,-9.77109146118164,-0.7357929348945618,-2.4747767448425293
1772905550159878100,7.006878173828125,-8.234002113342285,-0.6951149702072144,-2.103590250015259
1772905550169861000,7.016861083984375,-6.033502101898193,-0.6400800347328186,-1.8858433961868286
1772905550179824600,7.02682470703125,-3.696911096572876,-0.4366901218891144,-1.801795482635498
1772905550189805800,7.036805908203125,-1.7479569911956787,-0.015254244208335876,-1.797009825706482
1772905550199753200,7.046753173828125,-0.5198407173156738,0.5712863802909851,-1.7778671979904175
1772905550209730800,7.056730712890625,-0.10797612369060516,1.2299108505249023,-1.6941183805465698
1772905550219726800,7.066726806640625,-0.3329014480113983,1.8643079996109009,-1.552941918373108
1772905550229706200,7.076706298828125,-0.8548358678817749,2.3742783069610596,-1.3830515146255493
1772905550239716000,7.086716064453125,-1.2954143285751343,2.678166627883911,-1.1123634576797485
1772905550249698800,7.09669873046875,-1.3815559148788452,2.7622146606445312,-0.6047859191894531
1772905550259684600,7.1066845703125,-1.0441679954528809,2.668595552444458,0.1420738399028778
1772905550269667600,7.11666748046875,-0.4097708761692047,2.4843480587005615,0.9705886840820312
1772905550279645700,7.126645751953125,0.4043870270252228,2.3048863410949707,1.6863417625427246
1772905550289628200,7.136628173828125,1.3214362859725952,2.1586251258850098,2.112563371658325
1772905550299597600,7.14659765625,2.4083759784698486,2.0629122257232666,2.1077775955200195
1772905550309578800,7.156578857421875,3.85693097114563,2.0294127464294434,1.6791633367538452
1772905550319558400,7.166558349609375,5.695516109466553,2.0940189361572266,1.054337501525879
1772905550329539300,7.176539306640625,7.766504287719727,2.2809581756591797,0.6113662123680115
1772905550339509500,7.186509521484375,9.875777244567871,2.606382131576538,0.6400800347328186
1772905550349489400,7.196489501953125,11.891730308532715,3.0613174438476562,1.0734800100326538
1772905550359470300,7.20647021484375,13.668400764465332,3.5617165565490723,1.6217355728149414
1772905550369450500,7.216450439453125,15.207883834838867,3.983152389526367,2.1556341648101807
1772905550379424300,7.22642431640625,16.89093589782715,4.236791610717773,2.830709218978882
1772905550389403400,7.2364033203125,19.445571899414062,4.205684661865234,4.092624187469482
1772905550399373600,7.24637353515625,23.82682991027832,3.7674992084503174,6.671189308166504
1772905550409352000,7.25635205078125,30.880273818969727,2.86989164352417,10.87298583984375
1772905550419332900,7.266332763671875,40.81616973876953,1.423729419708252,16.269399642944336
1772905550429311500,7.2763115234375,52.58108139038086,-0.6640082597732544,22.305294036865234
1772905550439310600,7.286310546875,63.39095687866211,-3.28564453125,28.470401763916016
1772905550449291300,7.296291259765625,69.38138580322266,-5.976672649383545,33.80938720703125
1772905550459278600,7.306278564453125,67.74140930175781,-8.088338851928711,36.98167037963867
1772905550469260000,7.316260009765625,58.39923095703125,-9.134600639343262,36.9027099609375
1772905550479257000,7.326257080078125,44.076988220214844,-8.900103569030762,33.3879508972168
1772905550489240300,7.336240234375,29.067710876464844,-7.530511856079102,27.17259407043457
1772905550499192600,7.346192626953125,16.90289878845215,-5.586343765258789,19.609479904174805
1772905550509172500,7.35617236328125,8.918049812316895,-3.800400495529175,12.25932788848877
1772905550519141000,7.36614111328125,4.620540618896484,-2.6536402702331543,6.26650333404541
1772905550529119700,7.37611962890625,2.6117658615112305,-2.198704957962036,2.055135488510132
1772905550539092700,7.3860927734375,1.3956137895584106,-2.150848388671875,-0.48035913705825806
1772905550549070800,7.39607080078125,-0.08404789865016937,-2.181955099105835,-1.672582983970642
1772905550559053300,7.40605322265625,-2.226820468902588,-2.1149561405181885,-2.012662887573242
1772905550569031700,7.41603173828125,-5.006382942199707,-2.0982062816619873,-2.082054853439331
1772905550579017000,7.426016845703125,-8.185846328735352,-2.363809585571289,-2.316551446914673
1772905550588996000,7.43599609375,-11.300703048706055,-3.024827003479004,-2.8552355766296387
1772905550598958000,7.4459580078125,-13.726127624511719,-4.181158542633057,-3.6430723667144775
1772905550608935400,7.455935302734375,-14.887245178222656,-5.761318683624268,-4.598406791687012
1772905550618930200,7.46593017578125,-14.384453773498535,-7.310372352600098,-5.513063430786133
1772905550628909600,7.47590966796875,-12.31107234954834,-8.308777809143066,-6.152245998382568
1772905550638874000,7.4858740234375,-9.294620513916016,-8.56002426147461,-6.403492450714111
1772905550648851700,7.495851806640625,-6.07896614074707,-8.097909927368164,-6.4202423095703125
1772905550658833700,7.505833740234375,-3.3041889667510986,-7.0683979988098145,-6.427420616149902
1772905550668811800,7.515811767578125,-1.5852450132369995,-5.730212211608887,-6.389135360717773
1772905550678809600,7.5258095703125,-1.4030914306640625,-4.3223347663879395,-6.085247039794922
1772905550688789800,7.535789794921875,-2.7487549781799316,-2.9551360607147217,-5.340480804443359
1772905550698787800,7.545787841796875,-5.143073081970215,-1.6504493951797485,-4.074079513549805
1772905550708770000,7.55577001953125,-7.872386455535889,-0.4366901218891144,-2.465205430984497
1772905550718733600,7.565733642578125,-10.098908424377441,0.5688936114311218,-0.9065806865692139
1772905550728713500,7.57571337890625,-11.128419876098633,1.215553879737854,0.2667997181415558
1772905550738703600,7.58570361328125,-10.644770622253418,1.4476577043533325,0.9849455952644348
1772905550748684800,7.595684814453125,-8.755936622619629,1.337587833404541,1.3776676654815674
1772905550758656500,7.605656494140625,-5.834897994995117,1.0429716110229492,1.6121642589569092
1772905550768636700,7.61563671875,-2.5357937812805176,0.791725218296051,1.7724833488464355
1772905550778639000,7.62563916015625,0.35892340540885925,0.7606185078620911,1.7988044023513794
1772905550788621600,7.63562158203125,2.252842426300049,1.033400297164917,1.5930216312408447
1772905550798585000,7.645585205078125,2.856132984161377,1.5601203441619873,1.3441680669784546
1772905550808565500,7.6555654296875,2.171187400817871,2.213959217071533,1.516451358795166
1772905550818554000,7.66555419921875,0.4713860750198364,2.824428081512451,2.3350958824157715
1772905550828535600,7.67553564453125,-1.7694923877716064,3.1594231128692627,3.4295129776000977
1772905550838530800,7.68553076171875,-3.7543387413024902,3.082852840423584,4.090231418609619
1772905550848513500,7.695513427734375,-4.316951274871826,2.6350958347320557,4.118945121765137
1772905550858491000,7.705490966796875,-2.799004316329956,1.9983060359954834,3.9753756523132324
1772905550868473000,7.71547314453125,0.5527420043945312,1.3351950645446777,4.111766815185547
1772905550878473200,7.72547314453125,4.982155799865723,0.7175477147102356,4.643272399902344
1772905550888457500,7.73545751953125,9.559925079345703,0.21714866161346436,5.598606586456299
1772905550898429700,7.7454296875,13.498211860656738,-0.06311069428920746,7.008577346801758
1772905550908412700,7.75541259765625,16.1844539642334,-0.05353940650820732,8.780462265014648
1772905550918385700,7.7653857421875,17.28365707397461,0.1381855010986328,10.47069263458252
1772905550928367400,7.775367431640625,17.0201473236084,0.31764721870422363,11.483454704284668
1772905550938333000,7.7853330078125,16.13899040222168,0.3798605799674988,11.557632446289062
1772905550948313000,7.79531298828125,15.600306510925293,0.30568310618400574,11.050054550170898
1772905550958282800,7.80528271484375,16.205989837646484,0.054137613624334335,10.743773460388184
1772905550968262000,7.815261962890625,18.475881576538086,-0.4749752879142761,11.461919784545898
1772905550978257400,7.82525732421875,22.768604278564453,-1.4012967348098755,13.645370483398438
1772905550988238300,7.83523828125,29.067710876464844,-2.7804598808288574,16.80329704284668
1772905550998178300,7.84517822265625,36.41068649291992,-4.415655136108398,19.88226318359375
1772905551008155000,7.85515478515625,42.92783737182617,-5.845067501068115,21.93410873413086
1772905551018130700,7.865130615234375,46.70819854736328,-6.608676910400391,22.331615447998047
1772905551028107000,7.87510693359375,46.80390930175781,-6.647261142730713,21.01227378845215
1772905551038080300,7.885080322265625,43.83770751953125,-6.283253192901611,18.412172317504883
1772905551048056600,7.895056640625,39.51836395263672,-5.861817359924316,15.249458312988281
1772905551058023400,7.9050234375,35.18256759643555,-5.567201137542725,12.098709106445312
1772905551067998500,7.91499853515625,30.7579402923584,-5.2992048263549805,9.256933212280273
1772905551077998600,7.92499853515625,25.27777862548828,-4.7988057136535645,7.087839603424072
1772905551087976400,7.9349765625,18.181264877319336,-3.786043643951416,6.0009002685546875
1772905551097943300,7.944943359375,10.024431228637695,-2.134098768234253,5.971887111663818
1772905551107920000,7.954919921875,2.286342144012451,-0.046360939741134644,6.264110565185547
1772905551117895000,7.96489501953125,-3.4597225189208984,2.012662887573242,5.916851997375488
1772905551127871500,7.97487158203125,-6.191727638244629,3.6023945808410645,4.272085666656494
1772905551137867500,7.984867431640625,-5.904289722442627,4.445266246795654,1.298405408859253
1772905551147846100,7.99484619140625,-3.658625841140747,4.4859442710876465,-2.326122760772705
1772905551157827600,8.00482763671875,-0.9484550952911377,3.801297903060913,-5.635097503662109
1772905551167806200,8.01480615234375,1.1611171960830688,2.5465614795684814,-7.954938888549805
1772905551177800700,8.02480078125,2.4227328300476074,0.8970093727111816,-9.12831974029541
1772905551187781000,8.034781005859376,3.2967114448547363,-0.8578268885612488,-9.271888732910156
1772905551197744600,8.04474462890625,4.41475772857666,-2.292025089263916,-8.73320484161377
1772905551207723500,8.0547236328125,5.858527183532715,-3.0631120204925537,-8.057829856872559
1772905551217692000,8.06469189453125,7.002894401550293,-3.1779675483703613,-7.636693477630615
1772905551227669500,8.07466943359375,7.074679374694824,-2.950350284576416,-7.377969741821289
1772905551237643300,8.084643310546875,5.798407554626465,-2.720639228820801,-6.865606307983398
1772905551247620400,8.094620361328126,3.531208038330078,-2.65842604637146,-5.816951751708984
1772905551257584600,8.104584716796875,0.9071788787841797,-2.7278177738189697,-4.275076866149902
1772905551267560700,8.114560791015625,-1.6091731786727905,-2.7876384258270264,-2.4843480587005615
1772905551277534500,8.124534423828125,-3.792623996734619,-2.7661030292510986,-0.7076773047447205
1772905551287510000,8.134510009765625,-5.437390327453613,-2.682354211807251,0.8820542693138123
1772905551297498400,8.144498291015625,-6.1965131759643555,-2.53399920463562,2.112563371658325
1772905551307475500,8.154475341796875,-5.794219970703125,-2.3350958824157715,2.7972097396850586
1772905551317467000,8.164466796875,-4.374378681182861,-2.1460628509521484,2.8426733016967773
1772905551327445500,8.174445556640626,-2.456531524658203,-2.0048863887786865,2.3207387924194336
1772905551337447400,8.184447509765626,-0.6873382925987244,-1.8610178232192993,1.425524115562439
1772905551347428400,8.194428466796875,0.42352959513664246,-1.6265212297439575,0.4773681163787842
1772905551357404400,8.204404296875,0.6221339106559753,-1.2529417276382446,-0.17617157101631165
1772905551367384800,8.214384765625,-0.17497515678405762,-0.6903293132781982,-0.3487538993358612
1772905551377364200,8.2243642578125,-2.0425732135772705,0.07806584239006042,-0.1498505175113678
1772905551387344600,8.2343447265625,-4.917848587036133,0.968794047832489,0.16360925137996674
1772905551397361000,8.24436083984375,-8.310571670532227,1.8834505081176758,0.39840495586395264
1772905551407345200,8.25434521484375,-11.274381637573242,2.759821891784668,0.4989035129547119
1772905551417269200,8.264269287109375,-12.907483100891113,3.418147087097168,0.5850451588630676
1772905551427247000,8.2742470703125,-12.708580017089844,3.770191192626953,0.7983054518699646
1772905551437227800,8.284227783203125,-10.836495399475098,3.7797625064849854,1.07826566696167
1772905551447206100,8.2942060546875,-7.755138397216797,3.322434186935425,1.3298112154006958
1772905551457180700,8.3041806640625,-3.3879377841949463,2.6733810901641846,1.2098709344863892
1772905551467158500,8.314158447265624,1.9630118608474731,1.9743777513504028,1.0064810514450073
1772905551477112000,8.324112060546875,7.773682594299316,1.2323036193847656,1.3513466119766235
1772905551487087400,8.33408740234375,13.388141632080078,0.5904290080070496,2.6321048736572266
1772905551497075500,8.344075439453125,18.078372955322266,0.24586252868175507,4.468596458435059
1772905551507052300,8.35405224609375,21.33679962158203,0.1860419660806656,5.916851997375488
1772905551517010700,8.3640107421875,23.2307186126709,0.3200400173664093,6.247360706329346
1772905551526985500,8.3739853515625,24.044876098632812,0.6263213157653809,5.414060115814209
1772905551536977200,8.38397705078125,23.941686630249023,1.1147562265396118,4.221836566925049
1772905551546953700,8.39395361328125,23.721546173095703,1.674975872039795,4.099802494049072
1772905551556918000,8.40391796875,25.36631202697754,1.8284156322479248,6.450750827789307
1772905551566893000,8.41389306640625,30.722047805786133,1.124327540397644,11.071590423583984
1772905551576878000,8.423878173828125,39.51118469238281,-0.6496513485908508,16.097116470336914
1772905551586854400,8.4338544921875,48.894039154052734,-3.3598220348358154,19.64776611328125
1772905551596802800,8.443802734375,54.829437255859375,-6.417251110076904,21.14178466796875
1772905551606776000,8.453776123046875,54.592247009277344,-8.921639442443848,21.091535568237305
1772905551616759300,8.46375927734375,48.073001861572266,-10.188040733337402,20.37787628173828
1772905551626733800,8.47373388671875,37.55295944213867,-10.03011417388916,19.42254066467285
1772905551636748500,8.48374853515625,26.565715789794922,-8.797212600708008,17.957534790039062
1772905551646727200,8.49372705078125,18.312870025634766,-7.1473612785339355,15.517753601074219
1772905551656679400,8.503679443359376,14.331512451171875,-5.73978328704834,12.103495597839355
1772905551666655200,8.5136552734375,14.07996654510498,-4.913661479949951,8.347063064575195
1772905551676631000,8.523631103515624,15.835102081298828,-4.645665168762207,5.01206636428833
1772905551686606800,8.53360693359375,17.697614669799805,-4.724628448486328,2.6727828979492188
1772905551696608300,8.543608154296875,18.020944595336914,-4.858626365661621,1.5499508380889893
1772905551706586600,8.553586669921875,15.799209594726562,-4.8059844970703125,1.4398809671401978
1772905551716564700,8.563564697265624,11.063514709472656,-4.446761608123779,1.7988044023513794
1772905551726543000,8.573543212890625,4.821836948394775,-3.8386857509613037,2.0838494300842285
1772905551736510200,8.58351025390625,-1.4895321130752563,-3.096611499786377,2.0694925785064697
1772905551746487300,8.5934873046875,-6.574579238891602,-2.3805594444274902,1.8565312623977661
1772905551756463400,8.60346337890625,-9.873982429504395,-1.9785652160644531,1.7772690057754517
1772905551766440400,8.6134404296875,-11.537891387939453,-2.0982062816619873,1.8445671796798706
1772905551776419600,8.623419677734375,-11.662318229675293,-2.6799614429473877,1.6863417625427246
1772905551786397000,8.63339697265625,-10.192228317260742,-3.4387853145599365,0.8461619019508362
1772905551796381700,8.643381591796874,-7.438986301422119,-4.035196304321289,-0.789332389831543
1772905551806359800,8.65335986328125,-4.223630905151367,-4.173980236053467,-2.7116663455963135
1772905551816340200,8.66334033203125,-1.5708880424499512,-3.762115478515625,-4.081258296966553
1772905551826318600,8.673318603515625,-0.2994019389152527,-2.9383862018585205,-4.337290287017822
1772905551836277800,8.68327783203125,-0.6035895347595215,-1.949552297592163,-3.5569307804107666
1772905551846254000,8.693254150390626,-2.0569300651550293,-0.9897312521934509,-2.2591235637664795
1772905551856238600,8.703238525390624,-4.034298896789551,-0.1779661774635315,-0.9496514797210693
1772905551866216000,8.7132158203125,-6.062216281890869,0.45164528489112854,0.012861421331763268
1772905551876196400,8.7231962890625,-7.841279983520508,0.8898309469223022,0.4295116662979126
1772905551886173700,8.733173583984374,-9.126823425292969,1.184447169303894,0.3720839321613312
1772905551896154400,8.743154296875,-9.811769485473633,1.3806586265563965,0.1301097273826599
1772905551906132200,8.75313232421875,-9.921838760375977,1.4883357286453247,-0.011066804639995098
1772905551916090000,8.763090087890625,-9.474081993103027,1.545763373374939,0.07028916478157043
1772905551926066200,8.773066162109375,-8.501997947692871,1.581655740737915,0.3290131092071533
1772905551936035600,8.78303564453125,-7.06062126159668,1.6007983684539795,0.6376872062683105
1772905551946011000,8.793010986328126,-5.284249782562256,1.5720844268798828,0.8772686123847961
1772905551955999700,8.802999755859375,-3.423830032348633,1.4452649354934692,1.0256235599517822
1772905551965976300,8.812976318359375,-1.7766708135604858,1.196411371231079,1.0998010635375977
1772905551975962600,8.822962646484376,-0.5102694034576416,0.8635098934173584,0.994516909122467
1772905551985940000,8.83293994140625,0.3397808074951172,0.5641079545021057,0.6281159520149231
1772905551995925000,8.842925048828125,0.8210372924804688,0.4061816334724426,0.21625134348869324
1772905552005903400,8.8529033203125,1.043569803237915,0.47557350993156433,0.2186441719532013
1772905552015890000,8.862889892578124,1.1177473068237305,0.7845467329025269,0.9323035478591919
1772905552025869000,8.872869140625,1.292722463607788,1.2035897970199585,2.2704896926879883
1772905552035836200,8.882836181640625,2.1113669872283936,1.5792629718780518,3.7956149578094482
1772905552045814300,8.892814208984374,4.1129631996154785,1.7733806371688843,5.01206636428833
1772905552055802400,8.90280224609375,7.316354274749756,1.7614165544509888,5.715855121612549
1772905552065781200,8.91278125,11.374581336975098,1.6319050788879395,6.221039772033691
1772905552075766000,8.92276611328125,15.662519454956055,1.5864413976669312,7.037590503692627
1772905552085745700,8.93274560546875,19.4766788482666,1.8164514303207397,8.471489906311035
1772905552095717400,8.94271728515625,22.84756851196289,2.441277265548706,10.327123641967773
1772905552105696000,8.952696044921876,27.0517578125,3.4612178802490234,12.031710624694824
1772905552115684400,8.962684326171875,33.81776428222656,4.4955153465271,13.695619583129883
1772905552125664300,8.972664306640626,44.53910446166992,4.89063024520874,16.69083595275879
1772905552135645000,8.98264501953125,57.96104431152344,3.997509241104126,22.78176498413086
1772905552145624800,8.992624755859374,69.96314239501953,1.4620146751403809,32.193336486816406
1772905552155602000,9.002601806640625,76.69086456298828,-1.882553219795227,41.40151596069336
1772905552165581600,9.01258154296875,73.81289672851562,-4.341477394104004,45.13641357421875
1772905552175554300,9.02255419921875,60.896141052246094,-4.813162803649902,41.226539611816406
1772905552185533200,9.032533203125,43.10969161987305,-3.386143207550049,31.721649169921875
1772905552195534800,9.042534912109375,26.548965454101562,-1.0423734188079834,20.519052505493164
1772905552205516000,9.05251611328125,14.290834426879883,1.1291131973266602,10.633404731750488
1772905552215487700,9.06248779296875,6.054738521575928,2.5082762241363525,3.142075300216675
1772905552225468000,9.072468017578124,0.1579262912273407,2.9919257164001465,-2.0796620845794678
1772905552235451600,9.08245166015625,-4.578067779541016,2.709273338317871,-5.242375373840332
1772905552245432300,9.092432373046876,-8.320143699645996,2.017448663711548,-6.609574317932129
1772905552255400700,9.102400634765624,-10.630414009094238,1.0788638591766357,-6.722036838531494
1772905552265380000,9.112380126953125,-11.159526824951172,-0.08464609831571579,-6.401099681854248
1772905552275380700,9.122380615234375,-9.7998046875,-1.4228321313858032,-6.360421657562256
1772905552285362200,9.132362060546875,-6.854838848114014,-2.761317253112793,-6.894320011138916
1772905552295333400,9.14233349609375,-3.292224884033203,-3.920041799545288,-7.88076114654541
1772905552305313800,9.152313720703125,-0.33529427647590637,-4.753342151641846,-9.039485931396484
1772905552315280100,9.162280029296875,1.2137593030929565,-5.191527843475342,-10.04985523223877
1772905552325259000,9.172259033203124,1.1611171960830688,-5.280062198638916,-10.547861099243164
1772905552335254500,9.182254638671875,-0.2682952284812927,-5.052444934844971,-10.272686958312988
1772905552345235200,9.192235107421874,-2.7080769538879395,-4.547260284423828,-9.326923370361328
1772905552355212800,9.202212890625,-5.763113498687744,-3.8434712886810303,-8.084450721740723
1772905552365193200,9.212193115234374,-8.894720077514648,-3.0439693927764893,-6.846463680267334
1772905552375180300,9.22218017578125,-11.478071212768555,-2.2896320819854736,-5.723631858825684
1772905552385161200,9.2321611328125,-12.92184066772461,-1.7509479522705078,-4.684548377990723
1772905552395137800,9.2421376953125,-12.948161125183105,-1.5332010984420776,-3.724428415298462
1772905552405118200,9.2521181640625,-11.736495971679688,-1.6767704486846924,-3.018246650695801
1772905552415103000,9.26210302734375,-9.682257652282715,-2.1484556198120117,-2.7499513626098633
1772905552425084000,9.272083984375,-7.141977310180664,-2.7972097396850586,-2.8552355766296387
1772905552435057200,9.28205712890625,-4.383950233459473,-3.4244282245635986,-3.1019954681396484
1772905552445037300,9.292037353515624,-1.628315806388855,-3.857828378677368,-3.279064416885376
1772905552455008800,9.3020087890625,0.9023932218551636,-4.05912446975708,-3.171387195587158
1772905552464988200,9.31198828125,2.9542386531829834,-4.044767379760742,-2.6566312313079834
1772905552474963500,9.32196337890625,4.208675861358643,-3.8362929821014404,-1.8714864253997803
1772905552484942300,9.3319423828125,4.381258487701416,-3.491427421569824,-1.088435173034668
1772905552494936300,9.341936279296876,3.476173162460327,-3.1013972759246826,-0.5066801905632019
1772905552504917000,9.3519169921875,1.8768702745437622,-2.737389087677002,-0.2192423790693283
1772905552514908200,9.361908203125,0.1818545162677765,-2.4475584030151367,-0.18335004150867462
1772905552524889600,9.3718896484375,-1.0561320781707764,-2.2561326026916504,-0.2503490746021271
1772905552534851300,9.381851318359375,-1.4799607992172241,-2.134098768234253,-0.2721835672855377
1772905552544831000,9.3918310546875,-1.0202397108078003,-2.0383858680725098,-0.19531415402889252
1772905552554826000,9.401825927734375,0.12442677468061447,-1.954637050628662,-0.0038883367087692022
1772905552564807000,9.411806884765625,1.5966109037399292,-1.8418751955032349,0.21146570146083832
1772905552574775000,9.421775146484375,3.0332016944885254,-1.6360924243927002,0.21385852992534637
1772905552584755000,9.4317548828125,4.077070713043213,-1.2792627811431885,-0.17617157101631165
1772905552594738400,9.441738525390624,4.4482574462890625,-0.7860422134399414,-0.844367265701294
1772905552604718600,9.451718505859375,4.0435709953308105,-0.254536509513855,-1.423729419708252
1772905552614699300,9.46169921875,3.1360931396484375,0.19800607860088348,-1.4452649354934692
1772905552624679400,9.471679443359376,2.42512583732605,0.47557350993156433,-0.6430711150169373
1772905552634647000,9.48164697265625,2.5639095306396484,0.6023930907249451,0.8150551915168762
1772905552644626000,9.4916259765625,3.9311084747314453,0.5545366406440735,2.6368906497955322
1772905552654600400,9.501600341796875,6.617351055145264,0.3248256742954254,4.626522541046143
1772905552664578800,9.511578857421876,10.261321067810059,0.04217349737882614,6.462714672088623
1772905552674555100,9.52155517578125,13.721043586730957,-0.24257239699363708,7.707880020141602
1772905552684533200,9.531533203125,15.801602363586426,-0.534795880317688,8.095816612243652
1772905552694520300,9.541520263671876,16.19641876220703,-0.7645068168640137,7.779664516448975
1772905552704499500,9.55149951171875,15.23898983001709,-0.8697910308837891,7.193123817443848
1772905552714484700,9.561484619140625,13.86939811706543,-0.8123632669448853,6.963113784790039
1772905552724464400,9.57146435546875,13.481461524963379,-0.6305087804794312,7.782057285308838
1772905552734450700,9.58145068359375,15.279667854309082,-0.5467599630355835,10.166804313659668
1772905552744431000,9.59143115234375,19.648962020874023,-0.961017370223999,14.133805274963379
1772905552754402600,9.601402587890625,25.962425231933594,-1.7533408403396606,18.484256744384766
1772905552764382000,9.6113818359375,32.93690490722656,-3.0439693927764893,22.331615447998047
1772905552774357000,9.62135693359375,39.477684020996094,-4.968696117401123,25.554149627685547
1772905552784336000,9.6313359375,45.11368179321289,-7.346264839172363,28.501508712768555
1772905552794516000,9.641515869140624,49.506900787353516,-9.512965202331543,31.221250534057617
1772905552804617200,9.6516171875,52.114479064941406,-10.776973724365234,32.820552825927734
1772905552814437000,9.66143701171875,52.298728942871094,-10.863414764404297,32.076087951660156
1772905552824244700,9.67124462890625,50.084171295166016,-9.924830436706543,28.59722137451172
1772905552834424600,9.681424560546875,45.949371337890625,-8.2728853225708,23.172094345092773
1772905552844534300,9.6915341796875,40.320556640625,-6.244967937469482,17.109878540039062
1772905552854354200,9.701354248046876,33.63590621948242,-4.171586990356445,11.445169448852539
1772905552864166100,9.711166259765625,26.62314224243164,-2.3518455028533936,6.781259536743164
1772905552874152000,9.72115185546875,20.04886245727539,-1.1069796085357666,3.477369546890259
1772905552884124400,9.73112451171875,14.209478378295898,-0.6616154313087463,1.5619150400161743
1772905552894114600,9.741114501953126,9.042776107788086,-0.8027920126914978,0.7310073375701904
1772905552904088800,9.7510888671875,4.311866283416748,-1.083051323890686,0.3290131092071533
1772905552914079700,9.761079833984375,-0.1869392693042755,-1.2649059295654297,-0.5330012440681458
1772905552924055600,9.7710556640625,-4.19491720199585,-1.267298698425293,-2.208874464035034
1772905552934037200,9.781037353515625,-6.8620171546936035,-1.1093723773956299,-4.263112545013428
1772905552944013800,9.791013916015626,-7.735995769500732,-1.0088738203048706,-6.032605171203613
1772905552953992400,9.800992431640625,-7.3073811531066895,-1.1524431705474854,-7.100401878356934
1772905552963969000,9.810968994140625,-6.656234264373779,-1.51166570186615,-7.385148048400879
1772905552973961200,9.820961181640625,-6.754340171813965,-1.9232312440872192,-7.102795124053955
1772905552983939600,9.830939697265626,-7.939385414123535,-2.2345972061157227,-6.5042901039123535
1772905552993914600,9.84091455078125,-9.847661972045898,-2.332702875137329,-5.735595703125
1772905553003892700,9.850892822265624,-11.904293060302734,-2.165205478668213,-5.017449855804443
1772905553013884700,9.860884765625,-13.671092987060547,-1.7988044023513794,-4.603192329406738
1772905553023864000,9.870864013671875,-14.860923767089844,-1.3821542263031006,-4.564907550811768
1772905553033858000,9.880858154296876,-15.16750431060791,-1.07826566696167,-4.686941146850586
1772905553043839000,9.8908388671875,-14.422738075256348,-0.9658030271530151,-4.607978343963623
1772905553053792800,9.900792724609374,-12.703794479370117,-1.0351948738098145,-4.083651065826416
1772905553063771000,9.91077099609375,-10.400702476501465,-1.1955139636993408,-3.2359936237335205
1772905553073764900,9.920764892578125,-8.02074146270752,-1.4012967348098755,-2.441277265548706
1772905553083744800,9.930744873046875,-5.889933109283447,-1.5954145193099976,-1.9719849824905396
1772905553093720000,9.940719970703125,-4.156631946563721,-1.7341982126235962,-1.8403797149658203
1772905553103699500,9.950699462890626,-2.8181469440460205,-1.8442680835723877,-1.9049859046936035
1772905553113700000,9.9607001953125,-1.8005990982055664,-1.944766640663147,-2.019841432571411
1772905553123681800,9.970681884765625,-1.0226325988769531,-2.0503499507904053,-2.1346969604492188
1772905553133661200,9.9806611328125,-0.3735794425010681,-2.1771695613861084,-2.1394824981689453
1772905553143642400,9.990642333984376,0.19621145725250244,-2.2800607681274414,-1.8595223426818848
1772905553153620000,10.000619873046874,0.4546363055706024,-2.3207387924194336,-1.3160524368286133
1772905553163601000,10.010600830078126,0.018843477591872215,-2.3255245685577393,-0.8276175260543823
1772905553173780700,10.02078076171875,-1.2236297130584717,-2.3494527339935303,-0.7794619798660278
1772905553183867400,10.030867431640624,-2.9760732650756836,-2.418844699859619,-1.3567304611206055
1772905553193687300,10.040687255859375,-4.5924248695373535,-2.524427890777588,-2.379063844680786
1772905553203511600,10.050511474609374,-5.358427047729492,-2.65842604637146,-3.3556346893310547
1772905553213500200,10.060500244140625,-4.84606409072876,-2.823530673980713,-3.693321704864502
1772905553223476700,10.070476806640626,-3.086441993713379,-2.9048867225646973,-3.176172971725464
1772905553233456600,10.08045654296875,-0.6394818425178528,-2.746960401535034,-2.1705892086029053
1772905553243433500,10.09043359375,1.5846468210220337,-2.3925235271453857,-1.1362916231155396
1772905553253415000,10.100414794921875,2.9781668186187744,-1.9256240129470825,-0.31046873331069946
1772905553263392300,10.110392333984375,3.5264222621917725,-1.3773685693740845,0.35054850578308105
1772905553273572400,10.120572265625,3.7588253021240234,-0.8291130661964417,1.0639088153839111
1772905553283671000,10.130671142578125,4.60857629776001,-0.33110684156417847,1.9833508729934692
1772905553293491000,10.140490966796875,6.7417778968811035,0.054137613624334335,3.350250720977783
1772905553303294000,10.1502939453125,10.12014389038086,0.22193430364131927,5.591428279876709
1772905553313474000,10.16047412109375,14.099109649658203,0.1788634955883026,8.833105087280273
1772905553323587000,10.170587158203125,18.068801879882812,-0.06071787327528,12.76211929321289
1772905553333407000,10.180406982421875,22.239492416381836,-0.534795880317688,16.987844467163086
1772905553343215000,10.190215087890625,27.454050064086914,-1.5427724123001099,21.483957290649414
1772905553353195800,10.20019580078125,34.337303161621094,-3.450749397277832,26.23640251159668
1772905553363166500,10.21016650390625,42.582969665527344,-6.252146244049072,30.431320190429688
1772905553373346600,10.2203466796875,51.09214782714844,-9.316754341125488,32.7248420715332
1772905553383426800,10.2304267578125,58.6600456237793,-11.796915054321289,32.43500900268555
1772905553393246700,10.240246826171875,64.01338958740234,-13.152149200439453,30.01466941833496
1772905553403068200,10.250068115234376,65.70870208740234,-13.27418327331543,26.590839385986328
1772905553413058600,10.26005859375,62.634525299072266,-12.345170021057129,22.920549392700195
1772905553423028500,10.270028564453124,55.02804183959961,-10.66690444946289,19.202402114868164
1772905553433026000,10.280026123046875,44.778385162353516,-8.600702285766602,15.520146369934082
1772905553442999000,10.2899990234375,34.413875579833984,-6.520142555236816,12.086745262145996
1772905553452968000,10.299968017578125,25.7949275970459,-4.707878589630127,9.14686393737793
1772905553462940400,10.3099404296875,19.459928512573242,-3.3047871589660645,6.774080753326416
1772905553472937000,10.31993701171875,14.910874366760254,-2.402094841003418,4.880161762237549
1772905553482912000,10.329912109375,11.345868110656738,-2.0431714057922363,3.2880373001098633
1772905553492906800,10.33990673828125,8.20229721069336,-2.1317057609558105,1.8493528366088867
1772905553502883800,10.3498837890625,5.329414367675781,-2.493321180343628,0.5970092415809631
1772905553512854300,10.359854248046876,2.7050859928131104,-2.919243574142456,-0.39182472229003906
1772905553522830600,10.36983056640625,0.1866401731967926,-3.25453782081604,-1.1123634576797485
1772905553532780800,10.37978076171875,-2.456531524658203,-3.4603207111358643,-1.521835207939148
1772905553542754600,10.389754638671874,-5.289035320281982,-3.6257245540618896,-1.5912270545959473
1772905553552727600,10.3997275390625,-7.977670669555664,-3.817150354385376,-1.4691931009292603
1772905553562701000,10.409701171875,-9.931410789489746,-3.96789813041687,-1.5146567821502686
1772905553572659700,10.41965966796875,-10.89153003692627,-4.008575916290283,-2.0629122257232666
1772905553582631700,10.429631591796875,-11.12602710723877,-3.912863254547119,-3.178565740585327
1772905553592615400,10.439615478515625,-11.032707214355469,-3.690330743789673,-4.593621253967285
1772905553602588700,10.449588623046875,-10.896316528320312,-3.3909287452697754,-5.814558982849121
1772905553612578000,10.459578125,-10.793126106262207,-3.1181468963623047,-6.408277988433838
1772905553622552800,10.469552734375,-10.692626953125,-2.9240293502807617,-6.2312092781066895
1772905553632541000,10.479541015625,-10.570592880249023,-2.799602508544922,-5.347659587860107
1772905553642517000,10.48951708984375,-10.376774787902832,-2.706282377243042,-3.9329030513763428
1772905553652478700,10.499478759765625,-10.15872859954834,-2.5986053943634033,-2.369492530822754
1772905553662453500,10.50945361328125,-10.094121932983398,-2.4981069564819336,-1.1602199077606201
1772905553672420400,10.51942041015625,-10.223334312438965,-2.4475584030151367,-0.6693921089172363
1772905553682394400,10.529394287109374,-10.326525688171387,-2.4741785526275635,-0.877866804599762
1772905553692379600,10.539379638671875,-10.007980346679688,-2.5842485427856445,-1.4404792785644531
1772905553702354700,10.549354736328125,-8.94975471496582,-2.761317253112793,-1.9025931358337402
1772905553712334300,10.559334228515626,-7.170990467071533,-2.9551360607147217,-2.0150556564331055
1772905553722310100,10.56931005859375,-4.992026329040527,-3.075076103210449,-1.8906289339065552
1772905553732290000,10.5792900390625,-2.8875386714935303,-3.079861879348755,-1.7395820617675781
1772905553742266000,10.58926611328125,-1.2690932750701904,-2.9288148880004883,-1.6366907358169556
1772905553752244500,10.599244384765624,-0.3520440459251404,-2.63449764251709,-1.5314065217971802
1772905553762220800,10.609220703125,-0.134297177195549,-2.268096685409546,-1.277468204498291
1772905553772209000,10.619208984375,-0.48873403668403625,-1.8729819059371948,-0.7651050686836243
1772905553782186200,10.629186279296874,-1.2164511680603027,-1.4685949087142944,-0.10199406743049622
1772905553792169000,10.6391689453125,-1.9923239946365356,-1.07826566696167,0.44386860728263855
1772905553802147000,10.64914697265625,-2.42303204536438,-0.6999006271362305,0.6424728631973267
1772905553812133000,10.659133056640625,-2.29142689704895,-0.33110684156417847,0.47258245944976807
1772905553822112000,10.669112060546874,-1.5756736993789673,0.027816563844680786,0.22821545600891113
1772905553832100400,10.679100341796875,-0.3448655605316162,0.4492524564266205,0.3194418251514435
1772905553842080300,10.689080322265625,1.4673985242843628,1.0166505575180054,0.836590588092804
1772905553852063700,10.699063720703125,4.048357009887695,1.7614165544509888,1.540379524230957
1772905553862044200,10.709044189453126,7.292426109313965,2.743072032928467,2.1460628509521484
1772905553872020500,10.7190205078125,10.840682983398438,4.011866092681885,2.651247501373291
1772905553882000400,10.72900048828125,14.422439575195312,5.613562107086182,3.355036497116089
1772905553891972900,10.738972900390625,18.26262092590332,7.404290676116943,4.581058979034424
1772905553901952000,10.748951904296876,23.235504150390625,8.972785949707031,6.091827392578125
1772905553911928600,10.758928466796876,30.262327194213867,9.858428955078125,7.116553783416748
1772905553921907500,10.768907470703125,39.17140579223633,9.789037704467773,7.202695369720459
1772905553931895600,10.7788955078125,47.994041442871094,8.874381065368652,6.8004021644592285
1772905553941875500,10.78887548828125,54.12535095214844,7.495516777038574,6.869793891906738
1772905553951854800,10.798854736328124,56.2684211730957,6.015855312347412,8.014161109924316
1772905553961834800,10.808834716796875,54.539608001708984,4.694119930267334,9.920044898986816
1772905553971821000,10.818821044921876,49.54787826538086,3.7674992084503174,11.617452621459961
1772905553981801500,10.828801513671875,42.09214401245117,3.4923245906829834,12.37657642364502
1772905553991838700,10.838838623046875,33.19532775878906,4.112364768981934,12.038888931274414
1772905554001825000,10.848824951171874,24.34158706665039,5.515456199645996,10.532906532287598
1772905554011841300,10.85884130859375,17.216358184814453,7.131508827209473,8.021339416503906
1772905554021830700,10.86883056640625,12.614960670471191,8.333304405212402,5.093421936035156
1772905554031814100,10.878814208984375,9.768099784851074,8.84088134765625,2.572284460067749
1772905554041803000,10.888802978515624,7.294818878173828,8.651848793029785,1.054337501525879
1772905554051787800,10.898787841796874,4.66361141204834,7.840083599090576,0.6831508874893188
1772905554061776100,10.908776123046875,2.575873613357544,6.497111797332764,1.059123158454895
1772905554071789300,10.918789306640624,2.130509376525879,4.797011375427246,1.4207384586334229
1772905554081780200,10.9287802734375,3.5958142280578613,2.96321177482605,1.236191987991333
1772905554091788800,10.938788818359376,6.0140604972839355,1.2705888748168945,0.6472585201263428
1772905554101781500,10.948781494140626,7.929515361785889,-0.017647067084908485,0.11814561486244202
1772905554111779300,10.958779296875,8.2788667678833,-0.8291130661964417,-0.13310076296329498
1772905554121772500,10.9687724609375,6.7417778968811035,-1.2457633018493652,-0.1666002720594406
1772905554131787500,10.97878759765625,3.7851462364196777,-1.3414762020111084,-0.02063809521496296
1772905554141783000,10.988782958984375,0.33738797903060913,-1.1907284259796143,0.3433700501918793
1772905554151603000,10.99860302734375,-2.5980072021484375,-0.9323035478591919,0.8102695941925049
1772905554161457000,11.008456787109376,-4.472484588623047,-0.6687939167022705,1.1309077739715576
1772905554171503900,11.01850390625,-5.37996244430542,-0.4534398913383484,1.2146565914154053
1772905554181478400,11.028478515625,-5.5331034660339355,-0.2952145040035248,1.1620144844055176
1772905554191504000,11.03850390625,-5.006382942199707,-0.1660020649433136,1.0016953945159912
1772905554201483800,11.04848388671875,-3.955335855484009,-0.08225327730178833,0.7310073375701904
1772905554211519700,11.058519775390625,-2.7152554988861084,-0.06071787327528,0.49651068449020386
1772905554221505300,11.06850537109375,-1.6857435703277588,-0.07986045628786087,0.4342973232269287
1772905554231495200,11.0784951171875,-1.1781660318374634,-0.11575279384851456,0.486939400434494
1772905554241481200,11.088481201171875,-1.1925230026245117,-0.1540379524230957,0.503689169883728
1772905554251515000,11.098514892578125,-1.3935201168060303,-0.1827518343925476,0.3840480446815491
1772905554261506000,11.108506103515625,-1.383948802947998,-0.2066800594329834,0.10618150234222412
1772905554271326000,11.118325927734375,-1.0369895696640015,-0.23778675496578217,-0.2192423790693283
1772905554281167600,11.128167724609375,-0.5413761138916016,-0.28564319014549255,-0.40378883481025696
1772905554291347700,11.13834765625,-0.1582254022359848,-0.30957141518592834,-0.3678964674472809
1772905554301527600,11.148527587890625,-0.04097708687186241,-0.28085756301879883,-0.18574285507202148
1772905554311677000,11.158677001953125,-0.19651055335998535,-0.22821545600891113,0.046360939741134644
1772905554321496800,11.168496826171875,-0.4408775866031647,-0.18753747642040253,0.21146570146083832
1772905554331317000,11.17831689453125,-0.5676971673965454,-0.18514464795589447,0.254536509513855
1772905554341441800,11.18844189453125,-0.5724828243255615,-0.21146570146083832,0.2306082844734192
1772905554351441400,11.19844140625,-0.5246263742446899,-0.2353939265012741,0.2234298139810562
1772905554361441300,11.208441162109375,-0.5006981492042542,-0.2353939265012741,0.30508488416671753
1772905554371406800,11.21840673828125,-0.5892325639724731,-0.21146570146083832,0.4366901218891144
1772905554381404400,11.228404296875,-0.7256234884262085,-0.1899302899837494,0.4821537733078003
1772905554391401700,11.238401611328126,-0.7160521745681763,-0.1827518343925476,0.32662028074264526
1772905554401405700,11.24840576171875,-0.4336991012096405,-0.20907287299633026,-0.04935196787118912
1772905554411403500,11.258403564453126,0.09541380405426025,-0.23778675496578217,-0.4660021960735321
1772905554421401300,11.2684013671875,0.734895646572113,-0.21146570146083832,-0.6358926296234131
1772905554431221200,11.27822119140625,1.40279221534729,-0.07746763527393341,-0.5306084156036377
1772905554441085200,11.288085205078126,2.0347964763641357,0.26500511169433594,-0.4707878530025482
1772905554450905000,11.297905029296874,2.554338216781616,0.9185447692871094,-0.7483552694320679
1772905554460731600,11.307731689453124,2.8896324634552,1.8523437976837158,-1.3184453248977661
1772905554470790000,11.317789794921875,2.997309446334839,2.9201409816741943,-1.9384855031967163
1772905554480749000,11.3277490234375,2.935096025466919,3.9376888275146484,-2.2256240844726562
1772905554490791700,11.337791748046875,2.856132984161377,4.773082733154297,-1.8834505081176758
1772905554500759600,11.347759521484376,3.5431721210479736,5.163412094116211,-0.5928218364715576
1772905554510726400,11.357726318359376,6.3514485359191895,4.885844707489014,1.9618154764175415
1772905554520694000,11.367694091796874,12.155240058898926,3.9687955379486084,5.813961029052734
1772905554530659600,11.37765966796875,20.747865676879883,2.4197418689727783,10.358230590820312
1772905554540627200,11.387627197265624,31.438100814819336,0.02063809521496296,14.493027687072754
1772905554550626300,11.397626220703126,43.89752960205078,-2.9623143672943115,17.28694725036621
1772905554560597000,11.407596923828125,57.35536193847656,-5.54805850982666,18.450456619262695
1772905554570589200,11.417589111328125,68.87380981445312,-6.747759819030762,17.89023780822754
1772905554580562200,11.427562255859375,74.24868774414062,-6.120541095733643,15.560824394226074
1772905554590531300,11.43753125,70.70999908447266,-3.7812578678131104,12.16810131072998
1772905554600504000,11.447504150390625,59.36623001098633,-0.37417763471603394,8.797212600708008
1772905554610431700,11.457431640625,44.49603271484375,3.209672451019287,6.139683723449707
1772905554620399600,11.467399658203124,30.688549041748047,6.164210319519043,4.341477394104004
1772905554630397700,11.477397705078126,20.499011993408203,8.034200668334961,3.25453782081604
1772905554640369000,11.487368896484375,14.063217163085938,8.759525299072266,2.6368906497955322
1772905554650376700,11.497376708984374,9.985847473144531,8.601598739624023,2.3374886512756348
1772905554660351500,11.5073515625,6.562315940856934,7.981558799743652,2.0431714057922363
1772905554670360000,11.517360107421876,2.7050859928131104,7.306184768676758,1.3537393808364868
1772905554680338400,11.52733837890625,-1.6211373805999756,6.8033928871154785,0.30508488416671753
1772905554690273000,11.53727294921875,-5.552245616912842,6.4325056076049805,-0.8132606148719788
1772905554700246800,11.547246826171875,-8.135597229003906,5.944070339202881,-1.797009825706482
1772905554710197500,11.557197509765626,-9.117252349853516,5.101198673248291,-2.510669231414795
1772905554720168700,11.567168701171875,-8.916254997253418,3.9233317375183105,-2.9679973125457764
1772905554730154000,11.577154052734375,-8.080561637878418,2.6709883213043213,-3.2742786407470703
1772905554740127000,11.587126953125,-7.096513748168945,1.6151553392410278,-3.4947173595428467
1772905554750113500,11.597113525390625,-6.304190158843994,0.9305089116096497,-3.6957144737243652
1772905554760087800,11.607087890625,-5.863611698150635,0.6720840334892273,-3.9616169929504395
1772905554770058000,11.61705810546875,-5.854040622711182,0.7390831112861633,-4.282255172729492
1772905554780032000,11.627031982421874,-6.2276201248168945,0.9640084505081177,-4.61276388168335
1772905554790001200,11.637001220703125,-6.771090030670166,1.1820544004440308,-4.880760192871094
1772905554799974400,11.646974365234374,-7.144370079040527,1.246660590171814,-4.998307228088379
1772905554809974800,11.656974853515624,-7.017550468444824,1.0812567472457886,-4.9022955894470215
1772905554819950800,11.666950927734375,-6.186942100524902,0.6912266612052917,-4.548157691955566
1772905554829963000,11.676962890625,-4.695316314697266,0.15732808411121368,-3.904189348220825
1772905554839943000,11.68694287109375,-2.8731818199157715,-0.4342973232269287,-3.003889799118042
1772905554849955300,11.696955322265625,-1.170987606048584,-1.0639088153839111,-1.8714864253997803
1772905554859938600,11.7069384765625,0.09780662506818771,-1.7126628160476685,-0.5545366406440735
1772905554869890800,11.716890869140625,0.91914302110672,-2.284846544265747,0.8270193338394165
1772905554879870700,11.72687060546875,1.441077470779419,-2.6799614429473877,2.033600091934204
1772905554889821000,11.736821044921875,1.7883358001708984,-2.847458839416504,2.761317253112793
1772905554899798000,11.746798095703125,2.0180468559265137,-2.8187451362609863,2.869293451309204
1772905554909777000,11.75677685546875,2.214557409286499,-2.6775684356689453,2.510071039199829
1772905554919754200,11.766754150390625,2.520838737487793,-2.449951171875,1.9953149557113647
1772905554929745400,11.776745361328125,2.9949166774749756,-2.1604197025299072,1.662413477897644
1772905554939724000,11.78672412109375,3.583850145339966,-1.8059829473495483,1.7341982126235962
1772905554949723100,11.79672314453125,4.182354927062988,-1.38933265209198,2.213061809539795
1772905554959704000,11.8067041015625,4.661218643188477,-0.8889335989952087,2.8645079135894775
1772905554969680000,11.816679931640625,4.821836948394775,-0.31435707211494446,3.3119657039642334
1772905554979660000,11.826659912109376,4.54636287689209,0.26979073882102966,3.31675124168396
1772905554989632500,11.836632568359375,3.904787540435791,0.8012964725494385,2.898007392883301
1772905554999612200,11.846612060546875,3.1265218257904053,1.2394821643829346,2.2322044372558594
1772905555009579300,11.856579345703125,2.4323041439056396,1.550549030303955,1.6169499158859253
1772905555019557400,11.866557373046875,1.9199410676956177,1.7614165544509888,1.3250255584716797
1772905555029531100,11.87653125,1.6588243246078491,1.9432710409164429,1.3824533224105835
1772905555039509000,11.886509033203126,1.745265007019043,2.113161563873291,1.6145570278167725
1772905555049490700,11.89649072265625,2.3461625576019287,2.2737796306610107,1.8254245519638062
1772905555059469000,11.906468994140624,3.5958142280578613,2.417349100112915,2.0431714057922363
1772905555099377700,11.946377685546874,12.437593460083008,3.082852840423584,2.0120646953582764
1772905555109356800,11.956356689453125,14.353047370910645,3.513859987258911,1.0423734188079834
1772905555119335000,11.9663349609375,15.404094696044922,4.138685703277588,0.5682953596115112
1772905555129307600,11.9763076171875,16.016956329345703,4.751547336578369,1.339382529258728
1772905555139285200,11.98628515625,17.3243350982666,5.13948392868042,3.6807594299316406
1772905555149465000,11.996465087890625,20.448762893676758,5.20887565612793,7.465905666351318
1772905555159571000,12.006571044921875,26.015066146850586,4.765904426574707,12.187243461608887
1772905555169390800,12.016390869140626,33.827335357666016,3.600001573562622,17.24626922607422
1772905555179202000,12.0262021484375,42.25994110107422,1.8978074789047241,21.778573989868164
1772905555189198800,12.03619873046875,48.987361907958984,0.20997019112110138,24.797718048095703
1772905555199174400,12.04617431640625,52.616973876953125,-0.9107680916786194,25.721647262573242
1772905555209158000,12.056157958984375,53.22056198120117,-1.3127623796463013,24.519851684570312
1772905555219134500,12.066134521484376,51.51089096069336,-1.212263822555542,21.608684539794922
1772905555229116400,12.076116455078125,48.089752197265625,-0.9032905697822571,17.737096786499023
1772905555239093200,12.08609326171875,43.241294860839844,-0.5754738450050354,13.776975631713867
1772905555249068300,12.096068359375,37.12913131713867,-0.2832503914833069,10.47069263458252
1772905555259045000,12.106045166015624,30.130722045898438,-0.0487537607550621,8.203493118286133
1772905555269033700,12.11603369140625,22.87867546081543,0.03978067636489868,6.927221775054932
1772905555279011600,12.126011474609374,16.150955200195312,-0.14925231039524078,6.273681640625
1772905555288987000,12.13598681640625,10.502995491027832,-0.6281159520149231,5.687141418457031
1772905555298964700,12.14596484375,6.064310073852539,-1.2768700122833252,4.614558696746826
1772905555308934400,12.155934326171876,2.5328028202056885,-1.9256240129470825,2.9338996410369873
1772905555318911200,12.1659111328125,-0.5796613097190857,-2.4717857837677,0.992124080657959
1772905555328901600,12.175901611328126,-3.5844483375549316,-2.9479575157165527,-0.7821539044380188
1772905555338880000,12.1858798828125,-6.442974090576172,-3.3837504386901855,-2.192124605178833
1772905555348846600,12.1958466796875,-8.846863746643066,-3.685544967651367,-3.2192437648773193
1772905555358823700,12.20582373046875,-10.570592880249023,-3.7525441646575928,-3.9376888275146484
1772905555368817200,12.215817138671875,-11.683854103088379,-3.5874392986297607,-4.406682014465332
1772905555378796000,12.225796142578124,-12.399906158447266,-3.2258241176605225,-4.741976261138916
1772905555388786400,12.235786376953126,-12.900304794311523,-2.754138946533203,-5.048556804656982
1772905555398766600,12.2457666015625,-13.299906730651855,-2.2417757511138916,-5.371587753295898
1772905555408757800,12.2557578125,-13.675878524780273,-1.731805443763733,-5.670989513397217
1772905555418739000,12.265739013671874,-13.95853042602539,-1.2864413261413574,-5.804987907409668
1772905555428726800,12.275726806640625,-13.922638893127441,-0.9562317728996277,-5.639883041381836
1772905555438708700,12.285708740234375,-13.36451244354248,-0.7836494445800781,-5.048556804656982
1772905555448703500,12.295703369140625,-12.198610305786133,-0.7573283910751343,-4.007080554962158
1772905555458686700,12.305686767578125,-10.431809425354004,-0.8506484627723694,-2.644667148590088
1772905555468680700,12.3156806640625,-8.185846328735352,-1.0351948738098145,-1.2535399198532104
1772905555478665000,12.3256650390625,-5.717649936676025,-1.2696914672851562,-0.10199406743049622
1772905555488659000,12.335658935546874,-3.3424742221832275,-1.5188441276550293,0.656829833984375
1772905555498644200,12.345644287109375,-1.3624134063720703,-1.7892330884933472,1.0256235599517822
1772905555508623600,12.35562353515625,0.040378883481025696,-2.1005992889404297,1.114158034324646
1772905555518608400,12.3656083984375,0.8832506537437439,-2.426023006439209,1.0663015842437744
1772905555528582700,12.375582763671876,1.3836497068405151,-2.6703901290893555,1.023230791091919
1772905555538566100,12.385566162109376,1.800299882888794,-2.720639228820801,1.04715895652771
1772905555548545500,12.395545654296875,2.1903300285339355,-2.550748825073242,1.0064810514450073
1772905555558528800,12.40552880859375,2.472982168197632,-2.244168519973755,0.783948540687561
1772905555568492000,12.415491943359376,2.662015199661255,-1.8705891370773315,0.47258245944976807
1772905555578473200,12.42547314453125,2.8298118114471436,-1.4973087310791016,0.2306082844734192
1772905555588439300,12.435439208984375,3.028416156768799,-1.181157112121582,0.18753747642040253
1772905555598419000,12.4454189453125,3.263211965560913,-0.9442676305770874,0.4223332107067108
1772905555608401400,12.4554013671875,3.521636724472046,-0.7573283910751343,0.8748757839202881
1772905555618381300,12.46538134765625,3.777967929840088,-0.5587241053581238,1.3154542446136475
1772905555628349400,12.475349365234376,4.029214382171631,-0.3478565812110901,1.5619150400161743
1772905555638328000,12.485328125,4.292723655700684,-0.12293126434087753,1.6432709693908691
1772905555648320300,12.4953203125,4.622933387756348,0.10199406743049622,1.7533408403396606
1772905555658300400,12.505300537109376,5.142475128173828,0.30568310618400574,2.0527427196502686
1772905555678265300,12.525265380859375,7.780860900878906,0.6287141442298889,3.065505027770996
1772905555688244500,12.535244384765624,10.151250839233398,0.6625127792358398,3.510869026184082
1772905555698225000,12.545224853515625,12.78485107421875,0.5712863802909851,3.7956149578094482
1772905555708191500,12.55519140625,15.042479515075684,0.35832518339157104,3.956233024597168
1772905555718170400,12.56517041015625,16.2421817779541,0.12831512093544006,4.083052635192871
1772905555728136400,12.575136474609375,16.1844539642334,0.054137613624334335,4.384548187255859
1772905555738114000,12.585114013671875,15.600306510925293,0.2626122832298279,5.08863639831543
1772905555748090000,12.595090087890625,15.837494850158691,0.7319046258926392,6.338288307189941
1772905555758067700,12.605067626953126,17.73590087890625,1.4261223077774048,8.459525108337402
1772905555768053000,12.615052978515624,20.977876663208008,2.2474586963653564,12.014960289001465
1772905555778031000,12.625031005859375,25.004697799682617,2.886641502380371,17.33480453491211
1772905555788017400,12.635017333984376,29.884260177612305,2.8435707092285156,24.017059326171875
1772905555797996500,12.64499658203125,36.257545471191406,1.7494524717330933,30.26352310180664
1772905555817950200,12.6649501953125,51.094539642333984,-1.5954145193099976,32.84687423706055
1772905555827931100,12.67493115234375,54.01288604736328,-1.9256240129470825,27.859933853149414
1772905555837910000,12.684909912109376,51.3553581237793,-0.776470959186554,20.425731658935547
1772905555847882500,12.694882568359375,44.40749740600586,1.3639088869094849,12.93200969696045
1772905555857860600,12.704860595703124,35.91267776489258,3.5784661769866943,7.162017345428467
1772905555867835400,12.71483544921875,28.258636474609375,5.072484970092773,3.659224033355713
1772905555877813200,12.724813232421875,22.373489379882812,5.529813289642334,2.0120646953582764
1772905555887801000,12.734801025390626,17.89891242980957,5.086842060089111,1.4398809671401978
1772905555897780000,12.744780029296875,14.123037338256836,4.042973041534424,1.2385848760604858
1772905555907756300,12.75475634765625,10.658828735351562,2.74546480178833,0.9514461159706116
1772905555917735000,12.76473486328125,7.496115207672119,1.4787644147872925,0.31465616822242737
1772905555927729400,12.7747294921875,4.701896667480469,0.4013960063457489,-0.8228318691253662
1772905555947681800,12.794681884765625,-0.3640081584453583,-1.059123158454895,-4.0405802726745605
1772905555957661200,12.8046611328125,-3.110370397567749,-1.4925230741500854,-5.311767101287842
1772905555967660300,12.814660400390625,-5.866004943847656,-1.7581263780593872,-5.941378593444824
1772905555977641700,12.824641845703125,-8.224430084228516,-1.8801604509353638,-5.994319915771484
1772905555987637500,12.834637451171876,-9.866804122924805,-1.9016958475112915,-5.723631858825684
1772905555997620500,12.844620361328126,-10.620841979980469,-1.9232312440872192,-5.314159870147705
1772905556007596500,12.854596435546876,-10.525129318237305,-2.0192432403564453,-4.964807987213135
1772905556017579000,12.8645791015625,-9.91705322265625,-2.2274186611175537,-4.7371907234191895
1772905556027557400,12.874557373046875,-9.308977127075195,-2.5292134284973145,-4.579264163970947
1772905556047719200,12.89471923828125,-9.47647476196289,-3.024827003479004,-4.421338081359863
1772905556057757400,12.90475732421875,-9.945767402648926,-3.142075300216675,-4.148257255554199
1772905556067577300,12.914577392578124,-9.866804122924805,-3.1301112174987793,-3.482753276824951
1772905556077436400,12.9244365234375,-8.992825508117676,-3.003291606903076,-2.536990165710449
1772905556087417900,12.93441796875,-7.6064839363098145,-2.854637384414673,-1.5720844268798828
1772905556097393700,12.9443935546875,-6.064609050750732,-2.754138946533203,-0.6981059908866882
1772905556107376600,12.954376708984375,-4.625924587249756,-2.6727828979492188,0.08225327730178833
1772905556117353200,12.964353271484375,-3.531806230545044,-2.5914268493652344,0.6759724020957947
1772905556127329300,12.974329345703126,-2.8875386714935303,-2.5363919734954834,0.9658030271530151
1772905556137305900,12.984305908203124,-2.6219353675842285,-2.5052852630615234,0.9346963167190552
1772905556147276300,12.9942763671875,-2.5190439224243164,-2.4813570976257324,0.6927221417427063
1772905556157252000,13.004252197265625,-2.3584258556365967,-2.409273386001587,0.39601215720176697
1772905556167238000,13.01423779296875,-2.1311075687408447,-2.246561288833618,0.15882360935211182
1772905556177214700,13.024214599609374,-1.9660029411315918,-2.016850471496582,0.05832505226135254
1772905556187211800,13.034211669921875,-1.9609181880950928,-1.7270197868347168,0.1420738399028778
