time,seconds_elapsed,z,y,x
1772905543493773600,0.340773681640625,-0.002650902606546879,-0.005192149430513382,0.005164469126611948
1772905543503773400,0.3507734375,0.002731813583523035,0.005115496460348368,-0.005109108984470367
1772905543513773600,0.360773681640625,0.0026519671082496643,-0.00518043851479888,0.005194278433918953
1772905543523773400,0.3707734375,-0.002744589000940323,-0.005237927660346031,0.005497694946825504
1772905543533773600,0.380773681640625,-0.0026966810692101717,0.005415719468146563,0.005434882361441851
1772905543543773400,0.3907734375,-0.0026402564253658056,-0.005171921569854021,-0.00507397623732686
1772905543553773600,0.400773681640625,-0.0027062627486884594,0.005114431958645582,0.005068653263151646
1772905543563773400,0.4107734375,-0.002748847473412752,-0.005329485051333904,0.005301805213093758
1772905543573773600,0.420773681640625,-0.0027062627486884594,0.005345454439520836,0.005259220022708178
1772905543583773400,0.4307734375,-0.0026125761214643717,-0.005385910160839558,0.005059071816504002
1772905543593773600,0.440773681640625,0.002569991396740079,0.005273060407489538,0.005083558149635792
1772905543603773400,0.4507734375,-0.0026051239110529423,0.005412525497376919,-0.005378457717597485
1772905543613773600,0.460773681640625,0.0025284711737185717,-0.005426365416496992,0.005060136318206787
1772905543623773400,0.4707734375,-0.0026572903152555227,0.005062265787273645,-0.005218764767050743
1772905543633773600,0.480773681640625,-0.002566797658801079,0.005325226578861475,-0.005038843955844641
1772905543643773400,0.4907734375,0.002630674745887518,-0.0050026471726596355,0.005353971384465694
1772905543653773600,0.500773681640625,-0.002700939541682601,0.005039908457547426,0.005055877845734358
1772905543663773400,0.5107734375,0.002647708635777235,0.005103786010295153,0.005313515663146973
1772905543673773600,0.520773681640625,0.0026668717619031668,-0.00523579865694046,-0.0053337435238063335
1772905543683773400,0.5307734375,0.0025625391863286495,-0.005077170208096504,0.005179374013096094
1772905543693773600,0.540773681640625,0.0026626132894307375,-0.0051751150749623775,0.005431688390672207
1772905543703773400,0.5507734375,0.0025125020183622837,-0.005461498163640499,-0.005397620610892773
1772905543713773600,0.560773681640625,-0.0026860348880290985,0.0051186904311180115,-0.00524644460529089
1772905543723773400,0.5707734375,0.002735007554292679,-0.005062265787273645,0.005458304192870855
1772905543733773600,0.580773681640625,-0.0025912837591022253,0.005262413993477821,-0.00534864841029048
1772905543743773400,0.5907734375,-0.0025912837591022253,0.004953674506396055,-0.005030327010899782
1772905543753773600,0.600773681640625,0,0.004245702642947435,-0.0043117087334394455
1772905543763773400,0.6107734375,-0.00007984646072145551,-0.0001479821075918153,0.00015011134382802993
1772905543773773600,0.620773681640625,0,-0.00030448116012848914,0.0003108688979409635
1772905543783773400,0.6307734375,-0.00007558798097306862,-0.00046417408157140017,0.00046310946345329285
1772905543793773600,0.640773681640625,-0.00020440694061107934,-0.001955705927684903,0.00998932495713234
1772905543803773400,0.6507734375,-0.0005514728836715221,-0.0028137892950326204,0.022063173353672028
1772905543813773600,0.660773681640625,-0.00006387716712197289,-0.0029639005661010742,0.03623645380139351
1772905543823773400,0.6707734375,0.0013765529729425907,-0.003118270542472601,0.049749668687582016
1772905543833773600,0.680773681640625,0.003138498170301318,-0.00326625257730484,0.06467137485742569
1772905543843773400,0.6907734375,0.004063652362674475,-0.0034195578191429377,0.07852526754140854
1772905543853773600,0.700773681640625,0.0054529812186956406,-0.0035771215334534645,0.1497727930545807
1772905543863773400,0.7107734375,0.00628019031137228,-0.003733620513230562,0.16836850345134735
1772905543873773600,0.720773681640625,0.00697751622647047,-0.0038816025480628014,0.18616680800914764
1772905543883773400,0.7307734375,0.007074396591633558,-0.0037346852477639914,0.1896640956401825
1772905543893773600,0.740773681640625,0.0037442666944116354,-0.003585638478398323,0.1998024582862854
1772905543903773400,0.7507734375,0.00056424830108881,-0.003427010029554367,0.2122499942779541
1772905543913773600,0.760773681640625,-0.00323857250623405,-0.0032673170790076256,0.22663938999176025
1772905543923773400,0.7707734375,-0.002258057938888669,-0.0031161413062363863,0.145603746175766
1772905543933773600,0.780773681640625,-0.002683905651792884,-0.0029575128573924303,0.15038175880908966
1772905543943773400,0.7907734375,0.0001777914585545659,-0.0027999491430819035,0.15573573112487793
1772905543953773600,0.800773681640625,0.003308837302029133,-0.0026455793995410204,0.1568184494972229
1772905543963773400,0.8107734375,0.006782690528780222,-0.002492274157702923,0.16227887570858002
1772905543973773600,0.820773681640625,0.01335245743393898,-0.0023400336503982544,0.16236937046051025
1772905543983773400,0.8307734375,0.023261936381459236,-0.002186728408560157,0.16894766688346863
1772905543993773600,0.840773681640625,0.03264442831277847,-0.002035552402958274,0.18238528072834015
1772905544003773400,0.8507734375,0.04295846074819565,-0.001874794950708747,0.19344455003738403
1772905544013773600,0.860773681640625,0.05209396034479141,-0.001726812799461186,0.2015548199415207
1772905544023773400,0.8707734375,0.06222807243466377,-0.0015777660300955176,0.2139512598514557
1772905544033773600,0.880773681640625,0.0745510458946228,-0.0014265901409089565,0.22177833318710327
1772905544043773400,0.8907734375,0.08551768958568573,-0.001575636793859303,0.22790628671646118
1772905544053773600,0.900773681640625,0.09511523693799973,-0.0017289420356974006,0.23175595700740814
1772905544063773400,0.9107734375,0.10162751376628876,-0.0018790534231811762,0.23867811262607574
1772905544073773600,0.920773681640625,0.10830054432153702,-0.002039810875430703,0.25131726264953613
1772905544083773400,0.9307734375,0.11086627840995789,-0.002190986881032586,0.2669692933559418
1772905544093773600,0.940773681640625,0.11319886147975922,-0.0023464213591068983,0.2837892174720764
1772905544103773400,0.9507734375,0.11265696585178375,-0.0023538735695183277,0.4986347556114197
1772905544113773600,0.960773681640625,0.11000712960958481,-0.0023506798315793276,0.5397067070007324
1772905544123773400,0.9707734375,0.103946253657341,-0.0023432273883372545,0.5708329677581787
1772905544133773600,0.980773681640625,0.09923318028450012,0.000017033911717589945,0.5718539953231812
1772905544143773400,0.9907734375,0.0932425707578659,0.0003151273704133928,0.5796523094177246
1772905544153773600,1.000773681640625,0.08932583034038544,0.0006238670321181417,0.5894702076911926
1772905544163773400,1.0107734375,0.08439557999372482,0.0009336713119409978,0.5988112092018127
1772905544173773600,1.020773681640625,0.07721046358346939,0.001240281737409532,0.6125138998031616
1772905544183773400,1.0307734375,0.07292643189430237,0.001552215195260942,0.6211884617805481
1772905544193773600,1.040773681640625,0.06904482841491699,0.0018662780057638884,0.6340256333351135
1772905544203773400,1.0507734375,0.06809412688016891,0.0021792759653180838,0.6398161053657532
1772905544213773600,1.060773681640625,0.06679528951644897,0.0024826927110552788,0.6494476795196533
1772905544233773600,1.080773681640625,0.0773392841219902,0.0021792759653180838,0.6616780161857605
1772905544243773400,1.0907734375,0.08649713546037674,0.0021718237549066544,0.6482542753219604
1772905544253773600,1.100773681640625,0.09273581206798553,0.0018588255625218153,0.6253724098205566
1772905544263773400,1.1107734375,0.0972529873251915,0.0018620194168761373,0.6000674366950989
1772905544273773600,1.120773681640625,0.10097277164459229,0.0015798952663317323,0.5719902515411377
1772905544283773400,1.1307734375,0.10173504054546356,0.0012615740997716784,0.5517911911010742
1772905544293773600,1.140773681640625,0.10182233899831772,0.0012679618084803224,0.5360156893730164
1772905544303773400,1.1507734375,0.10458821803331375,0.0009570929105393589,0.5214048624038696
1772905544313773600,1.160773681640625,0.10879665613174438,0.0006504824850708246,0.511199414730072
1772905544323773400,1.1707734375,0.10919695347547531,0.0003417428524699062,0.503024160861969
1772905544333773600,1.180773681640625,0.10833568125963211,0.00003726168142748065,0.48957696557044983
1772905544343773400,1.1907734375,0.10134219378232956,-0.000282124150544405,0.48128464818000793
1772905544353773600,1.200773681640625,0.0937216505408287,-0.00026934873312711716,0.47777247428894043
1772905544363773400,1.2107734375,0.0811772346496582,-0.0002704133512452245,0.46640661358833313
1772905544373773600,1.220773681640625,0.06531333923339844,-0.00026828411500900984,0.4659232497215271
1772905544383773400,1.2307734375,0.04795152693986893,0.000031938583560986444,0.462733656167984
1772905544393773600,1.240773681640625,0.033583421260118484,0.0003417428524699062,0.45861998200416565
1772905544403773400,1.2507734375,0.018986424431204796,0.0006526117213070393,0.4521598517894745
1772905544413773600,1.260773681640625,0.006351519841700792,0.0009624160011298954,0.446661114692688
1772905544423773400,1.2707734375,-0.0004162662080489099,0.0012658325722441077,0.42000091075897217
1772905544433773600,1.280773681640625,-0.008383878506720066,0.001569249085150659,0.38949742913246155
1772905544443773400,1.2907734375,-0.014626807533204556,0.0018779888050630689,0.356015145778656
1772905544453773600,1.300773681640625,-0.02043643593788147,0.002187793143093586,0.3107975721359253
1772905544463773400,1.3107734375,-0.02101558819413185,0.002499726600944996,0.27420127391815186
1772905544473773600,1.320773681640625,-0.02202484756708145,0.0024986618664115667,0.244371697306633
1772905544483773400,1.3307734375,-0.01880756765604019,0.00250930804759264,0.20387676358222961
1772905544493773600,1.340773681640625,-0.018700040876865387,0.0021952453535050154,0.1551555097103119
1772905544503773400,1.3507734375,-0.02123064175248146,0.001891828840598464,0.11396431922912598
1772905544513773600,1.360773681640625,-0.021292390301823616,0.0018907642224803567,0.05730527266860008
1772905544523773400,1.3707734375,-0.023553641512989998,0.0018822472775354981,0.020852701738476753
1772905544533773600,1.380773681640625,-0.026180056855082512,0.006899798754602671,-0.008956643752753735
1772905544543773400,1.3907734375,-0.03112095594406128,0.009406977333128452,-0.03575524687767029
1772905544553773600,1.400773681640625,-0.03578505292534828,0.014526733197271824,-0.06823252886533737
1772905544563773400,1.4107734375,-0.04517712816596031,0.020490732043981552,-0.08521640300750732
1772905544573773600,1.420773681640625,-0.050561971962451935,0.015456145629286766,-0.10418365895748138
1772905544583773400,1.4307734375,-0.055773284286260605,0.01757686771452427,-0.12259519100189209
1772905544593773600,1.440773681640625,-0.05113367363810539,0.0019163150573149323,-0.14886680245399475
1772905544603773400,1.4507734375,-0.05009886249899864,0.00048759570927359164,-0.18263334035873413
1772905544613773600,1.460773681640625,0.4191417694091797,-0.6836879849433899,-2.073016405105591
1772905544623773400,1.4707734375,0.42457130551338196,0.2923881709575653,-2.9112370014190674
1772905544633773600,1.480773681640625,0.7714349627494812,-1.1703447103500366,-4.051669120788574
1772905544643773400,1.4907734375,1.2650223970413208,-0.27864179015159607,-4.347118377685547
1772905544653773600,1.500773681640625,1.6740587949752808,-2.4042749404907227,-6.657382011413574
1772905544663773400,1.5107734375,2.528951406478882,-3.068007707595825,-5.517406463623047
1772905544673773600,1.520773681640625,3.047441244125366,-0.0052847713232040405,-6.798309803009033
1772905544683773400,1.5307734375,9.78709602355957,-0.005147435236722231,-3.250340700149536
1772905544693773600,1.540773681640625,9.654793739318848,-0.005290094297379255,-0.9081981182098389
1772905544703773400,1.5507734375,3.2744650840759277,-0.00515169370919466,-2.389190196990967
1772905544713773600,1.560773681640625,3.1622393131256104,-4.054528713226318,-6.429412841796875
1772905544723773400,1.5707734375,3.4335544109344482,-14.158672332763672,-3.2023508548736572
1772905544733773600,1.580773681640625,2.414112091064453,-7.050356388092041,3.362248182296753
1772905544743773400,1.5907734375,0.3383254110813141,1.0078731775283813,-1.8200287818908691
1772905544753773600,1.600773681640625,-0.7324123978614807,0.005061200819909573,-7.217767715454102
1772905544763773400,1.6107734375,-0.7321409583091736,-0.005282641854137182,-0.12763510644435883
1772905544773773600,1.620773681640625,-0.10090995579957962,-0.005137853790074587,5.502189636230469
1772905544783773400,1.6307734375,0.7259416580200195,-0.42235156893730164,-1.2036651372909546
1772905544793773600,1.640773681640625,0.6947855949401855,-0.4226432740688324,-1.0919674634933472
1772905544803773400,1.6507734375,0.6444684863090515,-0.42293497920036316,-0.9790900945663452
1772905544813773600,1.660773681640625,0.583845853805542,-0.4229360520839691,-0.830757737159729
1772905544823773400,1.6707734375,0.5054536461830139,-0.4229413866996765,-0.7048717737197876
1772905544833773600,1.680773681640625,0.4345308244228363,-0.42294031381607056,-0.6174857020378113
1772905544843773400,1.6907734375,0.37843602895736694,-0.4232383966445923,-0.4661106467247009
1772905544853773600,1.700773681640625,0.3319515585899353,-0.42323628067970276,-0.2385343760251999
1772905544863773400,1.7107734375,0.28001195192337036,-0.42295095324516296,-0.06462772935628891
1772905544873773600,1.720773681640625,0.2640703320503235,-0.4232490658760071,0.018596773967146873
1772905544883773400,1.7307734375,0.3175525665283203,-0.4235386252403259,0.2588590383529663
1772905544893773600,1.740773681640625,0.41073232889175415,-0.42742663621902466,0.6264519095420837
1772905544903773400,1.7507734375,0.49980583786964417,-0.42967191338539124,0.9154450297355652
1772905544913773600,1.760773681640625,0.5825960040092468,-0.7079101800918579,1.1408376693725586
1772905544923773400,1.7707734375,0.6661899089813232,-0.8773571848869324,1.4707324504852295
1772905544933773600,1.780773681640625,0.7865132093429565,-1.0889854431152344,1.8793131113052368
1772905544943773400,1.7907734375,0.9156334400177002,-1.3244174718856812,2.342538595199585
1772905544953773600,1.800773681640625,1.0556575059890747,-1.582658052444458,2.8986074924468994
1772905544963773400,1.8107734375,1.2071092128753662,-1.8821759223937988,3.517280340194702
1772905544973773600,1.820773681640625,1.3635252714157104,-1.2266045808792114,4.2373762130737305
1772905544983773400,1.8307734375,1.5252792835235596,-1.2331583499908447,5.034098148345947
1772905544993773600,1.840773681640625,1.6804624795913696,-1.2103317975997925,5.935749530792236
1772905545003773400,1.8507734375,1.8236441612243652,-1.2043571472167969,6.903837203979492
1772905545013773600,1.860773681640625,1.9542889595031738,-1.1623696088790894,8.01439094543457
1772905545023773400,1.8707734375,2.0622329711914062,-1.111358404159546,9.142879486083984
1772905545033773600,1.880773681640625,2.154386281967163,-1.1113510131835938,10.363863945007324
1772905545043773400,1.8907734375,2.225738286972046,-1.111356258392334,11.51783561706543
1772905545053773600,1.900773681640625,2.35809063911438,-0.9840043783187866,17.957256317138672
1772905545063773400,1.9107734375,2.588531732559204,-0.9840000867843628,19.400476455688477
1772905545073773600,1.920773681640625,2.791522741317749,-0.9840065240859985,20.33495330810547
1772905545083773400,1.9307734375,2.991400718688965,-0.9839915633201599,21.47942352294922
1772905545093773600,1.940773681640625,3.217264175415039,-0.9839894771575928,22.401288986206055
1772905545103773400,1.9507734375,3.452971935272217,-0.9839798808097839,23.285690307617188
1772905545113773600,1.960773681640625,9.609761238098145,-0.984329104423523,23.910951614379883
1772905545123773400,1.9707734375,10.258414268493652,-0.9846867918968201,24.573843002319336
1772905545133773600,1.980773681640625,10.870591163635254,-0.9850434064865112,25.3333683013916
1772905545143773400,1.9907734375,11.410079956054688,-0.9850370287895203,25.773855209350586
1772905545153773600,2.000773681640625,11.922151565551758,-0.9850306510925293,25.833810806274414
1772905545163773400,2.0107734375,9.90750789642334,-0.0050718472339212894,14.106239318847656
1772905545173773600,2.020773681640625,10.057275772094727,-0.0052304756827652454,15.307366371154785
1772905545183773400,2.0307734375,3.4915878772735596,-0.005446593277156353,11.865487098693848
1772905545193773600,2.040773681640625,9.249874114990234,-0.005191084463149309,12.460509300231934
1772905545203773400,2.0507734375,3.2518482208251953,-0.005427429918199778,8.992568016052246
1772905545213773600,2.060773681640625,3.111072540283203,-0.005334808025509119,8.950139999389648
1772905545223773400,2.0707734375,3.3290905952453613,-0.00506758876144886,7.15110445022583
1772905545233773600,2.080773681640625,3.1578328609466553,-0.005458304192870855,6.5436015129089355
1772905545243773400,2.0907734375,3.405484676361084,-0.005075041204690933,3.6473193168640137
1772905545253773600,2.100773681640625,2.9842050075531006,-0.005039908457547426,1.985317349433899
1772905545263773400,2.1107734375,9.105618476867676,-0.005130401346832514,-0.07776087522506714
1772905545273773600,2.120773681640625,2.8063251972198486,-0.005266672465950251,-3.699970006942749
1772905545283773400,2.1307734375,3.313270330429077,-0.005070782732218504,-3.429635524749756
1772905545293773600,2.140773681640625,3.156890630722046,-0.0050516193732619286,-5.461074352264404
1772905545303773400,2.1507734375,9.219449996948242,-0.005382716190069914,-4.092050075531006
1772905545313773600,2.160773681640625,3.387300968170166,-0.0053316145204007626,-3.970001220703125
1772905545323773400,2.1707734375,2.848604440689087,-0.00537952221930027,-10.20198917388916
1772905545333773600,2.180773681640625,1.8946330547332764,0.005483855027705431,-25.785634994506836
1772905545343773400,2.1907734375,1.2252311706542969,-0.0054455287754535675,-10.967586517333984
1772905545353773600,2.200773681640625,1.394291639328003,-0.005201730877161026,0.5185548663139343
1772905545363773400,2.2107734375,1.0547802448272705,-0.005053748842328787,-4.271063804626465
1772905545373773600,2.220773681640625,0.14664281904697418,0.005214506294578314,-10.905059814453125
1772905545383773400,2.2307734375,3.120002508163452,-0.004519309848546982,2.7309863567352295
1772905545393773600,2.240773681640625,-0.3997337520122528,0.005100592039525509,1.1708898544311523
1772905545403773400,2.2507734375,-1.4959969520568848,0.0053614238277077675,3.088059663772583
1772905545413773600,2.260773681640625,-1.1922897100448608,0.005037779454141855,8.206300735473633
1772905545423773400,2.2707734375,-1.8568283319473267,0.005310322158038616,11.559615135192871
1772905545433773600,2.280773681640625,-1.6202305555343628,0.00537313474342227,13.90805435180664
1772905545443773400,2.2907734375,-2.1111085414886475,0.005374199245125055,13.198797225952148
1772905545453773600,2.300773681640625,1.677581548690796,-0.0020802663639187813,1.37003755569458
1772905545463773400,2.3107734375,1.9467461109161377,-0.0023102243430912495,3.1131646633148193
1772905545473773600,2.320773681640625,1.7666146755218506,-0.0020270354580134153,3.2191526889801025
1772905545483773400,2.3307734375,1.5848414897918701,-0.0017342651262879372,3.055785894393921
1772905545493773600,2.340773681640625,1.3767361640930176,-0.0014404301764443517,2.56782603263855
1772905545503773400,2.3507734375,1.156447172164917,-0.0011519183171913028,2.1887969970703125
1772905545513773600,2.360773681640625,0.9577231407165527,-0.000860212545376271,1.8923568725585938
1772905545523773400,2.3707734375,0.7440274357795715,-0.0005802176310680807,1.4445364475250244
1772905545533773600,2.380773681640625,0.5034276843070984,-0.0002831887686625123,0.9098302125930786
1772905545543773400,2.3907734375,0.25677236914634705,0.000018098531654686667,0.40347376465797424
1772905545553773600,2.400773681640625,-0.00006281254900386557,0.0003034165420103818,-0.06233879551291466
1772905545563773400,2.4107734375,-0.26488372683525085,0.0005983161390759051,-0.5751116871833801
1772905545573773600,2.420773681640625,-0.5365554690361023,0.0008942803833633661,-1.1753931045532227
1772905545583773400,2.4307734375,-0.8174914717674255,0.0011764045339077711,-1.8450154066085815
1772905545593773600,2.440773681640625,-1.0956733226776123,0.0014776918105781078,-2.5736770629882812
1772905545603773400,2.4507734375,-1.375797152519226,0.0017608805792406201,-3.3072478771209717
1772905545613773600,2.460773681640625,-1.6482460498809814,0.0020483278203755617,-4.037009239196777
1772905545623773400,2.4707734375,-1.9297740459442139,0.002331516705453396,-4.746310234069824
1772905545633773600,2.480773681640625,-2.2000627517700195,0.002629610011354089,-5.32957124710083
1772905545643773400,2.4907734375,-2.4829747676849365,0.0029159928672015667,-5.996960163116455
1772905545653773600,2.500773681640625,-9.893778800964355,0.3756360709667206,-6.46771764755249
1772905545663773400,2.5107734375,-10.618203163146973,0.801605224609375,-7.3795366287231445
1772905545673773600,2.520773681640625,-11.273468971252441,1.288240671157837,-8.04503059387207
1772905545683773400,2.5307734375,-11.80632495880127,1.774333119392395,-9.008750915527344
1772905545693773600,2.540773681640625,-12.338418006896973,2.2906789779663086,-10.25062370300293
1772905545703773400,2.5507734375,-12.739569664001465,2.775486469268799,-11.584811210632324
1772905545713773600,2.560773681640625,-13.121599197387695,3.2742979526519775,-13.162182807922363
1772905545723773400,2.5707734375,-13.421562194824219,3.7495524883270264,-14.868280410766602
1772905545733773600,2.580773681640625,-13.716903686523438,4.226986408233643,-16.714881896972656
1772905545743773400,2.5907734375,-13.953910827636719,4.712768077850342,-18.528343200683594
1772905545753773600,2.600773681640625,-14.140973091125488,5.18021821975708,-20.27576446533203
1772905545763773400,2.6107734375,-14.330814361572266,5.631487846374512,-22.300464630126953
1772905545773773600,2.620773681640625,-9.781913757324219,11.079009056091309,-16.190519332885742
1772905545783773400,2.6307734375,-3.389575958251953,9.302962303161621,-12.39441204071045
1772905545793773600,2.640773681640625,-2.469531774520874,5.743298530578613,-9.253519058227539
1772905545803773400,2.6507734375,-1.79924738407135,4.466807842254639,-2.927349090576172
1772905545813773600,2.660773681640625,-0.4528167247772217,0.548749566078186,0.06571044027805328
1772905545823773400,2.6707734375,-0.21984605491161346,0.736700713634491,0.2962293028831482
1772905545833773600,2.680773681640625,0.7389428019523621,-2.1507346630096436,3.0390989780426025
1772905545843773400,2.6907734375,0.20241716504096985,-0.3151167333126068,-0.2388005405664444
1772905545853773600,2.700773681640625,0.2525096535682678,-3.9917194843292236,0.7458851933479309
1772905545863773400,2.7107734375,0.8561094999313354,-2.868556499481201,-1.451172113418579
1772905545873773600,2.720773681640625,0.3125467300415039,-9.771611213684082,-1.1523643732070923
1772905545883773400,2.7307734375,2.6551504135131836,-17.032413482666016,2.0550711154937744
1772905545893773600,2.740773681640625,1.4548951387405396,-13.037272453308105,-0.23483483493328094
1772905545903773400,2.7507734375,0.43391335010528564,-4.801952362060547,-17.225858688354492
1772905545913773600,2.760773681640625,-1.4866729974746704,-1.4757872819900513,-32
1772905545923773400,2.7707734375,-0.3526509404182434,-2.212233543395996,-32
1772905545933773600,2.780773681640625,-0.08310100436210632,15.40769100189209,-32
1772905545943773400,2.7907734375,-2.139512538909912,3.360701322555542,-5.764920711517334
1772905545953773600,2.800773681640625,-0.8727846145629883,-0.684755802154541,-1.329468011856079
1772905545963773400,2.8107734375,-0.8944485783576965,-2.7346136569976807,1.2213282585144043
1772905545973773600,2.820773681640625,-0.2471354454755783,-3.3726601600646973,2.1672182083129883
1772905545983773400,2.8307734375,-0.3036518394947052,2.101236343383789,-0.9557451009750366
1772905545993773600,2.840773681640625,-0.8540643453598022,9.602080345153809,-2.474583387374878
1772905546003773400,2.8507734375,-1.5203649997711182,8.77554988861084,-1.2403348684310913
1772905546013773600,2.860773681640625,-1.2099549770355225,19.542325973510742,-2.7108566761016846
1772905546023773400,2.8707734375,-1.2360754013061523,2.1759705543518066,-6.2953877449035645
1772905546033773600,2.880773681640625,-1.987844705581665,4.592818260192871,-9.297779083251953
1772905546043773400,2.8907734375,-1.8912858963012695,4.726269721984863,-8.701576232910156
1772905546053773600,2.900773681640625,-1.7772939205169678,4.827015399932861,-8.040433883666992
1772905546063773400,2.9107734375,-1.6954395771026611,5.045159339904785,-7.3974714279174805
1772905546073773600,2.920773681640625,-1.6082227230072021,4.770150184631348,-6.40004301071167
1772905546083773400,2.9307734375,-1.556755781173706,4.6268630027771,-6.346131801605225
1772905546093773600,2.940773681640625,-1.5539292097091675,4.660268306732178,-6.455934524536133
1772905546103773400,2.9507734375,-1.5545339584350586,4.6890153884887695,-6.691063404083252
1772905546113773600,2.960773681640625,-1.585198163986206,4.814834117889404,-6.987354278564453
1772905546123773400,2.9707734375,-1.6213334798812866,4.909998416900635,-7.081330299377441
1772905546133773600,2.980773681640625,-1.6711523532867432,4.967582702636719,-7.254693031311035
1772905546143773400,2.9907734375,-1.7386215925216675,5.11386775970459,-7.557611465454102
1772905546153773600,3.000773681640625,-1.8390088081359863,5.332181930541992,-7.990418434143066
1772905546163773400,3.0107734375,-1.9584335088729858,5.630928039550781,-8.596035957336426
1772905546173773600,3.020773681640625,-2.1027374267578125,5.9907307624816895,-9.381141662597656
1772905546183773400,3.0307734375,-2.2208962440490723,6.3372273445129395,-10.013054847717285
1772905546193773600,3.040773681640625,-2.3455941677093506,6.687937259674072,-10.6752347946167
1772905546203773400,3.0507734375,-3.1403379440307617,11.591822624206543,-13.875324249267578
1772905546213773600,3.060773681640625,-3.223761558532715,12.18902587890625,-13.38720989227295
1772905546223773400,3.0707734375,-3.360060453414917,12.882381439208984,-12.89799976348877
1772905546233773600,3.080773681640625,-9.138014793395996,12.718589782714844,-12.237668991088867
1772905546243773400,3.0907734375,-9.386470794677734,13.060386657714844,-12.819409370422363
1772905546253773600,3.100773681640625,-9.759825706481934,13.736021041870117,-13.720819473266602
1772905546263773400,3.1107734375,-10.134443283081055,14.60580062866211,-14.903640747070312
1772905546273773600,3.120773681640625,-10.561614036560059,15.523009300231934,-16.18296241760254
1772905546283773400,3.1307734375,-10.966231346130371,15.983707427978516,-17.196529388427734
1772905546293773600,3.140773681640625,-11.3067045211792,16.021255493164062,-18.066469192504883
1772905546303773400,3.1507734375,-11.573453903198242,16.055835723876953,-19.02494239807129
1772905546313773600,3.160773681640625,-11.848384857177734,15.691234588623047,-19.7974910736084
1772905546323773400,3.1707734375,-11.90835189819336,14.831856727600098,-19.986026763916016
1772905546333773600,3.180773681640625,-11.907378196716309,13.899155616760254,-19.96355628967285
1772905546343773400,3.1907734375,-11.910592079162598,13.012535095214844,-20.160736083984375
1772905546353773600,3.200773681640625,-9.24266242980957,7.279504776000977,-14.583149909973145
1772905546363773400,3.2107734375,-3.4443814754486084,7.023963451385498,-14.830129623413086
1772905546373773600,3.220773681640625,-3.350033760070801,6.998170852661133,-13.652871131896973
1772905546383773400,3.2307734375,-3.213789224624634,6.385345935821533,-13.115931510925293
1772905546393773600,3.240773681640625,-2.957221269607544,6.297482013702393,-11.680350303649902
1772905546403773400,3.2507734375,-2.692338466644287,5.165692329406738,-10.472238540649414
1772905546413773600,3.260773681640625,-2.3836169242858887,4.938865661621094,-8.88059139251709
1772905546423773400,3.2707734375,-2.3085389137268066,4.189515113830566,-8.184617042541504
1772905546433773600,3.280773681640625,-1.9335321187973022,4.230962753295898,-6.732301235198975
1772905546443773400,3.2907734375,-1.2907787561416626,1.971451759338379,-4.199484348297119
1772905546453773600,3.300773681640625,-2.0510096549987793,3.198521375656128,-7.195991039276123
1772905546463773400,3.3107734375,0.41928762197494507,-2.9386937618255615,1.5418798923492432
1772905546473773600,3.320773681640625,1.98847496509552,-6.350230693817139,4.485583782196045
1772905546483773400,3.3307734375,-0.8556378483772278,2.5153892040252686,-3.684877872467041
1772905546493773600,3.340773681640625,1.7530897855758667,-0.06803025305271149,1.6938426494598389
1772905546503773400,3.3507734375,0.5861773490905762,4.918383598327637,0.9405125379562378
1772905546513773600,3.360773681640625,-10.932967185974121,10.064549446105957,-14.092803955078125
1772905546523773400,3.3707734375,-2.1145577430725098,-0.3777589201927185,-0.6153181195259094
1772905546533773600,3.380773681640625,2.304527521133423,-5.279901504516602,10.588775634765625
1772905546543773400,3.3907734375,0.33396047353744507,3.069225549697876,-0.9008873701095581
1772905546553773600,3.400773681640625,-1.285720705986023,5.073840141296387,-6.645069599151611
1772905546563773400,3.4107734375,0.03282115235924721,-1.2258763313293457,-0.3092719614505768
1772905546573773600,3.420773681640625,-0.3900776505470276,-0.4160309433937073,0.15022632479667664
1772905546583773400,3.4307734375,-1.1760095357894897,2.160811424255371,-3.330709934234619
1772905546593773600,3.440773681640625,-0.627694308757782,1.1286286115646362,-0.899000883102417
1772905546603773400,3.4507734375,-3.029324769973755,9.55683422088623,-13.241028785705566
1772905546613773600,3.460773681640625,-1.7302536964416504,3.2166669368743896,-5.2972612380981445
1772905546623773400,3.4707734375,-3.0768110752105713,5.4344706535339355,-9.480511665344238
1772905546633773600,3.480773681640625,-17.398967742919922,14.13549518585205,-24.297697067260742
1772905546643773400,3.4907734375,-1.8903872966766357,3.2689056396484375,-5.468439102172852
1772905546653773600,3.500773681640625,-2.185236930847168,3.8337724208831787,-6.899591445922852
1772905546663773400,3.5107734375,-2.1617960929870605,3.8842928409576416,-7.024901390075684
1772905546673773600,3.520773681640625,-2.231613874435425,4.089600563049316,-7.423955917358398
1772905546683773400,3.5307734375,-2.282135248184204,4.155267238616943,-7.445366382598877
1772905546693773600,3.540773681640625,-2.085775852203369,3.7019309997558594,-6.2742390632629395
1772905546703773400,3.5507734375,-2.3402018547058105,4.336111068725586,-7.5858025550842285
1772905546713773600,3.560773681640625,-2.263827085494995,4.138695240020752,-7.115841865539551
1772905546723773400,3.5707734375,-2.3607585430145264,4.374927997589111,-7.509278774261475
1772905546733773600,3.580773681640625,-2.4712395668029785,4.601156711578369,-8.008003234863281
1772905546743773400,3.5907734375,-2.6032490730285645,4.940423011779785,-8.607187271118164
1772905546753773600,3.600773681640625,-2.7045528888702393,5.190250873565674,-9.092731475830078
1772905546763773400,3.6107734375,-2.868135929107666,5.7478718757629395,-9.925697326660156
1772905546773773600,3.620773681640625,-3.0418169498443604,6.286672592163086,-10.78162956237793
1772905546783773400,3.6307734375,-3.067945957183838,6.312961578369141,-10.805880546569824
1772905546793773600,3.640773681640625,-3.157864809036255,6.399610996246338,-11.063817977905273
1772905546803773400,3.6507734375,-3.2086374759674072,6.236310005187988,-11.303999900817871
1772905546813773600,3.660773681640625,-3.1150808334350586,5.967092037200928,-10.891615867614746
1772905546823773400,3.6707734375,-3.1027324199676514,6.142701148986816,-11.157689094543457
1772905546833773600,3.680773681640625,-3.2444417476654053,6.584705352783203,-12.046866416931152
1772905546843773400,3.6907734375,-3.321061372756958,6.59404993057251,-12.357233047485352
1772905546853773600,3.700773681640625,-3.343618392944336,6.534619331359863,-12.349026679992676
1772905546863773400,3.7107734375,-3.4114346504211426,6.811631202697754,-12.729774475097656
1772905546873773600,3.720773681640625,-3.4645261764526367,7.041362285614014,-13.183929443359375
1772905546883773400,3.7307734375,-3.496558427810669,7.119711875915527,-13.394813537597656
1772905546893773600,3.740773681640625,-9.230649948120117,7.288695812225342,-13.825984954833984
1772905546903773400,3.7507734375,-9.201324462890625,7.1416730880737305,-13.733804702758789
1772905546913773600,3.760773681640625,-3.4762957096099854,6.873994827270508,-13.537446022033691
1772905546923773400,3.7707734375,-3.496887445449829,6.961487293243408,-13.77471923828125
1772905546933773600,3.780773681640625,-3.4146552085876465,6.875437259674072,-13.711870193481445
1772905546943773400,3.7907734375,-12.97028923034668,13.325736045837402,-25.799299240112305
1772905546953773600,3.800773681640625,-14.33187198638916,15.757024765014648,-31.578323364257812
1772905546973773600,3.820773681640625,-14.948345184326172,16.756893157958984,-33.7137451171875
1772905546983773400,3.8307734375,-13.842179298400879,15.001836776733398,-31.08561897277832
1772905546993773600,3.840773681640625,-13.8045015335083,15.365379333496094,-31.299259185791016
1772905547003773400,3.8507734375,-11.64462661743164,10.77968978881836,-25.959686279296875
1772905547013773600,3.860773681640625,-11.577966690063477,12.495902061462402,-28.82415771484375
1772905547023773400,3.8707734375,-3.3861255645751953,4.076168060302734,-21.07234764099121
1772905547033773600,3.880773681640625,-1.281290888786316,1.3499566316604614,-9.990158081054688
1772905547043773400,3.8907734375,-2.225665807723999,4.973447799682617,-14.89830493927002
1772905547053773600,3.900773681640625,-11.095073699951172,8.395176887512207,-32
1772905547063773400,3.9107734375,-9.742862701416016,-0.6882743835449219,-22.543140411376953
1772905547073773600,3.920773681640625,1.8163206577301025,-8.278338432312012,16.122392654418945
1772905547083773400,3.9307734375,2.3105053901672363,-5.499029159545898,16.201562881469727
1772905547093773600,3.940773681640625,-0.9974281787872314,-2.1736249923706055,-7.119748115539551
1772905547103773400,3.9507734375,-1.137190341949463,-10.374194145202637,-1.45449697971344
1772905547113773600,3.960773681640625,3.340797185897827,-15.522994041442871,32
1772905547123773400,3.9707734375,11.626639366149902,-15.139612197875977,32.44164276123047
1772905547133773600,3.980773681640625,10.831743240356445,-17.542177200317383,26.792224884033203
1772905547143773400,3.9907734375,1.9160531759262085,-3.716162919998169,14.877397537231445
1772905547153773600,4.000773681640625,-0.5538395643234253,-0.9937892556190491,-0.916818380355835
1772905547163773400,4.0107734375,-2.0988898277282715,7.388535022735596,-7.3957648277282715
1772905547173773600,4.020773681640625,-2.1174557209014893,2.676598072052002,-6.936051368713379
1772905547183773400,4.0307734375,-2.1174769401550293,2.7073018550872803,-6.907373428344727
1772905547193773600,4.040773681640625,-2.062870502471924,2.6582984924316406,-6.458162784576416
1772905547203773400,4.0507734375,-2.0106382369995117,2.7795681953430176,-6.128734588623047
1772905547213773600,4.060773681640625,-2.076655387878418,3.013383150100708,-6.655433654785156
1772905547223773400,4.0707734375,-2.137500524520874,3.1560537815093994,-7.152939796447754
1772905547233773600,4.080773681640625,-2.1077005863189697,3.239509344100952,-6.911614894866943
1772905547243773400,4.0907734375,-2.0744292736053467,3.5071494579315186,-6.884582042694092
1772905547253773600,4.100773681640625,-2.1790237426757812,3.7545082569122314,-7.6016621589660645
1772905547263773400,4.1107734375,-2.3086187839508057,4.094568252563477,-8.229548454284668
1772905547273773600,4.120773681640625,-1.9225633144378662,3.231229782104492,-6.326796054840088
1772905547283773400,4.1307734375,-2.5386500358581543,4.805892467498779,-9.435406684875488
1772905547293773600,4.140773681640625,-1.9777851104736328,3.5342397689819336,-6.672887802124023
1772905547303773400,4.1507734375,-2.5208678245544434,5.035844802856445,-9.472506523132324
1772905547313773600,4.160773681640625,-1.967863917350769,3.6205430030822754,-6.457138538360596
1772905547323773400,4.1707734375,-2.4910988807678223,5.04575777053833,-9.302109718322754
1772905547333773600,4.180773681640625,-2.178326368331909,4.418040752410889,-7.0931901931762695
1772905547343773400,4.1907734375,-2.498324394226074,5.191112041473389,-9.3319091796875
1772905547353773600,4.200773681640625,-2.338893413543701,5.030613422393799,-7.3838090896606445
1772905547363773400,4.2107734375,-2.3915324211120605,5.664090633392334,-7.537014961242676
1772905547373773600,4.220773681640625,-2.612659215927124,6.569728374481201,-9.029685020446777
1772905547383773400,4.2307734375,-2.831751585006714,7.370906829833984,-10.452970504760742
1772905547393773600,4.240773681640625,-2.906095027923584,7.913033485412598,-10.733965873718262
1772905547403773400,4.2507734375,-2.9401841163635254,8.694669723510742,-11.058271408081055
1772905547413773600,4.260773681640625,-3.0882599353790283,9.439582824707031,-12.674104690551758
1772905547423773400,4.2707734375,-3.236379384994507,10.078899383544922,-13.898448944091797
1772905547433773600,4.280773681640625,-3.344594717025757,10.625555038452148,-14.838171005249023
1772905547443773400,4.2907734375,-3.3548831939697266,10.643916130065918,-15.255331993103027
1772905547453773600,4.300773681640625,-3.2666423320770264,10.397894859313965,-14.738101959228516
1772905547463773400,4.3107734375,-3.113905429840088,9.61131763458252,-13.747817039489746
1772905547473773600,4.320773681640625,-2.904575824737549,8.683553695678711,-12.61707592010498
1772905547483773400,4.3307734375,-2.736825704574585,7.9866251945495605,-11.709726333618164
1772905547493773600,4.340773681640625,-2.618527412414551,7.371789455413818,-11.360696792602539
1772905547503773400,4.3507734375,-2.491231918334961,6.459805488586426,-10.768634796142578
1772905547513773600,4.360773681640625,-2.2107973098754883,5.387840270996094,-8.944806098937988
1772905547523773400,4.3707734375,-1.9889646768569946,5.016026020050049,-7.353445053100586
1772905547533773600,4.380773681640625,-1.767143726348877,4.246007919311523,-6.4242377281188965
1772905547543773400,4.3907734375,12.266081809997559,-22.934349060058594,24.568490982055664
1772905547553773600,4.400773681640625,12.27322769165039,-21.978151321411133,26.760892868041992
1772905547563773400,4.4107734375,11.707962989807129,-21.995864868164062,23.31021499633789
1772905547573773600,4.420773681640625,10.019718170166016,-15.459868431091309,20.98444938659668
1772905547583773400,4.4307734375,9.784253120422363,-14.31665325164795,17.67978858947754
1772905547593773600,4.440773681640625,3.1855661869049072,-12.433777809143066,15.159202575683594
1772905547603773400,4.4507734375,3.4193949699401855,-14.046629905700684,18.119731903076172
1772905547613773600,4.460773681640625,2.668447494506836,-11.345751762390137,11.320420265197754
1772905547623773400,4.4707734375,2.8877313137054443,-17.879783630371094,19.215723037719727
1772905547633773600,4.480773681640625,3.264939785003662,-22.02802085876465,16.3121395111084
1772905547643773400,4.4907734375,2.6596717834472656,-26.391616821289062,22.891864776611328
1772905547653773600,4.500773681640625,11.00489616394043,-32,34.74814987182617
1772905547663773400,4.5107734375,1.9374700784683228,4.09417724609375,2.095954656600952
1772905547673773600,4.520773681640625,-1.1474639177322388,12.789663314819336,-6.803990364074707
1772905547683773400,4.5307734375,-0.016584642231464386,-14.80510139465332,7.959125995635986
1772905547693773600,4.540773681640625,9.596485137939453,-14.96636962890625,32
1772905547703773400,4.5507734375,9.18187427520752,-13.650004386901855,19.51628303527832
1772905547713773600,4.560773681640625,0.00712549826130271,-2.656442880630493,6.964395523071289
1772905547723773400,4.5707734375,-0.8845199346542358,-2.3733370304107666,2.712766408920288
1772905547733773600,4.580773681640625,-0.7607941031455994,-1.420659065246582,5.874040126800537
1772905547743773400,4.5907734375,-1.4238604307174683,-0.44867855310440063,1.9421852827072144
1772905547753773600,4.600773681640625,-1.0227384567260742,-1.273019790649414,3.4451065063476562
1772905547763773400,4.6107734375,-0.9634795784950256,-0.7902957797050476,4.079551696777344
1772905547773773600,4.620773681640625,-1.0033272504806519,-0.3763078451156616,3.384690523147583
1772905547783773400,4.6307734375,-1.145900011062622,-2.1901724338531494,4.783041477203369
1772905547793773600,4.640773681640625,-0.4959731996059418,-5.139335632324219,7.39413595199585
1772905547803773400,4.6507734375,2.056612730026245,-8.510375022888184,11.747550964355469
1772905547813773600,4.660773681640625,1.638774037361145,-6.951351165771484,10.858099937438965
1772905547823773400,4.6707734375,1.4085097312927246,-6.585160255432129,10.390600204467773
1772905547833773600,4.680773681640625,1.7404154539108276,-7.386427879333496,11.330638885498047
1772905547843773400,4.6907734375,1.1859701871871948,-5.593398094177246,9.366036415100098
1772905547853773600,4.700773681640625,1.4888246059417725,-5.986491680145264,9.770173072814941
1772905547863773400,4.7107734375,1.2492010593414307,-4.853909015655518,8.489307403564453
1772905547873773600,4.720773681640625,1.0117791891098022,-3.6985220909118652,7.378674507141113
1772905547883773400,4.7307734375,0.7362844347953796,-2.5459096431732178,6.153545379638672
1772905547893773600,4.740773681640625,0.45735734701156616,-1.654955267906189,5.009692668914795
1772905547903773400,4.7507734375,0.21254809200763702,-0.9415324330329895,4.024918556213379
1772905547913773600,4.760773681640625,-0.0065442160703241825,-0.3470723330974579,3.1725542545318604
1772905547923773400,4.7707734375,-0.23638491332530975,0.22500519454479218,2.2852706909179688
1772905547933773600,4.780773681640625,-0.45309245586395264,0.7744212746620178,1.4668902158737183
1772905547943773400,4.7907734375,-0.6686278581619263,1.4296061992645264,0.7512902617454529
1772905547953773600,4.800773681640625,-0.8621075749397278,2.0964720249176025,0.13735081255435944
1772905547963773400,4.8107734375,-1.0626691579818726,2.8626999855041504,-0.4601977467536926
1772905547973773600,4.820773681640625,-1.2336353063583374,3.5825743675231934,-1.043992519378662
1772905547983773400,4.8307734375,-1.3957140445709229,4.4287638664245605,-1.7534687519073486
1772905547993773600,4.840773681640625,-1.5552791357040405,5.263880252838135,-2.431983709335327
1772905548003773400,4.8507734375,-1.6802772283554077,6.17396879196167,-3.181375741958618
1772905548013773600,4.860773681640625,-1.844812035560608,7.299631595611572,-4.101500988006592
1772905548023773400,4.8707734375,-1.947257161140442,7.45001745223999,-4.57506799697876
1772905548033773600,4.880773681640625,-1.9765022993087769,7.390507698059082,-4.75972843170166
1772905548043773400,4.8907734375,-2.029956817626953,8.228909492492676,-5.46377420425415
1772905548053773600,4.900773681640625,-2.183711290359497,9.059812545776367,-6.686806678771973
1772905548063773400,4.9107734375,-2.322413206100464,9.87009048461914,-7.645745754241943
1772905548073773600,4.920773681640625,-2.63520884513855,14.12654972076416,-12.298872947692871
1772905548083773400,4.9307734375,-2.63675594329834,14.558034896850586,-13.103273391723633
1772905548093773600,4.940773681640625,-2.6529369354248047,15.100946426391602,-13.854076385498047
1772905548103773400,4.9507734375,-2.6254591941833496,14.589472770690918,-14.255017280578613
1772905548113773600,4.960773681640625,-2.5507962703704834,13.590677261352539,-14.18435001373291
1772905548123773400,4.9707734375,-2.461353302001953,13.844804763793945,-14.6690092086792
1772905548133773600,4.980773681640625,0.09643110632896423,-1.003061056137085,-0.033343881368637085
1772905548143773400,4.9907734375,0.18716968595981598,-2.3407161235809326,0.5587570071220398
1772905548153773600,5.000773681640625,0.7351697683334351,-6.165054798126221,3.4059550762176514
1772905548163773400,5.0107734375,2.122009038925171,-16.2020320892334,21.64647102355957
1772905548173773600,5.020773681640625,2.901850461959839,-33.42002868652344,32
1772905548183773400,5.0307734375,3.0274593830108643,-32,32
1772905548193773600,5.040773681640625,2.455131769180298,-32,32
1772905548203773400,5.0507734375,3.033649206161499,-32,26.47943878173828
1772905548213773600,5.060773681640625,1.382311463356018,-11.239398002624512,6.1661248207092285
1772905548223773400,5.0707734375,1.6072804927825928,-22.60408592224121,22.369138717651367
1772905548233773600,5.080773681640625,3.1457600593566895,-11.179351806640625,13.087725639343262
1772905548243773400,5.0907734375,3.4932656288146973,-8.166269302368164,14.857954025268555
1772905548253773600,5.100773681640625,2.947903633117676,-19.585731506347656,33.5912971496582
1772905548263773400,5.1107734375,2.8541672229766846,-5.653720378875732,6.298553943634033
1772905548273773600,5.120773681640625,2.129051685333252,-3.2236263751983643,3.0282037258148193
1772905548283773400,5.1307734375,2.3254292011260986,-4.409086227416992,4.277740001678467
1772905548293773600,5.140773681640625,1.6837042570114136,-3.3431553840637207,3.622929811477661
1772905548303773400,5.1507734375,2.2536046504974365,-5.470667362213135,3.130061149597168
1772905548313773600,5.160773681640625,-0.9536232948303223,1.1132843494415283,-2.4962964057922363
1772905548323773400,5.1707734375,-1.8523356914520264,0.5479521751403809,-1.8069722652435303
1772905548333773600,5.180773681640625,-1.3158323764801025,0.09028718620538712,-0.9471387267112732
1772905548343773400,5.1907734375,-2.006460666656494,-0.4345691502094269,-1.153676986694336
1772905548353773600,5.200773681640625,-0.36780261993408203,-2.909712553024292,1.9360860586166382
1772905548363773400,5.2107734375,0.4814038872718811,-1.079297423362732,0.6838881373405457
1772905548373773600,5.220773681640625,0.43466922640800476,-1.0681167840957642,0.5929738879203796
1772905548383773400,5.2307734375,0.3886244297027588,-1.074177622795105,0.4887252748012543
1772905548393773600,5.240773681640625,0.377082884311676,-1.0108956098556519,0.35670289397239685
1772905548403773400,5.2507734375,0.33931657671928406,-0.9742215871810913,0.28509870171546936
1772905548413773600,5.260773681640625,0.2967083752155304,-0.9660942554473877,0.2646835744380951
1772905548423773400,5.2707734375,0.2395968735218048,-0.910972535610199,0.1934477537870407
1772905548433773600,5.280773681640625,0.18954485654830933,-0.8551076650619507,0.12288583070039749
1772905548443773400,5.2907734375,0.13849954307079315,-0.7163419723510742,0.017227672040462494
1772905548453773600,5.300773681640625,0.11261012405157089,-0.612666130065918,-0.04661755636334419
1772905548463773400,5.3107734375,0.08525579422712326,-0.5317763686180115,-0.11962277442216873
1772905548473773600,5.320773681640625,0.05585525929927826,-0.41002434492111206,-0.22724302113056183
1772905548483773400,5.3307734375,0.019651811569929123,-0.30330690741539,-0.34122759103775024
1772905548493773600,5.340773681640625,-0.0391971617937088,-0.1969067007303238,-0.5010567903518677
1772905548503773400,5.3507734375,-0.1123918816447258,-0.07404854148626328,-0.6584043502807617
1772905548513773600,5.360773681640625,-0.2065095603466034,0.056235332041978836,-0.868939220905304
1772905548523773400,5.3707734375,-0.3408304750919342,0.22589096426963806,-1.17490553855896
1772905548533773600,5.380773681640625,-0.4843880236148834,0.4544956386089325,-1.5892757177352905
1772905548543773400,5.3907734375,-0.629307210445404,0.7106377482414246,-1.979566216468811
1772905548553773600,5.400773681640625,-0.7429021000862122,0.9693456292152405,-2.3751649856567383
1772905548563773400,5.4107734375,-0.8633095026016235,1.2281397581100464,-2.690260410308838
1772905548573773600,5.420773681640625,-0.9301345944404602,1.3648581504821777,-2.8480498790740967
1772905548583773400,5.4307734375,-0.9906795024871826,1.5460968017578125,-3.2872202396392822
1772905548593773600,5.440773681640625,-1.820617437362671,3.1399354934692383,-6.1584978103637695
1772905548603773400,5.4507734375,-1.8921343088150024,3.335580587387085,-6.307376384735107
1772905548613773600,5.460773681640625,-1.8531352281570435,3.2004528045654297,-6.020556449890137
1772905548623773400,5.4707734375,-1.7758162021636963,3.0871899127960205,-5.745678901672363
1772905548633773600,5.480773681640625,-1.7158514261245728,2.994417905807495,-5.5150322914123535
1772905548643773400,5.4907734375,-1.6311514377593994,2.9463248252868652,-5.272231101989746
1772905548653773600,5.500773681640625,-1.6037012338638306,3.0091991424560547,-5.273954391479492
1772905548663773400,5.5107734375,-1.6164288520812988,2.8154382705688477,-4.906301975250244
1772905548673773600,5.520773681640625,-1.4934971332550049,2.6185593605041504,-4.364878177642822
1772905548683773400,5.5307734375,-1.3768798112869263,2.453941583633423,-3.811495304107666
1772905548693773600,5.540773681640625,-1.2953320741653442,7.2351975440979,-10.644268035888672
1772905548703773400,5.5507734375,-1.1967099905014038,6.617570400238037,-9.375245094299316
1772905548713773600,5.560773681640625,-1.3439990282058716,2.171746015548706,-3.7970399856567383
1772905548723773400,5.5707734375,-1.015861988067627,1.7683191299438477,-2.401297092437744
1772905548733773600,5.580773681640625,-1.3286824226379395,2.081299066543579,-3.495964527130127
1772905548743773400,5.5907734375,-1.673311471939087,2.2204267978668213,-5.062183856964111
1772905548753773600,5.600773681640625,-2.137169361114502,5.079631805419922,-9.974607467651367
1772905548763773400,5.6107734375,-3.479668378829956,8.026330947875977,-17.955257415771484
1772905548773773600,5.620773681640625,-2.980715274810791,8.242547988891602,-19.53775405883789
1772905548793773600,5.640773681640625,-1.9947221279144287,7.662788391113281,-20.733348846435547
1772905548803773400,5.6507734375,-1.997041940689087,4.535400390625,-20.82710075378418
1772905548813773600,5.660773681640625,-1.0745640993118286,2.95577335357666,-11.166351318359375
1772905548823773400,5.6707734375,-2.0997297763824463,15.5465087890625,-17.224689483642578
1772905548833773600,5.680773681640625,-2.535722494125366,13.262303352355957,-18.529151916503906
1772905548843773400,5.6907734375,-2.471129894256592,1.6828035116195679,-11.159891128540039
1772905548853773600,5.700773681640625,-0.3788299262523651,1.863174557685852,0.541713535785675
1772905548863773400,5.7107734375,-1.4217056035995483,1.7893400192260742,0.7523676753044128
1772905548873773600,5.720773681640625,-1.087760090827942,-0.35103273391723633,-0.6313236355781555
1772905548883773400,5.7307734375,-0.6554425954818726,5.056011199951172,-7.755136489868164
1772905548893773600,5.740773681640625,-1.9805659055709839,6.260721683502197,-12.367743492126465
1772905548903773400,5.7507734375,-1.1016969680786133,-0.6606336236000061,-0.6465785503387451
1772905548913773600,5.760773681640625,0.9231081604957581,-2.8587141036987305,6.117197036743164
1772905548923773400,5.7707734375,-1.0301002264022827,1.6128047704696655,-3.1592869758605957
1772905548933773600,5.780773681640625,-0.8887912034988403,1.2615059614181519,-2.3345754146575928
1772905548943773400,5.7907734375,-0.4443487524986267,2.8539042472839355,-2.577061653137207
1772905548953773600,5.800773681640625,-2.023697853088379,5.671112060546875,-6.557420253753662
1772905548963773400,5.8107734375,-1.8701180219650269,0.1819530576467514,-1.3590964078903198
1772905548973773600,5.820773681640625,-0.9499067068099976,-0.07698476314544678,-0.3819716274738312
1772905548983773400,5.8307734375,-1.1522397994995117,4.820984363555908,-8.406538963317871
1772905548993773600,5.840773681640625,-2.4333133697509766,0.22364355623722076,-5.292510986328125
1772905549003773400,5.8507734375,-1.9688763618469238,-0.3987383246421814,-6.507876396179199
1772905549013773600,5.860773681640625,-1.4275025129318237,6.76427698135376,-22.373384475708008
1772905549023773400,5.8707734375,-9.259055137634277,7.155674934387207,-10.94998550415039
1772905549033773600,5.880773681640625,-1.613094449043274,3.034126043319702,-6.289208889007568
1772905549043773400,5.8907734375,-1.5875126123428345,3.105875015258789,-6.638664722442627
1772905549053773600,5.900773681640625,-1.5700539350509644,3.100574254989624,-6.818358898162842
1772905549063773400,5.9107734375,-3.0562424659729004,7.158391952514648,-11.883548736572266
1772905549073773600,5.920773681640625,-1.8434535264968872,2.2049238681793213,-8.34183406829834
1772905549083773400,5.9307734375,-1.1042871475219727,2.6379759311676025,-7.403161525726318
1772905549093773600,5.940773681640625,-1.2249277830123901,1.5165163278579712,-6.3628621101379395
1772905549103773400,5.9507734375,-1.397517442703247,2.5178730487823486,-5.367848873138428
1772905549113773600,5.960773681640625,-1.3814481496810913,2.39174747467041,-5.0721540451049805
1772905549123773400,5.9707734375,-1.3257077932357788,2.0370078086853027,-4.665750026702881
1772905549133773600,5.980773681640625,-1.2658506631851196,1.7588993310928345,-4.276004791259766
1772905549143773400,5.9907734375,-1.2124706506729126,1.716601014137268,-4.062812805175781
1772905549153773600,6.000773681640625,-1.2303978204727173,1.6744580268859863,-4.300503730773926
1772905549163773400,6.0107734375,-1.2161808013916016,1.640744686126709,-4.5781073570251465
1772905549173773600,6.020773681640625,-1.2138620615005493,1.7144153118133545,-4.761446952819824
1772905549183773400,6.0307734375,-1.2290138006210327,1.6086740493774414,-4.681965351104736
1772905549193773600,6.040773681640625,-1.203873872756958,1.4922430515289307,-4.511474132537842
1772905549203773400,6.0507734375,-1.2102594375610352,1.5955440998077393,-4.735486030578613
1772905549213773600,6.060773681640625,-1.2882182598114014,1.7820580005645752,-5.3310956954956055
1772905549223773400,6.0707734375,-1.3745238780975342,1.6584270000457764,-6.273746013641357
1772905549233773600,6.080773681640625,-1.3686162233352661,1.5657752752304077,-5.9785356521606445
1772905549243773400,6.0907734375,-1.384830355644226,1.6882320642471313,-5.973029613494873
1772905549253773600,6.100773681640625,-1.5542433261871338,1.8504459857940674,-8.05875015258789
1772905549263773400,6.1107734375,-2.2166824340820312,3.682312250137329,-14.334573745727539
1772905549273773600,6.120773681640625,-2.653472423553467,3.6956050395965576,-20.995681762695312
1772905549283773400,6.1307734375,-2.572493314743042,3.7716338634490967,-20.936922073364258
1772905549293773600,6.140773681640625,-1.4986722469329834,2.017533779144287,-7.791085720062256
1772905549303773400,6.1507734375,-1.5142722129821777,2.2043254375457764,-8.139599800109863
1772905549313773600,6.160773681640625,-1.9783685207366943,3.948969602584839,-16.810123443603516
1772905549323773400,6.1707734375,-2.0947442054748535,5.855727672576904,-19.016929626464844
1772905549333773600,6.180773681640625,-1.9419639110565186,5.1241350173950195,-23.51807403564453
1772905549343773400,6.1907734375,-1.6920444965362549,6.420541286468506,-21.671566009521484
1772905549353773600,6.200773681640625,-0.7994217276573181,15.557531356811523,-23.640914916992188
1772905549363773400,6.2107734375,0.027556611225008965,25.06174659729004,-23.20326805114746
1772905549373773600,6.220773681640625,-2.325676202774048,32,-32
1772905549383773400,6.2307734375,-9.39762020111084,12.920061111450195,-32
1772905549393773600,6.240773681640625,-1.5802199840545654,3.5238606929779053,-8.769816398620605
1772905549403773400,6.2507734375,-1.9269825220108032,7.2273173332214355,-21.39586067199707
1772905549413773600,6.260773681640625,0.060433123260736465,1.9505457878112793,-0.9782394766807556
1772905549423773400,6.2707734375,0.015165504068136215,1.6732996702194214,-1.5042392015457153
1772905549433773600,6.280773681640625,-0.026232223957777023,1.74089777469635,-3.2347919940948486
1772905549443773400,6.2907734375,0.2409425526857376,1.7464827299118042,-0.14729011058807373
1772905549453773600,6.300773681640625,-1.5264801979064941,8.569965362548828,-16.491792678833008
1772905549463773400,6.3107734375,-1.6119861602783203,-2.335846424102783,7.463228702545166
1772905549473773600,6.320773681640625,-0.40369200706481934,-3.8447072505950928,24.20603370666504
1772905549483773400,6.3307734375,-1.1331276893615723,-1.9410099983215332,7.100827693939209
1772905549493773600,6.340773681640625,-2.0882022380828857,3.0551257133483887,5.818171977996826
1772905549503773400,6.3507734375,-3.2959725856781006,-0.18803203105926514,6.289277076721191
1772905549513773600,6.360773681640625,-0.21791696548461914,-14.56450080871582,31.159412384033203
1772905549523773400,6.3707734375,-1.4728084802627563,6.463767051696777,-18.865352630615234
1772905549533773600,6.380773681640625,-1.4941508769989014,6.5234174728393555,-19.702993392944336
1772905549543773400,6.3907734375,-1.494722604751587,6.355747222900391,-19.85275650024414
1772905549553773600,6.400773681640625,-1.5200977325439453,6.2291693687438965,-20.259340286254883
1772905549563773400,6.4107734375,-1.5198018550872803,5.899280071258545,-20.044023513793945
1772905549573773600,6.420773681640625,-2.8806729316711426,4.655320167541504,-32
1772905549583773400,6.4307734375,-3.11818528175354,2.816382646560669,-32
1772905549593773600,6.440773681640625,-1.5308046340942383,5.049088001251221,-18.816272735595703
1772905549603773400,6.4507734375,-1.5130009651184082,4.800422668457031,-19.241653442382812
1772905549613773600,6.460773681640625,-1.51912260055542,4.671905994415283,-20.089609146118164
1772905549623773400,6.4707734375,-1.5328093767166138,4.430537700653076,-20.461715698242188
1772905549633773600,6.480773681640625,-1.5516242980957031,4.169003963470459,-20.56615447998047
1772905549643773400,6.4907734375,-1.5756112337112427,3.8721923828125,-20.742021560668945
1772905549653773600,6.500773681640625,-1.6289594173431396,3.653991222381592,-20.903274536132812
1772905549663773400,6.5107734375,-1.705642819404602,3.3174991607666016,-20.951047897338867
1772905549673773600,6.520773681640625,-1.6969629526138306,2.6326518058776855,-20.22696876525879
1772905549683773400,6.5307734375,-1.6333669424057007,2.479566812515259,-20.565502166748047
1772905549693773600,6.540773681640625,-1.6335809230804443,0.7531671524047852,-6.532416820526123
1772905549703773400,6.5507734375,-1.611283540725708,0.7283125519752502,-6.626972198486328
1772905549713773600,6.560773681640625,-1.6547966003417969,0.7429862022399902,-7.0217084884643555
1772905549723773400,6.5707734375,-1.6987580060958862,0.765412449836731,-7.42033052444458
1772905549733773600,6.580773681640625,-1.7452744245529175,0.789726197719574,-7.829521656036377
1772905549743773400,6.5907734375,-1.8114691972732544,0.8272987604141235,-8.41576099395752
1772905549753773600,6.600773681640625,-1.8270031213760376,0.8088787198066711,-8.78526782989502
1772905549763773400,6.6107734375,-1.8481687307357788,0.9168151617050171,-9.786723136901855
1772905549773773600,6.620773681640625,-1.9146308898925781,1.0418217182159424,-11.139761924743652
1772905549783773400,6.6307734375,-1.9564831256866455,1.15562105178833,-12.312192916870117
1772905549793773600,6.640773681640625,-1.9696886539459229,1.200723648071289,-13.496896743774414
1772905549803773400,6.6507734375,-1.938773274421692,1.2870643138885498,-14.725929260253906
1772905549813773600,6.660773681640625,-2.0084962844848633,1.5143711566925049,-16.39570426940918
1772905549823773400,6.6707734375,-2.090414524078369,1.5840483903884888,-17.03270149230957
1772905549833773600,6.680773681640625,-2.088992118835449,1.5746883153915405,-16.9843692779541
1772905549843773400,6.6907734375,-2.101142644882202,1.6087188720703125,-17.186307907104492
1772905549853773600,6.700773681640625,-2.077268600463867,1.6261039972305298,-17.064420700073242
1772905549863773400,6.7107734375,-1.476836919784546,1.0282307863235474,-8.644495010375977
1772905549873773600,6.720773681640625,-1.428322196006775,1.1118789911270142,-7.567417621612549
1772905549883773400,6.7307734375,-1.178682804107666,0.6456448435783386,-5.481930255889893
1772905549893773600,6.740773681640625,-0.6816758513450623,0.5982980728149414,-2.474961280822754
1772905549903773400,6.7507734375,-0.29122453927993774,0.05173518508672714,-0.29863855242729187
1772905549913773600,6.760773681640625,0.06047357991337776,0.005941641516983509,0.3135698139667511
1772905549923773400,6.7707734375,0.1310110092163086,-0.06924817711114883,0.7885168194770813
1772905549933773600,6.780773681640625,-0.13361294567584991,-0.040575843304395676,0.20380224287509918
1772905549943773400,6.7907734375,-0.051306143403053284,-0.10405271500349045,0.8517009019851685
1772905549953773600,6.800773681640625,-0.9092862010002136,-0.10701128840446472,-1.2731497287750244
1772905549963773400,6.8107734375,-1.1446181535720825,-0.12170729786157608,0.20894861221313477
1772905549973773600,6.820773681640625,0.3401523232460022,-0.9681117534637451,3.949345350265503
1772905549983773400,6.8307734375,-0.43191930651664734,2.0560293197631836,-11.205775260925293
1772905549993773600,6.840773681640625,-1.9903305768966675,2.221757650375366,-21.40106201171875
1772905550003773400,6.8507734375,-2.2985103130340576,0.060481034219264984,-0.1621500700712204
1772905550013773600,6.860773681640625,2.469539165496826,0.7853708863258362,8.513212203979492
1772905550023773400,6.8707734375,2.0802090167999268,0.9204018712043762,8.458127975463867
1772905550033773600,6.880773681640625,2.2608163356781006,1.863347053527832,6.034533500671387
1772905550043773400,6.8907734375,1.5993502140045166,3.0670154094696045,5.717738151550293
1772905550053773600,6.900773681640625,1.6826406717300415,1.7879559993743896,8.279212951660156
1772905550063773400,6.9107734375,2.7344911098480225,0.6877558827400208,6.8101630210876465
1772905550073773600,6.920773681640625,1.6502208709716797,0.8073488473892212,7.7473626136779785
1772905550083773400,6.9307734375,1.2452715635299683,1.1806437969207764,6.593863487243652
1772905550093773600,6.940773681640625,1.5916582345962524,1.23900306224823,6.088027477264404
1772905550103773400,6.9507734375,1.1951428651809692,1.6290669441223145,7.231827259063721
1772905550113773600,6.960773681640625,0.02273920737206936,0.7828871011734009,-0.04408802092075348
1772905550123773400,6.9707734375,-0.25820428133010864,0.975254237651825,-1.0536155700683594
1772905550133773600,6.980773681640625,-0.15600401163101196,0.9534338116645813,-0.7899508476257324
1772905550143773400,6.9907734375,-0.08948978781700134,0.917447566986084,-0.35141706466674805
1772905550153773600,7.000773681640625,0.0670369565486908,0.8472060561180115,0.05415080487728119
1772905550163773400,7.0107734375,0.1991349458694458,0.7599413394927979,0.48450618982315063
1772905550173773600,7.020773681640625,0.3340222239494324,0.6891771554946899,0.9994988441467285
1772905550183773400,7.0307734375,0.4483751356601715,0.6550209522247314,1.59437096118927
1772905550193773600,7.040773681640625,0.5425450205802917,2.013678789138794,7.571311950683594
1772905550203773400,7.0507734375,0.6928852200508118,1.734018087387085,10.011309623718262
1772905550213773600,7.060773681640625,1.6964455842971802,-9.38607406616211,27.233734130859375
1772905550223773400,7.0707734375,1.1634033918380737,1.1813209056854248,22.259422302246094
1772905550233773600,7.080773681640625,1.2426270246505737,0.9894935488700867,24.384490966796875
1772905550243773400,7.0907734375,1.3144835233688354,0.8724343776702881,26.310810089111328
1772905550253773600,7.100773681640625,1.413698673248291,0.7422665357589722,28.914215087890625
1772905550263773400,7.1107734375,1.51210355758667,0.6574727892875671,30.898670196533203
1772905550273773600,7.120773681640625,1.5541964769363403,0.6382042765617371,31.639450073242188
1772905550283773400,7.1307734375,1.5959593057632446,0.46617984771728516,34.68265914916992
1772905550293773600,7.140773681640625,1.6636968851089478,0.09127834439277649,11.291610717773438
1772905550303773400,7.1507734375,1.6849572658538818,0.12124631553888321,10.798996925354004
1772905550323773400,7.1707734375,1.4079039096832275,0.15236088633537292,8.584471702575684
1772905550333773600,7.180773681640625,1.2666001319885254,0.15055209398269653,7.61868953704834
1772905550343773400,7.1907734375,1.1407791376113892,0.13496607542037964,6.671359062194824
1772905550353773600,7.200773681640625,1.00404691696167,0.1410876363515854,5.649756908416748
1772905550363773400,7.2107734375,-2.5907175540924072,2.5115246772766113,-21.019929885864258
1772905550373773600,7.220773681640625,-2.7271218299865723,2.6446733474731445,-22.42650032043457
1772905550383773400,7.2307734375,-2.844874143600464,2.603538751602173,-23.262821197509766
1772905550393773600,7.240773681640625,0.41525909304618835,0.2581063508987427,2.275426149368286
1772905550403773400,7.2507734375,0.5304072499275208,0.3989342153072357,2.3052854537963867
1772905550413773600,7.260773681640625,-2.063589096069336,2.3416571617126465,-20.59807777404785
1772905550423773400,7.2707734375,-2.0754523277282715,2.404998779296875,-21.702238082885742
1772905550433773600,7.280773681640625,-1.116816759109497,1.7311681509017944,-15.501500129699707
1772905550443773400,7.2907734375,-0.9521828889846802,2.8515970706939697,-17.94763946533203
1772905550453773600,7.300773681640625,-0.4097965359687805,1.707451581954956,-19.386247634887695
1772905550463773400,7.3107734375,0.3501107692718506,3.3953440189361572,-17.19341278076172
1772905550473773600,7.320773681640625,-0.3560076951980591,4.05370569229126,-26.035791397094727
1772905550483773400,7.3307734375,-2.07900071144104,-2.488269090652466,-0.991370439529419
1772905550493773600,7.340773681640625,-0.9197428822517395,-4.0515265464782715,1.5052814483642578
1772905550503773400,7.3507734375,2.0711841583251953,1.5553888082504272,-11.767175674438477
1772905550513773600,7.360773681640625,-2.2343084812164307,7.765085220336914,-9.809473991394043
1772905550523773400,7.3707734375,-2.4652552604675293,1.2215858697891235,-7.550327301025391
1772905550533773600,7.380773681640625,0.6660738587379456,0.46697723865509033,-0.5152119398117065
1772905550543773400,7.3907734375,1.1961021423339844,0.07527924329042435,0.06442544609308243
1772905550553773600,7.400773681640625,1.0138254165649414,0.42681339383125305,0.043499287217855453
1772905550563773400,7.4107734375,1.3430440425872803,0.18657882511615753,0.23126302659511566
1772905550573773600,7.420773681640625,1.096778392791748,0.6024117469787598,0.0913156047463417
1772905550583773400,7.4307734375,1.194677710533142,0.3565208315849304,0.039686884731054306
1772905550603773400,7.4507734375,1.8678854703903198,0.42961761355400085,-0.4660574197769165
1772905550613773600,7.460773681640625,1.2524343729019165,0.0052304756827652454,-9.676057815551758
1772905550623773400,7.4707734375,-0.5657845735549927,-0.005121884401887655,1.5779566764831543
1772905550633773600,7.480773681640625,-0.9499684572219849,0.005082493182271719,1.0628958940505981
1772905550643773400,7.4907734375,2.404022693634033,0.0054178484715521336,-32
1772905550653773600,7.500773681640625,-1.2751543521881104,0.00509207509458065,-32.09785842895508
1772905550663773400,7.5107734375,-9.65896987915039,0.005035649985074997,-32.12449264526367
1772905550673773600,7.520773681640625,-1.1548705101013184,0.005490242503583431,-35
1772905550683773400,7.5307734375,-0.6813032627105713,0.005084622651338577,-32
1772905550693773600,7.540773681640625,-0.2946302592754364,0.005104850511997938,-32
1772905550703773400,7.5507734375,-0.24895168840885162,1.266277551651001,-21.58606719970703
1772905550713773600,7.560773681640625,0.2916131019592285,0.005437011830508709,-32
1772905550723773400,7.5707734375,0.6301056742668152,0.005154887679964304,-32
1772905550733773600,7.580773681640625,0.028639329597353935,0.005136788822710514,-32
1772905550743773400,7.5907734375,-0.7427945733070374,0.005137853790074587,-32.91518783569336
1772905550753773600,7.600773681640625,-0.6007285714149475,0.005310322158038616,-29.36789894104004
1772905550763773400,7.6107734375,-0.0672765001654625,0.529204249382019,-17.814483642578125
1772905550773773600,7.620773681640625,-0.06503228098154068,0.35226449370384216,-15.776735305786133
1772905550783773400,7.6307734375,0.004974966868758202,0.4791884124279022,-15.75961971282959
1772905550793773600,7.640773681640625,-0.26430776715278625,0.005132530350238085,-8.38353443145752
1772905550803773400,7.6507734375,-0.280666708946228,0.005465756636112928,-10.618707656860352
1772905550813773600,7.660773681640625,-0.338064581155777,0.005267736967653036,-13.435879707336426
1772905550823773400,7.6707734375,0.07682613283395767,0.22265984117984772,-15.102952003479004
1772905550833773600,7.680773681640625,0.03358874469995499,0.18788085877895355,-15.955069541931152
1772905550843773400,7.6907734375,-0.034182801842689514,0.18147610127925873,-17.202909469604492
1772905550853773600,7.700773681640625,-0.10115908086299896,0.14928200840950012,-18.67693519592285
1772905550863773400,7.7107734375,-0.19008781015872955,0.13397490978240967,-20.4464168548584
1772905550873773600,7.720773681640625,-0.27640822529792786,0.09087591618299484,-22.307193756103516
1772905550883773400,7.7307734375,-0.366909384727478,0.06335444003343582,-24.268728256225586
1772905550893773600,7.740773681640625,-1.620933175086975,0.005121884401887655,-32
1772905550903773400,7.7507734375,-1.5477395057678223,0.005307128187268972,-32
1772905550913773600,7.760773681640625,-1.6825981140136719,0.005406137555837631,-32
1772905550923773400,7.7707734375,-1.8200745582580566,0.005325226578861475,-32
1772905550933773600,7.780773681640625,-2.094527006149292,2.151597023010254,-17.882003784179688
1772905550943773400,7.7907734375,-2.9204578399658203,2.6078109741210938,-19.514881134033203
1772905550953773600,7.800773681640625,-0.9965391755104065,0.14805343747138977,-10.487419128417969
1772905550963773400,7.8107734375,-0.9777444005012512,0.20165596902370453,-10.319042205810547
1772905550973773600,7.820773681640625,-1.049879789352417,0.25845980644226074,-10.408799171447754
1772905550983773400,7.8307734375,-1.1338410377502441,0.30917081236839294,-10.574712753295898
1772905550993773600,7.840773681640625,-1.2332946062088013,0.36017993092536926,-10.734882354736328
1772905551003773400,7.8507734375,-3.2459418773651123,1.3914119005203247,-13.427173614501953
1772905551013773600,7.860773681640625,-3.1436424255371094,0.8887986540794373,-13.789093971252441
1772905551023773400,7.8707734375,-9.647594451904297,0.49640119075775146,-9.111361503601074
1772905551033773600,7.880773681640625,-2.915358304977417,-0.07145193964242935,-5.046922206878662
1772905551043773400,7.8907734375,-2.841001033782959,0.1647849977016449,-11.68387508392334
1772905551053773600,7.900773681640625,-11.240266799926758,0.29295027256011963,-21.04108428955078
1772905551063773400,7.9107734375,-13.051790237426758,0.791248619556427,-9.619354248046875
1772905551073773600,7.920773681640625,-1.9113038778305054,1.15168297290802,1.281587839126587
1772905551083773400,7.9307734375,0.014623613096773624,-0.5010769963264465,-14.090274810791016
1772905551093773600,7.940773681640625,-3.2504162788391113,2.1999499797821045,-12.559412956237793
1772905551103773400,7.9507734375,-3.423419237136841,-0.7104206085205078,-2.4115302562713623
1772905551113773600,7.960773681640625,0.47307005524635315,0.0831286832690239,1.3064595460891724
1772905551123773400,7.9707734375,0.8585793972015381,-0.4788307249546051,0.6117239594459534
1772905551133773600,7.980773681640625,-0.19677893817424774,-0.7411103844642639,-0.9464030861854553
1772905551143773400,7.9907734375,-0.552426815032959,-0.12748073041439056,0.2011779546737671
1772905551153773600,8.000773681640625,-0.5061892867088318,-0.00914827547967434,0.28542661666870117
1772905551163773400,8.0107734375,-0.45155835151672363,-0.11768516898155212,0.2018965631723404
1772905551173773600,8.020773681640625,-0.27668502926826477,-0.17903172969818115,0.38424885272979736
1772905551183773400,8.0307734375,-0.3040319085121155,-0.16595076024532318,0.058299627155065536
1772905551193773600,8.040773681640625,-0.920425295829773,-0.012852086685597897,-0.8762531876564026
1772905551203773400,8.0507734375,-1.3237361907958984,0.16243857145309448,0.5884130597114563
1772905551213773600,8.060773681640624,0.6505314707756042,0.20938509702682495,7.632534980773926
1772905551223773400,8.0707734375,-1.8587149381637573,0.4927261173725128,-5.134737491607666
1772905551233773600,8.080773681640625,-1.8560874462127686,0.5032945871353149,-4.879206657409668
1772905551243773400,8.0907734375,-1.817801594734192,0.3969157040119171,-4.451785087585449
1772905551253773600,8.100773681640625,-1.622836709022522,0.3462376892566681,-3.771091938018799
1772905551263773400,8.1107734375,-1.4087088108062744,0.26656579971313477,-3.218074321746826
1772905551273773600,8.120773681640625,-1.2716495990753174,0.1892872154712677,-2.980477809906006
1772905551283773400,8.1307734375,-0.42183417081832886,0.26113519072532654,0.6023765802383423
1772905551293773600,8.140773681640624,-0.4475404918193817,0.7086639404296875,0.4516456425189972
1772905551303773400,8.1507734375,-0.41753098368644714,0.616159200668335,-4.073435306549072
1772905551313773600,8.160773681640626,-0.9311630129814148,0.09778210520744324,-1.81601083278656
1772905551323773400,8.1707734375,-1.2671058177947998,0.26939132809638977,-3.2884902954101562
1772905551333773600,8.180773681640625,-0.8271507620811462,0.12756909430027008,-2.1077113151550293
1772905551343773400,8.1907734375,-1.205222725868225,0.2309095710515976,-3.385798692703247
1772905551353773600,8.200773681640625,-0.7508026361465454,0.1803327053785324,-2.4297523498535156
1772905551363773400,8.2107734375,-1.1701093912124634,0.23098303377628326,-3.774198532104492
1772905551373773600,8.220773681640624,-0.6783468127250671,0.20525650680065155,-3.397676706314087
1772905551383773400,8.2307734375,-0.7407292127609253,0.2661122977733612,-3.512899398803711
1772905551393773600,8.240773681640626,-0.6859598755836487,0.2486993670463562,-3.616090774536133
1772905551403773400,8.2507734375,-0.6238659620285034,0.3133781850337982,-3.9925200939178467
1772905551413773600,8.260773681640625,-1.608877420425415,1.664513349533081,-20.59202003479004
1772905551423773400,8.2707734375,-1.6548221111297607,1.964064359664917,-21.05521583557129
1772905551433773600,8.280773681640625,-1.6640534400939941,2.0745718479156494,-21.47334098815918
1772905551443773400,8.2907734375,-0.8607778549194336,0.5857621431350708,-6.608050346374512
1772905551453773600,8.300773681640624,-0.8958655595779419,0.6522306203842163,-7.313179016113281
1772905551463773400,8.3107734375,-1.1475032567977905,2.4042599201202393,-15.779749870300293
1772905551473773600,8.320773681640626,-1.029626488685608,1.885491132736206,-12.277174949645996
1772905551483773400,8.3307734375,-0.555764377117157,1.748477816581726,-8.533239364624023
1772905551493773600,8.340773681640625,-0.5198664665222168,1.5877457857131958,-6.817611217498779
1772905551503773400,8.3507734375,-0.5887154340744019,2.0378689765930176,-7.313852787017822
1772905551513773600,8.360773681640625,-0.9796702861785889,2.6992244720458984,-11.30177116394043
1772905551523773400,8.3707734375,-1.8503704071044922,5.252403259277344,-18.330522537231445
1772905551533773600,8.380773681640624,-2.013735294342041,5.761847496032715,-24.932037353515625
1772905551543773400,8.3907734375,-1.968770980834961,6.346914291381836,-25.566003799438477
1772905551553773600,8.400773681640626,-1.2395492792129517,1.6832677125930786,-14.050585746765137
1772905551563773400,8.4107734375,-1.4076346158981323,1.9289265871047974,-15.134865760803223
1772905551573773600,8.420773681640625,-1.0554094314575195,6.64579439163208,-18.434091567993164
1772905551583773400,8.4307734375,-1.1707524061203003,8.964451789855957,-17.39064598083496
1772905551593773600,8.440773681640625,-1.0221060514450073,8.951201438903809,-21.80072021484375
1772905551603773400,8.4507734375,-0.8868588805198669,8.932014465332031,-17.94432830810547
1772905551613773600,8.460773681640624,0.5281832814216614,6.686580181121826,-14.337904930114746
1772905551623773400,8.4707734375,1.2659730911254883,10.10649299621582,-12.172921180725098
1772905551633773600,8.480773681640626,-0.5313835144042969,18.711381912231445,-22.21328353881836
1772905551643773400,8.4907734375,-3.087228298187256,-0.16577403247356415,-7.385173797607422
1772905551653773600,8.500773681640625,-1.0191665887832642,-1.470054268836975,0.1597812920808792
1772905551663773400,8.5107734375,0.7163515686988831,3.5901565551757812,-3.799128770828247
1772905551673773600,8.520773681640625,-1.4622527360916138,8.514960289001465,-10.481710433959961
1772905551683773400,8.5307734375,-1.7408615350723267,3.4467203617095947,-1.5301754474639893
1772905551693773600,8.540773681640625,0.3772415220737457,-0.02389325574040413,1.337567687034607
1772905551703773400,8.5507734375,0.17052967846393585,0.8635799288749695,-0.6783882975578308
1772905551713773600,8.560773681640624,-1.053280234336853,3.247366189956665,-3.296304702758789
1772905551723773400,8.5707734375,-1.5856122970581055,-0.6233570575714111,1.0527127981185913
1772905551733773600,8.580773681640625,-1.5957390069961548,-0.4519192576408386,2.6164960861206055
1772905551743773400,8.5907734375,-2.176555871963501,0.19854727387428284,0.16160710155963898
1772905551753773600,8.600773681640625,-3.1133668422698975,2.1583755016326904,-0.08939716219902039
1772905551763773400,8.6107734375,-10.834095001220703,0.7089556455612183,-0.3958500027656555
1772905551773773600,8.620773681640625,-2.1778461933135986,-1.1635407209396362,3.3010623455047607
1772905551783773400,8.6307734375,0.5222522616386414,7.408994674682617,-7.395177841186523
1772905551793773600,8.640773681640624,-1.3992847204208374,7.649079322814941,-21.5163631439209
1772905551803773400,8.6507734375,-1.3353862762451172,3.515219211578369,-7.006966590881348
1772905551813773600,8.660773681640626,-1.314872145652771,3.3695547580718994,-6.573797702789307
1772905551823773400,8.6707734375,-1.462957501411438,1.3318294286727905,-9.867257118225098
1772905551833773600,8.680773681640625,-10.739527702331543,6.4196553230285645,-25.204790115356445
1772905551843773400,8.6907734375,-9.19648551940918,4.861423969268799,-10.690759658813477
1772905551853773600,8.700773681640625,-2.393996000289917,3.395153522491455,-6.3272786140441895
1772905551863773400,8.7107734375,-1.4773213863372803,3.07336163520813,-5.687205791473389
1772905551873773600,8.720773681640624,-1.5159862041473389,3.0110814571380615,-5.670236587524414
1772905551883773400,8.7307734375,-2.112309455871582,3.951916456222534,-13.349803924560547
1772905551893773600,8.740773681640626,-2.4533283710479736,0.005031391512602568,-32
1772905551903773400,8.7507734375,-1.6444346904754639,3.6462109088897705,-17.571714401245117
1772905551913773600,8.760773681640625,-1.7487620115280151,3.4027507305145264,-17.58395004272461
1772905551923773400,8.7707734375,-1.8789395093917847,3.0889732837677,-17.739660263061523
1772905551933773600,8.780773681640625,-1.9464693069458008,2.637861967086792,-17.24159049987793
1772905551943773400,8.7907734375,-1.901785135269165,2.651916980743408,-17.331207275390625
1772905551953773600,8.800773681640624,-1.901978850364685,2.7391796112060547,-18.062397003173828
1772905551963773400,8.8107734375,-1.9406459331512451,2.5762460231781006,-17.72838020324707
1772905551973773600,8.820773681640626,-1.9078491926193237,2.2935075759887695,-16.824838638305664
1772905551983773400,8.8307734375,-1.8766601085662842,2.1349475383758545,-17.042757034301758
1772905551993773600,8.840773681640625,-1.918540120124817,2.1372714042663574,-18.051937103271484
1772905552003773400,8.8507734375,-1.9572336673736572,2.0795297622680664,-18.56302833557129
1772905552013773600,8.860773681640625,-1.9580864906311035,1.9272050857543945,-18.65547752380371
1772905552023773400,8.8707734375,-1.946235179901123,1.9718903303146362,-19.8402099609375
1772905552033773600,8.880773681640624,-1.9376649856567383,2.0060508251190186,-21.445674896240234
1772905552043773400,8.8907734375,-1.9128912687301636,1.989828109741211,-22.606271743774414
1772905552053773600,8.900773681640626,-1.8577312231063843,1.8749748468399048,-23.786088943481445
1772905552063773400,8.9107734375,-1.7726733684539795,1.8257042169570923,-24.979328155517578
1772905552073773600,8.920773681640625,-1.7919888496398926,0.005019681062549353,-33.668399810791016
1772905552083773400,8.9307734375,-2.2333481311798096,0.00521131232380867,-32
1772905552093773600,8.940773681640625,-2.3307459354400635,0.005226217210292816,-32
1772905552103773400,8.9507734375,-2.468731164932251,0.0050792996771633625,-32
1772905552113773600,8.960773681640624,-2.4768149852752686,0.005267736967653036,-35
1772905552123773400,8.9707734375,-2.3468992710113525,0.005017551593482494,-32
1772905552133773600,8.980773681640626,-2.0446901321411133,0.005356100387871265,-21.85912322998047
1772905552143773400,8.9907734375,-2.513021469116211,0.00509633356705308,-35
1772905552153773600,9.000773681640625,-1.2539482116699219,0.005080364178866148,-32
1772905552163773400,9.0107734375,-1.9833115339279175,-0.00543275335803628,-32
1772905552173773600,9.020773681640625,-1.2265055179595947,-0.005114431958645582,-30.62322998046875
1772905552183773400,9.0307734375,-0.08234086632728577,0.005099527537822723,-21.208646774291992
1772905552193773600,9.040773681640625,-1.2353003025054932,0.005192149430513382,-32
1772905552203773400,9.0507734375,-0.9477136135101318,0.005476402584463358,-30.52808952331543
1772905552213773600,9.060773681640624,-2.2827048301696777,-0.0054380763322114944,-1.8725581169128418
1772905552223773400,9.0707734375,1.6309044361114502,-0.005058007314801216,-0.7719491720199585
1772905552233773600,9.080773681640625,1.5337163209915161,-0.005148499738425016,-1.9560424089431763
1772905552243773400,9.0907734375,2.478909969329834,-0.005132530350238085,1.1809706687927246
1772905552253773600,9.100773681640625,2.545827865600586,-0.005076105706393719,-2.4147305488586426
1772905552263773400,9.1107734375,2.0636849403381348,-0.005112302955240011,-0.3408219516277313
1772905552273773600,9.120773681640625,1.2298558950424194,-0.005302869714796543,6.827363014221191
1772905552283773400,9.1307734375,1.0776227712631226,-0.005345454439520836,7.245450019836426
1772905552293773600,9.140773681640624,0.21105122566223145,0.9779690504074097,1.5154134035110474
1772905552303773400,9.1507734375,0.5923968553543091,0.7786637544631958,2.847996473312378
1772905552313773600,9.160773681640626,0.6241863965988159,1.384924054145813,3.0622949600219727
1772905552323773400,9.1707734375,-0.2630472481250763,-2.3321831226348877,9.950580596923828
1772905552333773600,9.180773681640625,1.0812925100326538,-8.467984199523926,21.97688865661621
1772905552343773400,9.1907734375,-0.5236842036247253,-0.2095852494239807,-3.5999245643615723
1772905552353773600,9.200773681640625,-0.4772167503833771,-0.19497761130332947,-3.259568929672241
1772905552363773400,9.2107734375,-0.40308621525764465,-0.36305972933769226,-2.646580219268799
1772905552373773600,9.220773681640624,0.16975463926792145,-12.824114799499512,17.6828556060791
1772905552383773400,9.2307734375,-0.025426307693123817,-14.419986724853516,12.476669311523438
1772905552393773600,9.240773681640626,-0.6265626549720764,-15.333929061889648,15.549294471740723
1772905552403773400,9.2507734375,-1.0429438352584839,-10.74787425994873,14.132749557495117
1772905552413773600,9.260773681640625,-0.08054272085428238,-1.4765846729278564,-0.027923904359340668
1772905552423773400,9.2707734375,-0.3847673237323761,-1.2839289903640747,-0.6657289266586304
1772905552433773600,9.280773681640625,-0.3063293397426605,-1.4086501598358154,-0.3666677176952362
1772905552443773400,9.2907734375,-0.222770556807518,-1.5085679292678833,-0.1074531078338623
1772905552453773600,9.300773681640624,0.433246910572052,-3.1065638065338135,9.241182327270508
1772905552463773400,9.3107734375,0.31931450963020325,-1.3830397129058838,5.852432727813721
1772905552473773600,9.320773681640626,0.3834429383277893,-1.0529299974441528,0.710858166217804
1772905552483773400,9.3307734375,-0.7638410329818726,0.45982831716537476,-1.0664708614349365
1772905552493773600,9.340773681640625,0.08507587015628815,-1.6458048820495605,0.9374464154243469
1772905552503773400,9.3507734375,0.1327953040599823,-1.6248009204864502,1.155198335647583
1772905552513773600,9.360773681640625,0.14411434531211853,-1.6138406991958618,1.4013139009475708
1772905552523773400,9.3707734375,0.18518203496932983,-1.6179618835449219,1.7090634107589722
1772905552533773600,9.380773681640624,0.20673739910125732,-1.6345582008361816,2.023599863052368
1772905552543773400,9.3907734375,0.20796597003936768,-1.6655875444412231,2.5335261821746826
1772905552553773600,9.400773681640626,0.24278435111045837,-1.7007551193237305,3.3079802989959717
1772905552563773400,9.4107734375,0.0651664212346077,-2.251150608062744,5.649338245391846
1772905552573773600,9.420773681640625,0.033436503261327744,-2.3072104454040527,5.940762042999268
1772905552583773400,9.4307734375,0.009947804734110832,-2.368248224258423,6.262424945831299
1772905552593773600,9.440773681640625,0.0358787402510643,-2.506382465362549,6.6064324378967285
1772905552603773400,9.4507734375,0.046500448137521744,-2.631887435913086,6.877702713012695
1772905552613773600,9.460773681640624,0.05618742108345032,-2.7911384105682373,7.1500725746154785
1772905552623773400,9.4707734375,0.09680584818124771,-2.7596938610076904,7.186361312866211
1772905552633773600,9.480773681640626,0.09831760823726654,-2.5706675052642822,6.9533162117004395
1772905552643773400,9.4907734375,0.13864220678806305,-2.355329990386963,6.9516754150390625
1772905552653773600,9.500773681640625,0.17900192737579346,-2.456352949142456,7.329784870147705
1772905552663773400,9.5107734375,0.1923714131116867,-2.194495916366577,7.258968353271484
1772905552673773600,9.520773681640625,1.0399246215820312,-1.0439541339874268,8.453752517700195
1772905552683773400,9.5307734375,1.075700044631958,-1.011783480644226,7.614177703857422
1772905552693773600,9.540773681640625,1.2380321025848389,-1.135469913482666,8.23835563659668
1772905552703773400,9.5507734375,1.2431635856628418,-1.159414291381836,7.715981960296631
1772905552713773600,9.560773681640624,1.307828664779663,-1.4914371967315674,8.505080223083496
1772905552723773400,9.5707734375,0.4954366385936737,-1.0031919479370117,6.292561054229736
1772905552733773600,9.580773681640625,0.5126515626907349,-0.9424576163291931,6.194284915924072
1772905552743773400,9.5907734375,0.5457941889762878,-0.9035968780517578,6.083630561828613
1772905552753773600,9.600773681640625,0.5884630680084229,-0.892163872718811,6.014007568359375
1772905552763773400,9.6107734375,2.3441195487976074,-2.1271438598632812,4.189181804656982
1772905552773773600,9.620773681640625,1.8744020462036133,-3.300436496734619,2.4448091983795166
1772905552783773400,9.6307734375,2.809474468231201,-3.093055009841919,1.113059639930725
1772905552793773600,9.640773681640624,2.3219127655029297,-3.7606117725372314,-0.15682484209537506
1772905552803773400,9.6507734375,3.2594411373138428,-4.307270526885986,-0.2969042658805847
1772905552813773600,9.660773681640626,3.071748733520508,-5.272848606109619,-1.8078175783157349
1772905552823773400,9.6707734375,3.3474862575531006,-8.21258544921875,-0.6934079527854919
1772905552833773600,9.680773681640625,3.086207389831543,-11.319273948669434,-0.9111843705177307
1772905552843773400,9.6907734375,-0.273023784160614,-21.00507164001465,2.4024298191070557
1772905552853773600,9.700773681640625,1.5931082963943481,-1.4473140239715576,2.3393735885620117
1772905552863773400,9.7107734375,1.3605400323867798,-3.4386017322540283,1.4700084924697876
1772905552873773600,9.720773681640624,2.2407143115997314,-4.682614803314209,4.50150203704834
1772905552883773400,9.7307734375,2.4447293281555176,-10.092479705810547,2.9091641902923584
1772905552893773600,9.740773681640626,1.1065846681594849,-21.346965789794922,4.786870956420898
1772905552903773400,9.7507734375,10.59032917022705,-3.2076644897460938,1.390833854675293
1772905552913773600,9.760773681640625,1.8119099140167236,0.747325599193573,-4.810732364654541
1772905552923773400,9.7707734375,-2.726135015487671,0.9114462733268738,-0.2011023610830307
1772905552933773600,9.780773681640625,-1.5089352130889893,-0.2642289698123932,5.578195095062256
1772905552943773400,9.7907734375,-1.8910611867904663,0.3411051332950592,2.1469340324401855
1772905552953773600,9.800773681640624,-2.915461540222168,1.9745092391967773,0.16880179941654205
1772905552963773400,9.8107734375,-2.74607515335083,3.322775363922119,-1.0569584369659424
1772905552973773600,9.820773681640626,1.1048567295074463,-2.2874233722686768,1.933730125427246
1772905552983773400,9.8307734375,1.041142463684082,-1.8228883743286133,2.444676160812378
1772905552993773600,9.840773681640625,0.9435392618179321,-1.6765776872634888,2.025688648223877
1772905553003773400,9.8507734375,0.8542964458465576,-1.5055092573165894,1.6106075048446655
1772905553013773600,9.860773681640625,0.7349696159362793,-1.3263859748840332,1.1958402395248413
1772905553023773400,9.8707734375,0.6300960779190063,-1.1255817413330078,0.8456847667694092
1772905553033773600,9.880773681640624,0.5961666703224182,-1.0532547235488892,0.5693649053573608
1772905553043773400,9.8907734375,0.5124205350875854,-1.0525977611541748,0.4887242317199707
1772905553053773600,9.900773681640626,0.4847968518733978,-0.9443472623825073,0.3524901866912842
1772905553063773400,9.9107734375,0.4029339849948883,-0.8970164656639099,0.09254950284957886
1772905553073773600,9.920773681640625,0.2449263632297516,-0.7678514719009399,-0.162343829870224
1772905553093773600,9.940773681640625,-2.591158151626587,1.7310532331466675,-18.73813819885254
1772905553103773400,9.9507734375,-2.056159257888794,2.694169759750366,-16.13892364501953
1772905553113773600,9.960773681640624,-2.268376111984253,2.185790538787842,-15.724747657775879
1772905553123773400,9.9707734375,-0.9810447096824646,0.18747523427009583,-2.528869390487671
1772905553133773600,9.980773681640626,-0.45550277829170227,-0.14258448779582977,-2.2504842281341553
1772905553153773600,10.000773681640625,-0.6201621294021606,-0.013774046674370766,-2.4250307083129883
1772905553163773400,10.0107734375,-0.704553484916687,0.04005950316786766,-2.371335506439209
1772905553173773600,10.020773681640625,-0.7826337218284607,0.10533984005451202,-2.237989902496338
1772905553183773400,10.0307734375,-0.8622310757637024,0.1926056295633316,-2.1204142570495605
1772905553193773600,10.040773681640625,-0.9312535524368286,0.3049655854701996,-1.9636554718017578
1772905553203773400,10.0507734375,-0.9021627902984619,0.48585188388824463,-1.9241219758987427
1772905553213773600,10.060773681640624,-0.9248434901237488,0.5022385120391846,-1.8762321472167969
1772905553223773400,10.0707734375,-0.9403421878814697,0.5527429580688477,-1.807068109512329
1772905553233773600,10.080773681640625,-0.9818772673606873,0.624351441860199,-1.813653826713562
1772905553243773400,10.0907734375,-1.030138611793518,0.7533226013183594,-1.7906527519226074
1772905553253773600,10.100773681640625,-1.0423390865325928,0.989011287689209,-1.8058671951293945
1772905553263773400,10.1107734375,-1.1312081813812256,1.0406665802001953,-1.7485853433609009
1772905553273773600,10.120773681640625,-1.1560468673706055,0.9804719686508179,-1.5068347454071045
1772905553283773400,10.1307734375,-1.0550559759140015,0.9158452749252319,-1.3866498470306396
1772905553293773600,10.140773681640624,-0.9858759641647339,0.8954280018806458,-1.4086076021194458
1772905553303773400,10.1507734375,-0.903856635093689,0.8489882349967957,-1.3574473857879639
1772905553313773600,10.160773681640626,-0.7864663600921631,0.7530532479286194,-1.2262595891952515
1772905553323773400,10.1707734375,1.6544867753982544,-1.608972191810608,8.995361328125
1772905553333773600,10.180773681640625,2.2054283618927,-2.6963276863098145,12.110333442687988
1772905553343773400,10.1907734375,2.430976629257202,-2.5683412551879883,14.474127769470215
1772905553353773600,10.200773681640625,2.5613808631896973,-2.6702253818511963,14.897663116455078
1772905553363773400,10.2107734375,2.5698721408843994,-2.7762115001678467,14.651007652282715
1772905553373773600,10.220773681640624,2.7271580696105957,-3.173006772994995,16.18303108215332
1772905553383773400,10.2307734375,2.720553159713745,-2.7410013675689697,12.970419883728027
1772905553393773600,10.240773681640626,3.273693084716797,-4.572998523712158,17.891942977905273
1772905553403773400,10.2507734375,3.3565151691436768,-2.281825542449951,10.905412673950195
1772905553413773600,10.260773681640625,0.8869547247886658,-0.006662388797849417,0.5583567023277283
1772905553423773400,10.2707734375,1.6087145805358887,-4.11680269241333,22.504589080810547
1772905553433773600,10.280773681640625,10.742233276367188,-1.9916496276855469,16.269893646240234
1772905553443773400,10.2907734375,9.633420944213867,-0.5585653781890869,18.61371421813965
1772905553453773600,10.300773681640624,0.6779220104217529,-4.722837448120117,9.079276084899902
1772905553463773400,10.3107734375,-0.40588831901550293,-2.879359245300293,5.09163761138916
1772905553473773600,10.320773681640626,-1.4602928161621094,-2.838974952697754,2.6684718132019043
1772905553483773400,10.3307734375,-2.0277137756347656,-2.3810482025146484,0.6258546710014343
1772905553493773600,10.340773681640625,-2.082425594329834,-3.3477821350097656,0.128744438290596
1772905553503773400,10.3507734375,-2.371413230895996,-3.8008172512054443,-0.6436008214950562
1772905553513773600,10.360773681640625,-2.413442373275757,-4.302666187286377,-2.1980602741241455
1772905553523773400,10.3707734375,-2.281482696533203,-5.970029354095459,-3.7599740028381348
1772905553533773600,10.380773681640624,-2.886610269546509,-0.5469557046890259,-8.171972274780273
1772905553543773400,10.3907734375,-0.9544611573219299,-0.8132681250572205,-1.7280477285385132
1772905553553773600,10.400773681640626,0.8204947710037231,0.29082316160202026,4.690763473510742
1772905553563773400,10.4107734375,0.7894185185432434,0.07782794535160065,-4.341028690338135
1772905553573773600,10.420773681640625,1.7311851978302002,0.9266075491905212,-8.973928451538086
1772905553593773600,10.440773681640625,0.8344658017158508,-1.759552001953125,2.6574807167053223
1772905553603773400,10.4507734375,0.8156284093856812,-1.5257636308670044,2.2870965003967285
1772905553613773600,10.460773681640624,0.8007567524909973,-1.4820141792297363,1.7511096000671387
1772905553623773400,10.4707734375,0.788987398147583,-1.4357213973999023,1.2946507930755615
1772905553633773600,10.480773681640626,0.787912130355835,-1.3629844188690186,0.8992829918861389
1772905553643773400,10.4907734375,0.8021056056022644,-1.2879340648651123,0.5783300399780273
1772905553653773600,10.500773681640625,0.82402503490448,-1.1977980136871338,0.32459715008735657
1772905553663773400,10.5107734375,0.8692447543144226,-1.0977855920791626,0.1702081710100174
1772905553673773600,10.520773681640625,0.8274531364440918,-1.0627180337905884,0.016059784218668938
1772905553683773400,10.5307734375,0.7259672284126282,-0.9302059412002563,-0.19610397517681122
1772905553693773600,10.540773681640625,0.5846826434135437,-0.7707216739654541,-0.511578381061554
1772905553703773400,10.5507734375,0.4358285963535309,-0.6330152750015259,-0.8985739946365356
1772905553713773600,10.560773681640624,0.28904420137405396,-0.5027772188186646,-1.3498704433441162
1772905553723773400,10.5707734375,0.14631491899490356,-0.39914074540138245,-1.8119940757751465
1772905553733773600,10.580773681640625,0.02528471313416958,-0.2959950864315033,-2.2646446228027344
1772905553743773400,10.5907734375,-0.08289766311645508,-0.223825603723526,-2.607056140899658
1772905553753773600,10.600773681640625,-0.1895991414785385,-0.14407920837402344,-2.9941604137420654
1772905553763773400,10.6107734375,-0.2960834503173828,-0.0932265967130661,-3.290269374847412
1772905553773773600,10.620773681640625,-0.6760653257369995,0.21552157402038574,-7.10105037689209
1772905553783773400,10.6307734375,-0.6167532205581665,0.2782510817050934,-7.122643947601318
1772905553793773600,10.640773681640624,-0.552253246307373,0.35323861241340637,-7.070993900299072
1772905553803773400,10.6507734375,-0.4724738597869873,0.4389117360115051,-6.896848678588867
1772905553813773600,10.660773681640626,-0.38626205921173096,0.533624529838562,-6.598508358001709
1772905553823773400,10.6707734375,-0.3022784888744354,0.6571342349052429,-6.216907024383545
1772905553833773600,10.680773681640625,-0.19425685703754425,0.6730279326438904,-5.682403087615967
1772905553843773400,10.6907734375,-0.14874544739723206,0.7006420493125916,-5.40040922164917
1772905553853773600,10.700773681640625,-0.1620127260684967,0.681520402431488,-5.508557319641113
1772905553863773400,10.7107734375,-0.1752863973379135,0.6767019629478455,-5.134366035461426
1772905553873773600,10.720773681640624,0.519208550453186,-0.28621336817741394,1.3083981275558472
1772905553883773400,10.7307734375,0.49044251441955566,-0.22473372519016266,1.0931757688522339
1772905553893773600,10.740773681640626,0.48459136486053467,-0.18653729557991028,1.067489743232727
1772905553903773400,10.7507734375,0.5571068525314331,-0.25076472759246826,1.3559600114822388
1772905553913773600,10.760773681640625,1.0995826721191406,-0.5088774561882019,3.1305699348449707
1772905553923773400,10.7707734375,2.1241447925567627,-1.9798132181167603,11.858698844909668
1772905553933773600,10.780773681640625,3.102074384689331,-2.302807092666626,18.960832595825195
1772905553943773400,10.7907734375,3.023390531539917,-2.2937545776367188,17.93227195739746
1772905553953773600,10.800773681640624,2.650176525115967,-2.291619062423706,14.012811660766602
1772905553963773400,10.8107734375,3.0390031337738037,-3.768239736557007,18.648332595825195
1772905553973773600,10.820773681640626,3.322425127029419,-3.842634439468384,14.839262962341309
1772905553983773400,10.8307734375,2.8276453018188477,-5.270405292510986,14.91958236694336
1772905553993773600,10.840773681640625,9.907697677612305,-5.357252597808838,15.662994384765625
1772905554003773400,10.8507734375,3.3433194160461426,-8.692788124084473,15.188664436340332
1772905554013773600,10.860773681640625,9.595423698425293,-9.57811450958252,24.414831161499023
1772905554023773400,10.8707734375,2.8829214572906494,-4.031538486480713,26.230335235595703
1772905554033773600,10.880773681640624,0.7136133909225464,-3.6588246822357178,3.032525062561035
1772905554043773400,10.8907734375,0.3538965582847595,-0.15240879356861115,-0.32627072930336
1772905554053773600,10.900773681640626,-0.06097821146249771,-0.9984246492385864,-0.3147132396697998
1772905554063773400,10.9107734375,2.206272602081299,-1.0687555074691772,0.5657387971878052
1772905554073773600,10.920773681640625,1.8158533573150635,-0.9299877285957336,-0.19646593928337097
1772905554083773400,10.9307734375,0.8208801746368408,-0.41824960708618164,-1.7199875116348267
1772905554093773600,10.940773681640625,0.8187786340713501,-0.8517126441001892,-0.8842601776123047
1772905554103773400,10.9507734375,0.7997741103172302,-0.3667241632938385,-1.3643056154251099
1772905554113773600,10.960773681640624,0.7729606032371521,-0.38128921389579773,-1.3795424699783325
1772905554123773400,10.9707734375,0.7804831862449646,-0.5049107074737549,-1.4074897766113281
1772905554133773600,10.980773681640626,1.3503282070159912,-1.2131041288375854,3.338179349899292
1772905554143773400,10.9907734375,1.6319615840911865,-1.575752854347229,3.648569107055664
1772905554153773600,11.000773681640625,1.680234670639038,-1.6395363807678223,3.6101043224334717
1772905554163773400,11.0107734375,-0.09923850744962692,-0.03102939948439598,0.46075984835624695
1772905554173773600,11.020773681640625,-2.0584182739257812,-0.12983886897563934,-15.77456283569336
1772905554183773400,11.0307734375,-3.258751153945923,3.22603440284729,-22.04096221923828
1772905554193773600,11.040773681640625,-9.619290351867676,1.546418309211731,-18.228654861450195
1772905554203773400,11.0507734375,1.2902357578277588,-1.3373515605926514,1.7784521579742432
1772905554213773600,11.060773681640624,1.148510456085205,-1.0752720832824707,1.6079384088516235
1772905554223773400,11.0707734375,1.066413402557373,-1.0409541130065918,1.3974206447601318
1772905554233773600,11.080773681640625,0.9735540747642517,-0.9972620606422424,1.1978672742843628
1772905554243773400,11.0907734375,0.8793384432792664,-0.9510267376899719,1.0127767324447632
1772905554253773600,11.100773681640625,0.7656551599502563,-0.8697770833969116,0.7657914161682129
1772905554263773400,11.1107734375,0.6369873881340027,-0.7791205048561096,0.5075669288635254
1772905554273773600,11.120773681640625,0.4841250777244568,-0.6816726326942444,0.24091807007789612
1772905554283773400,11.1307734375,0.3037817180156708,-0.557194173336029,-0.0453495979309082
1772905554293773600,11.140773681640624,0.09578168392181396,-0.4318799376487732,-0.40049493312835693
1772905554303773400,11.1507734375,-0.10743287950754166,-0.3203461170196533,-0.8406501412391663
1772905554313773600,11.160773681640626,-0.2985469698905945,-0.2148497998714447,-1.3264967203140259
1772905554323773400,11.1707734375,-0.4968760013580322,-0.10535474121570587,-1.9301646947860718
1772905554333773600,11.180773681640625,-0.6982711553573608,-0.005334808025509119,-2.56654953956604
1772905554343773400,11.1907734375,-0.8840046525001526,0.10332557559013367,-3.2632524967193604
1772905554353773600,11.200773681640625,-1.6752437353134155,0.8231115937232971,-7.581277847290039
1772905554363773400,11.2107734375,-1.8662843704223633,0.9405199885368347,-8.286049842834473
1772905554373773600,11.220773681640624,-2.037301540374756,1.0604217052459717,-8.87951946258545
1772905554383773400,11.2307734375,-2.1667592525482178,1.1479014158248901,-9.286731719970703
1772905554393773600,11.240773681640626,-2.2708590030670166,1.2516827583312988,-9.65493106842041
1772905554403773400,11.2507734375,-2.350492477416992,1.3035637140274048,-9.792632102966309
1772905554413773600,11.260773681640625,-2.3888165950775146,1.3373781442642212,-9.737654685974121
1772905554423773400,11.2707734375,-2.4106924533843994,1.3587802648544312,-9.539387702941895
1772905554433773600,11.280773681640625,-2.428331136703491,1.365354299545288,-9.305610656738281
1772905554443773400,11.2907734375,-2.447253465652466,1.391657829284668,-9.033960342407227
1772905554453773600,11.300773681640624,-2.490448474884033,1.4429991245269775,-9.051487922668457
1772905554463773400,11.3107734375,-2.466660499572754,1.4299957752227783,-8.989922523498535
1772905554473773600,11.320773681640626,-2.3772687911987305,1.426432490348816,-8.197349548339844
1772905554483773400,11.3307734375,-2.2477471828460693,1.3005104064941406,-7.311012268066406
1772905554493773600,11.340773681640625,-2.105229616165161,1.220898151397705,-6.550329208374023
1772905554503773400,11.3507734375,-2.0828843116760254,1.1446692943572998,-6.188259601593018
1772905554513773600,11.360773681640625,-2.074939012527466,1.1057372093200684,-6.045455455780029
1772905554523773400,11.3707734375,-1.9810950756072998,1.0590472221374512,-5.696352958679199
1772905554533773600,11.380773681640624,-0.2839861810207367,0.05352906882762909,-0.29561394453048706
1772905554543773400,11.3907734375,-0.9503229856491089,0.38803890347480774,-2.467132091522217
1772905554553773600,11.400773681640626,-2.7865540981292725,1.3471248149871826,-8.489201545715332
1772905554563773400,11.4107734375,-3.407421112060547,1.580342411994934,-16.482519149780273
1772905554573773600,11.420773681640625,-9.307172775268555,1.575741171836853,-16.74403953552246
1772905554583773400,11.4307734375,-9.211474418640137,1.5765172243118286,-17.136308670043945
1772905554593773600,11.440773681640625,-9.212667465209961,1.1169668436050415,-15.973810195922852
1772905554603773400,11.4507734375,-3.478731393814087,0.7188332080841064,-19.294153213500977
1772905554613773600,11.460773681640624,-10.700252532958984,0.1506095826625824,-15.072013854980469
1772905554623773400,11.4707734375,-0.5589678287506104,0.9952733516693115,-0.1555483639240265
1772905554633773600,11.480773681640626,0.04773647338151932,0.45206084847450256,0.06671331822872162
1772905554643773400,11.4907734375,0.08809513598680496,0.5135639309883118,1.1908290386199951
1772905554653773600,11.500773681640625,0.4244403541088104,-0.04506853595376015,1.5415318012237549
1772905554663773400,11.5107734375,-1.5187265872955322,1.0709315538406372,0.14631704986095428
1772905554673773600,11.520773681640625,-2.5262982845306396,1.0310264825820923,-8.563655853271484
1772905554683773400,11.5307734375,-3.065128803253174,0.5320286750793457,-5.671074867248535
1772905554693773600,11.540773681640625,-0.4177130460739136,0.12312537431716919,-0.5213601589202881
1772905554703773400,11.5507734375,0.45047351717948914,0.3981921672821045,-0.3495209515094757
1772905554713773600,11.560773681640624,0.32497721910476685,0.254022479057312,-0.6126714944839478
1772905554723773400,11.5707734375,0.7760288119316101,-0.4745083451271057,0.8645391464233398
1772905554733773600,11.580773681640625,0.9393478631973267,-0.005467885639518499,3.278378486633301
1772905554743773400,11.5907734375,-0.7758052349090576,0.6901789903640747,-4.652774810791016
1772905554753773600,11.600773681640625,-0.6580466032028198,0.6150466203689575,-3.952869415283203
1772905554763773400,11.6107734375,-0.6383309364318848,0.5784727334976196,-3.850637197494507
1772905554773773600,11.620773681640625,-0.6565561294555664,0.5641142129898071,-3.914168357849121
1772905554783773400,11.6307734375,-0.6838763952255249,0.570797860622406,-4.1573166847229
1772905554793773600,11.640773681640624,-0.7163749933242798,0.5806658267974854,-4.373785972595215
1772905554803773400,11.6507734375,-0.6909657120704651,0.5935168266296387,-4.270312309265137
1772905554813773600,11.660773681640626,-0.620760440826416,0.6118218898773193,-3.371427297592163
1772905554823773400,11.6707734375,-0.48905956745147705,0.6283937692642212,-2.6330020427703857
1772905554833773600,11.680773681640625,-0.4319906532764435,0.6414119601249695,-2.2611773014068604
1772905554843773400,11.6907734375,-0.36885765194892883,0.657108724117279,-1.6491328477859497
1772905554853773600,11.700773681640625,-0.30430126190185547,0.6742852926254272,-1.0090633630752563
1772905554863773400,11.7107734375,-0.2445058375597,0.6900384426116943,-0.5232200026512146
1772905554873773600,11.720773681640624,-0.178793266415596,0.7052497267723083,-0.15347447991371155
1772905554883773400,11.7307734375,2.2081379890441895,-0.00509207509458065,32
1772905554893773600,11.740773681640626,0.5305744409561157,0.3928978145122528,4.942851543426514
1772905554903773400,11.7507734375,0.026469634845852852,0.6836518049240112,1.1632202863693237
1772905554913773600,11.760773681640625,0.15410153567790985,0.6155001521110535,1.9571932554244995
1772905554923773400,11.7707734375,0.2930716574192047,0.5387879610061646,3.071113109588623
1772905554933773600,11.780773681640625,0.43900755047798157,0.4622492492198944,4.361915111541748
1772905554943773400,11.7907734375,0.5867416262626648,0.3856850266456604,5.873289585113525
1772905554953773600,11.800773681640624,0.737695038318634,0.3265400826931,7.589544773101807
1772905554963773400,11.8107734375,0.8927505016326904,0.284726083278656,9.697161674499512
1772905554973773600,11.820773681640626,1.0689886808395386,0.2739957869052887,11.912362098693848
1772905554983773400,11.8307734375,1.598814606666565,0.021882189437747,18.841283798217773
1772905554993773600,11.840773681640625,1.6985950469970703,0.011200862005352974,20.902956008911133
1772905555003773400,11.8507734375,1.7727415561676025,-0.019463373348116875,23.169599533081055
1772905555013773600,11.860773681640625,1.8578568696975708,-0.04015638306736946,25.722291946411133
1772905555023773400,11.8707734375,1.9287573099136353,-0.004894055891782045,27.96791648864746
1772905555033773600,11.880773681640624,1.998733639717102,-0.004887667950242758,30.3143253326416
1772905555043773400,11.8907734375,2.0443460941314697,-0.004895120393484831,32.57563018798828
1772905555053773600,11.900773681640626,2.083251714706421,-0.00524644460529089,35.09180450439453
1772905555063773400,11.9107734375,2.213616371154785,-0.005253897048532963,38.86227035522461
1772905555103773400,11.9507734375,2.6287670135498047,-0.005243251100182533,51.950016021728516
1772905555113773600,11.960773681640624,2.1422007083892822,-0.005468950141221285,32
1772905555123773400,11.9707734375,1.909090518951416,-0.005177244544029236,28.628681182861328
1772905555133773600,11.980773681640626,1.3472440242767334,-0.005390168633311987,20.450756072998047
1772905555143773400,11.9907734375,2.382585287094116,-0.005237927660346031,46.54996109008789
1772905555153773600,12.000773681640625,2.3131136894226074,-0.005243251100182533,43.834136962890625
1772905555163773400,12.0107734375,0.6840372085571289,-0.005328420549631119,4.284112930297852
1772905555173773600,12.020773681640625,0.43605002760887146,-0.0050792996771633625,2.851729154586792
1772905555183773400,12.0307734375,0.1895565688610077,-0.005150629207491875,0.0571136400103569
1772905555193773600,12.040773681640625,0.26462075114250183,-0.00506758876144886,0.3116694688796997
1772905555203773400,12.0507734375,-0.3898317217826843,0.005184696987271309,-6.671175003051758
1772905555213773600,12.060773681640624,0.36936652660369873,0.005287964828312397,-2.9598870277404785
1772905555223773400,12.0707734375,0.06286364793777466,0.005095269065350294,-7.996547698974609
1772905555243773400,12.0907734375,-0.39878302812576294,-0.005183632485568523,-1.9277703762054443
1772905555253773600,12.100773681640625,-2.8416290283203125,0.005106979515403509,-26.61545753479004
1772905555263773400,12.1107734375,-9.435323715209961,0.0050026471726596355,-11.37895679473877
1772905555273773600,12.120773681640625,-2.356956720352173,-0.0051186904311180115,-1.0757862329483032
1772905555283773400,12.1307734375,-9.379079818725586,-0.005094204097986221,3.8543782234191895
1772905555293773600,12.140773681640624,-0.024260548874735832,-0.005030327010899782,32
1772905555303773400,12.1507734375,1.0228630304336548,0.0050047761760652065,6.201123237609863
1772905555313773600,12.160773681640626,0.28268948197364807,0.005152758210897446,-2.4529290199279785
1772905555323773400,12.1707734375,0.21931374073028564,0.005275189410895109,-2.9436068534851074
1772905555333773600,12.180773681640625,-1.0270426273345947,0.005236863158643246,-20.640058517456055
1772905555343773400,12.1907734375,-0.36036092042922974,-0.005064394790679216,4.608173370361328
1772905555353773600,12.200773681640625,-1.133865475654602,-0.0050441669300198555,0.2455076426267624
1772905555363773400,12.2107734375,-1.1895557641983032,-0.005291158799082041,-3.11857271194458
1772905555373773600,12.220773681640624,-0.7067252993583679,-0.005433817859739065,4.939996242523193
1772905555383773400,12.2307734375,-1.074449062347412,0.0051559521816670895,-21.19436264038086
1772905555393773600,12.240773681640626,-0.19278129935264587,-0.001055037952028215,0.8589882254600525
1772905555403773400,12.2507734375,0.277157723903656,-0.0014787564286962152,4.118930816650391
1772905555413773600,12.260773681640625,0.1656728833913803,-0.0011838568607345223,2.452770471572876
1772905555423773400,12.2707734375,0.08026592433452606,-0.0008868280565366149,0.9809840321540833
1772905555433773600,12.280773681640625,-0.09285824000835419,-0.0005919284303672612,-0.31061869859695435
1772905555443773400,12.2907734375,-0.284494012594223,-0.00029277036082930863,-1.5932999849319458
1772905555453773600,12.300773681640624,-0.4497133791446686,-0.0000031938584470481146,-3.0244338512420654
1772905555463773400,12.3107734375,-0.6184661984443665,0.0002863826521206647,-4.572124481201172
1772905555473773600,12.320773681640626,-0.7504715919494629,0.0005887345760129392,-6.008246898651123
1772905555483773400,12.3307734375,-0.8656197190284729,0.0008719233446754515,-7.8942694664001465
1772905555493773600,12.340773681640625,-0.9621008634567261,0.0011700168251991272,-9.866649627685547
1772905555503773400,12.3507734375,-2.3378288745880127,0.005026068538427353,-35
1772905555513773600,12.360773681640625,-2.4646589756011963,0.005022874567657709,-20.07171630859375
1772905555523773400,12.3707734375,-2.269868850708008,0.005476402584463358,-32
1772905555533773600,12.380773681640624,-1.545056700706482,0.0024337200447916985,-18.894115447998047
1772905555543773400,12.3907734375,-1.5582473278045654,0.0027903676964342594,-19.392539978027344
1772905555553773600,12.400773681640626,-1.4700957536697388,-0.0004950480652041733,-5.5241923332214355
1772905555563773400,12.4107734375,-1.335940957069397,-0.006976451259106398,-5.2746710777282715
1772905555573773600,12.420773681640625,-1.2439993619918823,-0.01895235665142536,-17.19135284423828
1772905555583773400,12.4307734375,-1.095246434211731,-0.018953420221805573,-17.17208480834961
1772905555593773600,12.440773681640625,-1.0593570470809937,-0.018954485654830933,-18.308345794677734
1772905555603773400,12.4507734375,-1.0416172742843628,-0.019298357889056206,-17.976438522338867
1772905555613773600,12.460773681640624,-0.9837797284126282,-0.019649682566523552,-16.75450325012207
1772905555623773400,12.4707734375,-0.9139226078987122,-0.019994618371129036,-15.301745414733887
1772905555633773600,12.480773681640626,-0.7877129912376404,-0.020347006618976593,-13.045591354370117
1772905555643773400,12.4907734375,-0.6799479722976685,-0.020358718931674957,-12.00576114654541
1772905555653773600,12.500773681640625,-0.5382716059684753,-0.02036191150546074,-10.583558082580566
1772905555663773400,12.5107734375,-0.39404866099357605,-0.0203683003783226,-8.971187591552734
1772905555673773600,12.520773681640625,-0.33265420794487,-0.017256416380405426,-6.484830379486084
1772905555683773400,12.5307734375,-0.24488483369350433,-0.017541734501719475,-5.332726001739502
1772905555693773600,12.540773681640625,-0.11995067447423935,-0.017827052623033524,-3.9135582447052
1772905555703773400,12.5507734375,-0.014479889534413815,-0.017830247059464455,-3.2149314880371094
1772905555713773600,12.560773681640624,0.10945139825344086,-0.017831312492489815,-2.453040838241577
1772905555723773400,12.5707734375,3.311577796936035,-0.005053748842328787,35
1772905555733773600,12.580773681640625,2.9477951526641846,-0.005108044482767582,32
1772905555743773400,12.5907734375,0.7642605304718018,-0.022772211581468582,3.4560890197753906
1772905555753773600,12.600773681640625,0.49803218245506287,-0.01839236542582512,-0.03371436893939972
1772905555763773400,12.6107734375,0.532616376876831,-0.018674490973353386,0.5826523900032043
1772905555773773600,12.620773681640625,0.5992796421051025,-0.018960872665047646,1.4114267826080322
1772905555783773400,12.6307734375,0.6357108950614929,-0.019247256219387054,2.4980359077453613
1772905555793773600,12.640773681640624,0.7750599980354309,-0.005449787247925997,9.555586814880371
1772905555803773400,12.6507734375,0.3107092082500458,-0.00524644460529089,11.915616035461426
1772905555813773600,12.660773681640626,0.26646149158477783,-0.005170856602489948,6.533689022064209
1772905555823773400,12.6707734375,-0.9165692329406738,-0.005456174723803997,8.1831693649292
1772905555833773600,12.680773681640625,-0.26575562357902527,-0.005029262509196997,12.17259693145752
1772905555843773400,12.6907734375,-0.35277655720710754,-0.005248574074357748,2.40470814704895
1772905555853773600,12.700773681640625,-1.3791922330856323,-0.0052869003266096115,-13.600086212158203
1772905555863773400,12.7107734375,-2.823777437210083,-0.005220893770456314,-31.675302505493164
1772905555873773600,12.720773681640624,-2.5339412689208984,-0.005015422590076923,-34.876747131347656
1772905555883773400,12.7307734375,-0.5841386318206787,-0.005336937494575977,-22.575071334838867
1772905555893773600,12.740773681640626,-1.9841185808181763,-0.0052964817732572556,-32
1772905555903773400,12.7507734375,-1.8093804121017456,-0.00531990360468626,-1.4449974298477173
1772905555913773600,12.760773681640625,-1.1714529991149902,-0.005048425402492285,8.712736129760742
1772905555923773400,12.7707734375,-1.5607906579971313,-0.005095269065350294,-8.138580322265625
1772905555943773400,12.7907734375,-1.543625831604004,-0.005227281711995602,-6.381890296936035
1772905555953773600,12.800773681640624,-1.2062532901763916,-0.005174050573259592,-8.394699096679688
1772905555963773400,12.8107734375,-0.84975266456604,-0.005245380103588104,-7.481753826141357
1772905555973773600,12.820773681640626,-0.7595921754837036,-0.005474273581057787,-7.994006156921387
1772905555983773400,12.8307734375,-1.1675617694854736,-0.005273060407489538,-11.242630004882812
1772905555993773600,12.840773681640625,-2.0568203926086426,-1.144299864768982,-7.954779148101807
1772905556003773400,12.8507734375,-3.414473056793213,-0.41216424107551575,-11.432936668395996
1772905556013773600,12.860773681640625,-0.4512762427330017,-0.05520584434270859,-0.22783814370632172
1772905556023773400,12.8707734375,0.0232938751578331,-0.014032749459147453,0.38144785165786743
1772905556033773600,12.880773681640624,-0.16463488340377808,0.07574235647916794,-0.016004424542188644
1772905556043773400,12.8907734375,-0.2948431670665741,0.12684622406959534,-0.2771044671535492
1772905556053773600,12.900773681640626,-0.39158621430397034,0.1396908462047577,-0.5141398906707764
1772905556063773400,12.9107734375,-0.5549924969673157,0.19853663444519043,-0.9662156105041504
1772905556073773600,12.920773681640625,-0.7197381258010864,0.27679041028022766,-1.564327359199524
1772905556083773400,12.9307734375,-0.8498761653900146,0.34515923261642456,-2.1272735595703125
1772905556093773600,12.940773681640625,-0.9689357280731201,0.43269437551498413,-2.791240692138672
1772905556103773400,12.9507734375,-1.0997871160507202,0.5433828234672546,-3.5251638889312744
1772905556113773600,12.960773681640624,-1.6727439165115356,0.8049939274787903,-7.221877098083496
1772905556123773400,12.9707734375,-1.7096894979476929,0.9275166988372803,-8.090317726135254
1772905556133773600,12.980773681640626,-1.7749186754226685,1.053385615348816,-9.009498596191406
1772905556143773400,12.9907734375,-1.8276375532150269,1.1690948009490967,-9.766463279724121
1772905556153773600,13.000773681640625,-1.8442200422286987,1.2736457586288452,-10.010309219360352
1772905556163773400,13.0107734375,-1.7801928520202637,1.3267340660095215,-9.884818077087402
1772905556173773600,13.020773681640625,-1.7088494300842285,1.3533964157104492,-9.42980670928955
1772905556183773400,13.0307734375,-1.6934444904327393,1.356919288635254,-8.599123001098633
1772905556193773600,13.040773681640625,-1.629776954650879,1.3626575469970703,-7.9048943519592285
1772905556203773400,13.0507734375,-1.5737195014953613,1.3676964044570923,-7.82082986831665
1772905556213773600,13.060773681640624,-1.5365546941757202,1.3743833303451538,-7.980956077575684
1772905556223773400,13.0707734375,-1.4868252277374268,1.3751306533813477,-7.7104949951171875
1772905556233773600,13.080773681640625,-1.4466561079025269,1.3796350955963135,-7.391979694366455
1772905556243773400,13.0907734375,-1.3958503007888794,1.378238320350647,-7.177392959594727
1772905556253773600,13.100773681640625,-1.3522168397903442,1.371309757232666,-6.949396133422852
1772905556263773400,13.1107734375,0.035819120705127716,-0.13018272817134857,0.4219406247138977
1772905556273773600,13.120773681640625,0.15025293827056885,-0.14579112827777863,0.55918288230896
1772905556283773400,13.1307734375,0.31505072116851807,-0.38277435302734375,1.0845896005630493
1772905556293773600,13.140773681640624,0.5032232999801636,-0.6371545195579529,2.703347682952881
1772905556303773400,13.1507734375,1.4321974515914917,-2.3294460773468018,7.671498775482178
1772905556313773600,13.160773681640626,1.5507055521011353,-4.120304107666016,19.778606414794922
1772905556323773400,13.1707734375,1.402283787727356,-5.253686428070068,19.3154354095459
1772905556333773600,13.180773681640625,0.8784409761428833,-4.277525901794434,21.137971878051758
1772905556343773400,13.1907734375,0.6373142004013062,-6.36513614654541,19.436016082763672
1772905556353773600,13.200773681640625,-0.3062675893306732,-5.048348903656006,20.18731117248535
1772905556363773400,13.2107734375,-0.4065409302711487,-7.455793380737305,19.908823013305664
1772905556373773600,13.220773681640624,-0.7209784388542175,-6.7551350593566895,17.058012008666992
1772905556383773400,13.2307734375,-0.5652394890785217,-8.455963134765625,11.83105754852295
1772905556393773600,13.240773681640626,1.0419484376907349,-4.38016939163208,1.9949967861175537
