time,seconds_elapsed,z,y,x
1772914601513167600,0.411167724609375,9.246166229248047,-0.47976094484329224,0.7525427341461182
1772914601562943700,0.46094384765625,9.233603477478027,-0.4815555512905121,0.7666005492210388
1772914601612779800,0.51077978515625,9.232706069946289,-0.47527438402175903,0.7564310431480408
1772914601662643700,0.560643798828125,9.234201431274414,-0.4749752879142761,0.7522436380386353
1772914601712545800,0.6105458984375,9.23599624633789,-0.47198426723480225,0.7396813035011292
1772914601762610000,0.66060986328125,9.235696792602539,-0.47288158535957336,0.7540382146835327
1772914601812277800,0.71027783203125,9.23719310760498,-0.47587260603904724,0.7492526173591614
1772914601862133200,0.76013330078125,9.234800338745117,-0.4749752879142761,0.7728816866874695
1772914601911996700,0.80999658203125,9.231210708618164,-0.48095735907554626,0.7689933776855469
1772914601962097400,0.860097412109375,9.235696792602539,-0.46869412064552307,0.7501499056816101
1772914602011760000,0.909760009765625,9.241978645324707,-0.47527438402175903,0.7444669604301453
1772914602061815800,0.95981591796875,9.233603477478027,-0.46869412064552307,0.7549355626106262
1772914602111479000,1.00947900390625,9.236594200134277,-0.4833501875400543,0.760917603969574
1772914602161348000,1.05934814453125,9.235696792602539,-0.4782654345035553,0.755533754825592
1772914602211223600,1.1092236328125,9.223732948303223,-0.4737788736820221,0.7674978375434875
1772914602261306000,1.15930615234375,9.239585876464844,-0.4743770956993103,0.7501499056816101
1772914602310978300,1.208978271484375,9.238389015197754,-0.47617170214653015,0.7483552694320679
1772914602410730800,1.308730712890625,9.237491607666016,-0.4713860750198364,0.7579265832901001
1772914602460598300,1.358598388671875,9.23599624633789,-0.47916272282600403,0.7603194117546082
1772914602510459000,1.408458984375,9.233304023742676,-0.47587260603904724,0.7573283910751343
1772914602560297700,1.458297607421875,9.233603477478027,-0.4833501875400543,0.7579265832901001
1772914602610180600,1.5081806640625,9.233603477478027,-0.4782654345035553,0.760917603969574
1772914602660261400,1.558261474609375,9.237491607666016,-0.4743770956993103,0.7585247755050659
1772914602709922300,1.60792236328125,9.230313301086426,-0.47258245944976807,0.7603194117546082
1772914602759770000,1.65777001953125,9.23599624633789,-0.4773681163787842,0.7537391185760498
1772914602809665500,1.70766552734375,9.230313301086426,-0.48095735907554626,0.7594220638275146
1772914602859727600,1.7577275390625,9.238089561462402,-0.48006004095077515,0.7579265832901001
1772914602909364700,1.80736474609375,9.230313301086426,-0.4782654345035553,0.7651050686836243
1772914602959230700,1.857230712890625,9.230911254882812,-0.4776672124862671,0.7612167000770569
1772914603009430500,1.907430419921875,9.235098838806152,-0.4743770956993103,0.7492526173591614
1772914603058978600,1.956978515625,9.230313301086426,-0.47527438402175903,0.7618148922920227
1772914603109166600,2.00716650390625,9.230911254882812,-0.4773681163787842,0.7579265832901001
1772914603158864000,2.05686376953125,9.232406616210938,-0.4743770956993103,0.7597211599349976
1772914603208836600,2.106836669921875,9.233603477478027,-0.4824528694152832,0.7573283910751343
1772914603258607900,2.15660791015625,9.237491607666016,-0.48095735907554626,0.7645068168640137
1772914603308494000,2.206494140625,9.2255277633667,-0.4821537733078003,0.7525427341461182
1772914603358227700,2.256227783203125,9.230313301086426,-0.4737788736820221,0.7549355626106262
1772914603408325000,2.3063251953125,9.230313301086426,-0.4773681163787842,0.753140926361084
1772914603458152700,2.356152587890625,9.23599624633789,-0.4821537733078003,0.753140926361084
1772914603507987000,2.405987060546875,9.235696792602539,-0.4734797775745392,0.7561319470405579
1772914603558013700,2.456013671875,9.233603477478027,-0.4863412082195282,0.7579265832901001
1772914603607666200,2.505666259765625,9.232406616210938,-0.47976094484329224,0.7561319470405579
1772914603657389600,2.5553896484375,9.22134017944336,-0.4749752879142761,0.7689933776855469
1772914603706489600,2.604489501953125,9.23719310760498,-0.4773681163787842,0.7513462901115417
1772914603755589600,2.653589599609375,9.240483283996582,-0.4749752879142761,0.740279495716095
1772914603804689700,2.702689697265625,9.232406616210938,-0.4773681163787842,0.7540382146835327
1772914603853789700,2.751789794921875,9.238389015197754,-0.47976094484329224,0.7549355626106262
1772914603903969500,2.801969482421875,9.231210708618164,-0.47676992416381836,0.7573283910751343
1772914603954869500,2.852869384765625,9.235696792602539,-0.47587260603904724,0.7492526173591614
1772914604005769500,2.90376953125,9.23719310760498,-0.4785645306110382,0.7492526173591614
1772914604056656000,2.95465576171875,9.227621078491211,-0.47288158535957336,0.7621139883995056
1772914604106518300,3.004518310546875,9.232706069946289,-0.47676992416381836,0.7564310431480408
1772914604156411600,3.05441162109375,9.232406616210938,-0.4749752879142761,0.7588238716125488
1772914604206265300,3.104265380859375,9.238089561462402,-0.47916272282600403,0.7459624409675598
1772914604256148700,3.154148681640625,9.226425170898438,-0.47976094484329224,0.7588238716125488
1772914604306002200,3.204002197265625,9.233304023742676,-0.4776672124862671,0.755533754825592
1772914604355579400,3.253579345703125,9.226125717163086,-0.47108694911003113,0.7618148922920227
1772914604405472500,3.303472412109375,9.233603477478027,-0.4821537733078003,0.7465606927871704
1772914604455337000,3.3533369140625,9.241379737854004,-0.47587260603904724,0.7513462901115417
1772914604505211000,3.4032109375,9.235098838806152,-0.47617170214653015,0.7498508095741272
1772914604555063300,3.453063232421875,9.22851848602295,-0.47976094484329224,0.763310432434082
1772914604604922600,3.502922607421875,9.232406616210938,-0.47976094484329224,0.7597211599349976
1772914604654773800,3.552773681640625,9.233304023742676,-0.48006004095077515,0.7549355626106262
1772914604704631300,3.60263134765625,9.230911254882812,-0.47676992416381836,0.7507480978965759
1772914604754489300,3.6524892578125,9.233304023742676,-0.4743770956993103,0.7570292353630066
1772914604804350700,3.702350830078125,9.227621078491211,-0.48065826296806335,0.7549355626106262
1772914604854207200,3.752207275390625,9.227920532226562,-0.48095735907554626,0.763310432434082
1772914604904066800,3.80206689453125,9.230313301086426,-0.47976094484329224,0.7540382146835327
1772914604953926400,3.851926513671875,9.230911254882812,-0.48095735907554626,0.7516453862190247
1772914605003810800,3.901810791015625,9.231210708618164,-0.4776672124862671,0.753140926361084
1772914605053679400,3.951679443359375,9.232406616210938,-0.48484569787979126,0.7585247755050659
1772914605103532500,4.001532470703125,9.229415893554688,-0.4824528694152832,0.755533754825592
1772914605153393000,4.051392822265625,9.233603477478027,-0.47527438402175903,0.7546364665031433
1772914605203256600,4.101256591796875,9.229415893554688,-0.47587260603904724,0.7579265832901001
1772914605253102800,4.151102783203125,9.23599624633789,-0.4854438900947571,0.755533754825592
1772914605302994000,4.200993896484375,9.232406616210938,-0.48006004095077515,0.7612167000770569
1772914605352856800,4.25085693359375,9.22851848602295,-0.47587260603904724,0.7546364665031433
1772914605452607700,4.350607666015625,9.236594200134277,-0.47916272282600403,0.7537391185760498
1772914605502479600,4.400479736328125,9.232706069946289,-0.4824528694152832,0.7540382146835327
1772914605552339000,4.4503388671875,9.234800338745117,-0.4776672124862671,0.7570292353630066
1772914605602220300,4.50022021484375,9.233603477478027,-0.4749752879142761,0.7522436380386353
1772914605652107500,4.550107421875,9.230911254882812,-0.47617170214653015,0.7588238716125488
1772914605701992400,4.599992431640625,9.235098838806152,-0.4776672124862671,0.7573283910751343
1772914605751865900,4.649865966796875,9.235696792602539,-0.4785645306110382,0.760917603969574
1772914605801738500,4.699738525390625,9.231210708618164,-0.4773681163787842,0.7597211599349976
1772914605851619000,4.749619140625,9.235098838806152,-0.47527438402175903,0.7474579811096191
1772914605901492700,4.79949267578125,9.239884376525879,-0.48006004095077515,0.7501499056816101
1772914605951373800,4.849373779296875,9.23719310760498,-0.47288158535957336,0.7549355626106262
1772914606001264000,4.89926416015625,9.237491607666016,-0.47916272282600403,0.7618148922920227
1772914606051158300,4.949158203125,9.235098838806152,-0.47916272282600403,0.755533754825592
1772914606101064700,4.999064697265625,9.235696792602539,-0.48006004095077515,0.7513462901115417
1772914606150952700,5.04895263671875,9.233304023742676,-0.4782654345035553,0.7522436380386353
1772914606200841200,5.09884130859375,9.232406616210938,-0.4782654345035553,0.763310432434082
1772914606250691000,5.148691162109375,9.239884376525879,-0.4782654345035553,0.7513462901115417
1772914606300563200,5.198563232421875,9.232406616210938,-0.47976094484329224,0.760917603969574
1772914606350411500,5.24841162109375,9.241379737854004,-0.47288158535957336,0.7465606927871704
1772914606400288800,5.298288818359375,9.226125717163086,-0.4785645306110382,0.7570292353630066
1772914606450146300,5.348146240234375,9.239585876464844,-0.4815555512905121,0.7549355626106262
1772914606500010500,5.398010498046875,9.235696792602539,-0.4776672124862671,0.7621139883995056
1772914606549862000,5.44786181640625,9.229415893554688,-0.48065826296806335,0.7588238716125488
1772914606599752700,5.497752685546875,9.242876052856445,-0.4785645306110382,0.7483552694320679
1772914606649628000,5.5476279296875,9.2288179397583,-0.4737788736820221,0.7612167000770569
1772914606699497000,5.5974970703125,9.234201431274414,-0.48065826296806335,0.7597211599349976
1772914606749367300,5.6473671875,9.23599624633789,-0.48006004095077515,0.7618148922920227
1772914606799438000,5.69743798828125,9.227621078491211,-0.4785645306110382,0.7573283910751343
1772914606849459700,5.747459716796875,9.233603477478027,-0.483051061630249,0.7537391185760498
1772914606899264000,5.797263916015625,9.232406616210938,-0.483051061630249,0.7564310431480408
1772914606949234400,5.847234375,9.22851848602295,-0.47676992416381836,0.7594220638275146
1772914606999128000,5.897128173828125,9.230313301086426,-0.4776672124862671,0.755533754825592
1772914607049014300,5.94701416015625,9.23599624633789,-0.4785645306110382,0.7525427341461182
1772914607098840800,5.9968408203125,9.227621078491211,-0.4821537733078003,0.7570292353630066
1772914607148489000,6.046489013671875,9.234201431274414,-0.47916272282600403,0.7561319470405579
1772914607198544100,6.096544189453125,9.232706069946289,-0.48454657196998596,0.7627122402191162
1772914607248271400,6.146271240234375,9.230013847351074,-0.4773681163787842,0.7627122402191162
1772914607298577000,6.196576904296875,9.237491607666016,-0.47258245944976807,0.747757077217102
1772914607348547000,6.246547119140625,9.235098838806152,-0.47587260603904724,0.7549355626106262
1772914607398332700,6.296332763671875,9.22851848602295,-0.4773681163787842,0.7627122402191162
1772914607447730000,6.34572998046875,9.230013847351074,-0.47976094484329224,0.7585247755050659
1772914607497690000,6.395690185546875,9.226425170898438,-0.47527438402175903,0.7570292353630066
1772914607547553800,6.4455537109375,9.239585876464844,-0.48484569787979126,0.7522436380386353
1772914607597340200,6.495340087890625,9.232706069946289,-0.483051061630249,0.7603194117546082
1772914607647187500,6.5451875,9.231210708618164,-0.4815555512905121,0.7594220638275146
1772914607697265000,6.595264892578125,9.224630355834961,-0.47916272282600403,0.7642077207565308
1772914607746941400,6.64494140625,9.23599624633789,-0.4863412082195282,0.7513462901115417
1772914607797074200,6.69507421875,9.234800338745117,-0.4833501875400543,0.755533754825592
1772914607846997800,6.744997802734375,9.227920532226562,-0.4821537733078003,0.7621139883995056
1772914607896800500,6.794800537109375,9.231210708618164,-0.48394837975502014,0.7594220638275146
1772914607946752800,6.844752685546875,9.227023124694824,-0.48065826296806335,0.7579265832901001
1772914607996502300,6.894502197265625,9.230013847351074,-0.48006004095077515,0.7540382146835327
1772914608046470700,6.944470703125,9.238389015197754,-0.47976094484329224,0.7492526173591614
1772914608096233200,6.994233154296875,9.230911254882812,-0.48006004095077515,0.7549355626106262
1772914608146182100,7.04418212890625,9.227621078491211,-0.47976094484329224,0.7666005492210388
1772914608195927000,7.093927001953125,9.234800338745117,-0.4821537733078003,0.760917603969574
1772914608245970700,7.143970703125,9.226125717163086,-0.4782654345035553,0.7621139883995056
1772914608295765200,7.19376513671875,9.232406616210938,-0.4821537733078003,0.7513462901115417
1772914608345426700,7.2434267578125,9.2288179397583,-0.4821537733078003,0.7588238716125488
1772914608395356000,7.29335595703125,9.23180866241455,-0.48095735907554626,0.7603194117546082
1772914608445234400,7.343234375,9.2288179397583,-0.483051061630249,0.760917603969574
1772914608495130600,7.393130615234375,9.234800338745117,-0.47916272282600403,0.753140926361084
1772914608545013000,7.443012939453125,9.230911254882812,-0.47676992416381836,0.747757077217102
1772914608594913000,7.4929130859375,9.232706069946289,-0.48065826296806335,0.768395185470581
1772914608644809000,7.54280908203125,9.233304023742676,-0.4815555512905121,0.760917603969574
1772914608694694100,7.592694091796875,9.23599624633789,-0.4785645306110382,0.7513462901115417
1772914608744601000,7.64260107421875,9.234800338745117,-0.48095735907554626,0.760917603969574
1772914608794471400,7.692471435546875,9.233603477478027,-0.47916272282600403,0.7546364665031433
1772914608844350500,7.7423505859375,9.229415893554688,-0.4815555512905121,0.7549355626106262
1772914608894225400,7.792225341796875,9.23180866241455,-0.483051061630249,0.7579265832901001
1772914608944096500,7.842096435546875,9.227621078491211,-0.48484569787979126,0.763310432434082
1772914608993995500,7.89199560546875,9.233603477478027,-0.47617170214653015,0.7498508095741272
1772914609043887000,7.94188720703125,9.230313301086426,-0.4785645306110382,0.7540382146835327
1772914609093789400,7.99178955078125,9.224630355834961,-0.4785645306110382,0.760917603969574
1772914609143682000,8.04168212890625,9.233304023742676,-0.47916272282600403,0.7573283910751343
1772914609193583600,8.09158349609375,9.232406616210938,-0.47976094484329224,0.755533754825592
1772914609243488300,8.14148828125,9.22851848602295,-0.47916272282600403,0.7501499056816101
1772914609293378300,8.19137841796875,9.227920532226562,-0.4785645306110382,0.7540382146835327
1772914609343252200,8.241252197265625,9.2288179397583,-0.483051061630249,0.755533754825592
1772914609393125400,8.29112548828125,9.224032402038574,-0.4782654345035553,0.7657032608985901
1772914609442997500,8.34099755859375,9.233603477478027,-0.47676992416381836,0.7498508095741272
1772914609492873200,8.390873291015625,9.231210708618164,-0.4815555512905121,0.7549355626106262
1772914609542740200,8.440740234375,9.230013847351074,-0.4821537733078003,0.7564310431480408
1772914609592619300,8.490619384765624,9.234201431274414,-0.48484569787979126,0.7516453862190247
1772914609642489000,8.540489013671875,9.226125717163086,-0.4776672124862671,0.7588238716125488
1772914609692379000,8.59037890625,9.233304023742676,-0.4821537733078003,0.7522436380386353
1772914609742253800,8.64025390625,9.23599624633789,-0.47976094484329224,0.7516453862190247
1772914609792155000,8.69015478515625,9.230313301086426,-0.47976094484329224,0.760917603969574
1772914609842059300,8.740059326171876,9.236594200134277,-0.48065826296806335,0.7594220638275146
1772914609891967700,8.7899677734375,9.232706069946289,-0.47617170214653015,0.755533754825592
1772914609941854200,8.839854248046874,9.230013847351074,-0.4737788736820221,0.753140926361084
1772914609991754000,8.88975390625,9.230013847351074,-0.4821537733078003,0.7546364665031433
1772914610041638100,8.93963818359375,9.232406616210938,-0.4821537733078003,0.7573283910751343
1772914610091528200,8.989528076171876,9.232706069946289,-0.4782654345035553,0.7546364665031433
1772914610141407000,9.039406982421875,9.237491607666016,-0.47288158535957336,0.747757077217102
1772914610191279900,9.08927978515625,9.23599624633789,-0.4782654345035553,0.7522436380386353
1772914610241156000,9.139156005859375,9.224630355834961,-0.47676992416381836,0.7579265832901001
1772914610291052800,9.189052734375,9.231210708618164,-0.4821537733078003,0.7546364665031433
1772914610340929800,9.2389296875,9.234800338745117,-0.4833501875400543,0.753140926361084
1772914610390793000,9.28879296875,9.233304023742676,-0.4785645306110382,0.7516453862190247
1772914610440662000,9.338662109375,9.235098838806152,-0.4824528694152832,0.7549355626106262
1772914610490545400,9.38854541015625,9.230013847351074,-0.4821537733078003,0.7597211599349976
1772914610540430800,9.438430908203125,9.238389015197754,-0.4824528694152832,0.7396813035011292
1772914610590316500,9.488316650390624,9.227621078491211,-0.4776672124862671,0.7752745151519775
1772914610640202500,9.538202392578125,9.216854095458984,-0.47258245944976807,0.7746763229370117
1772914610690096400,9.588096435546875,9.247062683105469,-0.48484569787979126,0.7310073375701904
1772914610739991000,9.637990966796876,9.253344535827637,-0.48813581466674805,0.7286145091056824
1772914610789875700,9.687875732421874,9.219844818115234,-0.47288158535957336,0.7818548083305359
1772914610839752700,9.737752685546875,9.217452049255371,-0.4749752879142761,0.7785646915435791
1772914610889642000,9.78764208984375,9.245268821716309,-0.48813581466674805,0.7393822073936462
1772914610939521300,9.837521240234375,9.243772506713867,-0.4854438900947571,0.734895646572113
1772914610989414000,9.887413818359375,9.225228309631348,-0.47916272282600403,0.7674978375434875
1772914611039312600,9.937312744140625,9.230911254882812,-0.48006004095077515,0.7666005492210388
1772914611089397800,9.987397705078125,9.235098838806152,-0.4776672124862671,0.755533754825592
1772914611139383600,10.037383544921875,9.23180866241455,-0.48006004095077515,0.753140926361084
1772914611189155300,10.0871552734375,9.23599624633789,-0.48006004095077515,0.7507480978965759
1772914611239147500,10.1371474609375,9.231210708618164,-0.47976094484329224,0.7585247755050659
1772914611288858400,10.1868583984375,9.23180866241455,-0.4785645306110382,0.7612167000770569
1772914611338828000,10.236828125,9.233603477478027,-0.4785645306110382,0.747757077217102
1772914611388524300,10.286524169921876,9.232406616210938,-0.47676992416381836,0.7594220638275146
1772914611438497000,10.3364970703125,9.233603477478027,-0.4815555512905121,0.7579265832901001
1772914611538333700,10.436333740234375,9.226125717163086,-0.4773681163787842,0.7549355626106262
1772914611588505900,10.486505859375,9.233304023742676,-0.4773681163787842,0.7549355626106262
1772914611638292500,10.53629248046875,9.238389015197754,-0.48574298620224,0.7564310431480408
1772914611687865900,10.585865966796876,9.235098838806152,-0.48006004095077515,0.7540382146835327
1772914611737657900,10.635657958984375,9.23898696899414,-0.47916272282600403,0.7618148922920227
1772914611787563500,10.6855634765625,9.234800338745117,-0.47976094484329224,0.7618148922920227
1772914611837350100,10.73535009765625,9.233603477478027,-0.48006004095077515,0.7522436380386353
1772914611887230700,10.785230712890625,9.233603477478027,-0.48095735907554626,0.747757077217102
1772914611937119000,10.835118896484374,9.241978645324707,-0.47617170214653015,0.755533754825592
1772914611986991000,10.8849912109375,9.232706069946289,-0.48394837975502014,0.7585247755050659
1772914612036900900,10.93490087890625,9.23719310760498,-0.4815555512905121,0.7564310431480408
1772914612086792000,10.9847919921875,9.235098838806152,-0.47617170214653015,0.7585247755050659
1772914612136662500,11.03466259765625,9.234201431274414,-0.483051061630249,0.7573283910751343
1772914612186738000,11.084738037109375,9.238389015197754,-0.48454657196998596,0.7546364665031433
1772914612236361200,11.134361328125,9.235098838806152,-0.47916272282600403,0.7597211599349976
1772914612286453000,11.184452880859375,9.234800338745117,-0.4743770956993103,0.7621139883995056
1772914612336419800,11.234419921875,9.238389015197754,-0.47976094484329224,0.7516453862190247
1772914612386203100,11.284203125,9.202198028564453,-0.4911268353462219,0.7525427341461182
1772914612436159500,11.334159423828124,9.30030345916748,-0.46091747283935547,0.7070791125297546
1772914612485747000,11.383746826171874,9.21117115020752,-0.4695914387702942,0.7674978375434875
