time,seconds_elapsed,z,y,x
1772912999367802400,0.38880224609375,-0.0026317392475903034,0.005157016683369875,0.005084622651338577
1772912999417802200,0.43880224609375,-0.0026317392475903034,0.005157016683369875,0.005084622651338577
1772912999467802400,0.48880224609375,-0.00007239412661874667,-0.004016809165477753,0.0015000489074736834
1772912999517802200,0.53880224609375,0.0027222319040447474,0.00517618004232645,-0.005460433196276426
1772912999567802400,0.58880224609375,0.002560409950092435,0.005435946863144636,0.005106979515403509
1772912999617802200,0.63880224609375,0.0026466441340744495,0.005208118353039026,0.005153822712600231
1772912999667802400,0.68880224609375,-0.002516760490834713,-0.005426365416496992,-0.005233669187873602
1772912999717802200,0.73880224609375,-0.0026828411500900984,-0.005386974662542343,-0.0053986855782568455
1772912999767802400,0.78880224609375,0.002641320927068591,0.0051580811850726604,0.005478532053530216
1772912999817802200,0.83880224609375,-0.002540182089433074,-0.005350777413696051,-0.005167663097381592
1772912999867802400,0.88880224609375,-0.0025125020183622837,-0.005301805213093758,-0.005325226578861475
1772912999917802200,0.93880224609375,0.002563603688031435,0.005168727599084377,0.005385910160839558
1772912999967802400,0.98880224609375,-0.0025848960503935814,-0.005033520981669426,-0.0053986855782568455
1772913000017802200,1.03880224609375,0.00253698811866343,-0.005125078372657299,-0.005435946863144636
1772913000117802200,1.13880224609375,-0.002633868483826518,-0.0036612264811992645,-0.0038826672825962305
1772913000167802400,1.18880224609375,-0.002660484053194523,-0.0029287682846188545,-0.0031065596267580986
1772913000217802200,1.23880224609375,-0.0026061884127557278,-0.0021963100880384445,-0.002329387469217181
1772913000267802400,1.28880224609375,0.0025252774357795715,-0.0014638517750427127,-0.0015532798133790493
1772913000317802200,1.33880224609375,0.002574249869212508,-0.00073245819658041,-0.000776107597630471
1772913000367802400,1.38880224609375,-0.0025050495751202106,-0.005109108984470367,-0.00523579865694046
1772913000417802200,1.43880224609375,-0.002560409950092435,-0.005450851749628782,-0.005055877845734358
1772913000467802400,1.48880224609375,-0.0026870996225625277,-0.005022874567657709,0.005061200819909573
1772913000517802200,1.53880224609375,-0.0027201026678085327,-0.005437011830508709,-0.005443399306386709
1772913000567802400,1.58880224609375,-0.002532729646191001,-0.00546362716704607,-0.005170856602489948
1772913000617802200,1.63880224609375,-0.0025561514776200056,-0.005388039164245129,-0.00520492484793067
1772913000667802400,1.68880224609375,-0.002576379105448723,-0.0035643461160361767,-0.005199601408094168
1772913000717802200,1.73880224609375,-0.0017246835632249713,-0.0018173054559156299,-0.003439785446971655
1772913000767802400,1.78880224609375,0.0026455793995410204,0.005045231897383928,0.005416783969849348
1772913000817802200,1.83880224609375,-0.002708391984924674,0.0054945009760558605,-0.005062265787273645
1772913000867802400,1.88880224609375,-18.053709030151367,-3.873692512512207,-7.024174213409424
1772913000917802200,1.93880224609375,-13.734657287597656,-0.005440205335617065,3.989168643951416
1772913000967802400,1.98880224609375,-9.880329132080078,-0.005460433196276426,1.061468243598938
1772913001017802200,2.03880224609375,-2.8241896629333496,-0.005394427105784416,-7.387901306152344
1772913001067802400,2.08880224609375,-1.0722060203552246,-0.005394427105784416,-1.6429857015609741
1772913001117802200,2.13880224609375,10.767119407653809,-0.005082493182271719,-0.7396976351737976
1772913001167802400,2.18880224609375,-0.6926829814910889,-0.003579250769689679,0.3417396545410156
1772913001217802200,2.23880224609375,-0.8079258799552917,-0.002298513427376747,-1.9875296354293823
1772913001267802400,2.28880224609375,-0.9029708504676819,-0.0022484762594103813,-4.3817596435546875
1772913001317802200,2.33880224609375,-1.1961596012115479,-0.002220796188339591,-3.5631909370422363
1772913001367802400,2.38880224609375,-1.4062154293060303,-0.002228248631581664,-4.593047142028809
1772913001417802200,2.43880224609375,-12.538650512695312,-0.005040973424911499,-8.727310180664062
1772913001467802400,2.48880224609375,-11.157999038696289,-0.005460433196276426,-20.608980178833008
1772913001517802200,2.53880224609375,-2.6713123321533203,-0.005374199245125055,-26.473169326782227
1772913001567802400,2.58880224609375,0.06437328457832336,0.005353971384465694,-3.674802541732788
1772913001617802200,2.63880224609375,-0.14671307802200317,0.005309257190674543,-4.6312971115112305
1772913001667802400,2.68880224609375,-10.77283000946045,0.00501861609518528,-10.742227554321289
1772913001717802200,2.73880224609375,1.3447325229644775,-0.005339066497981548,4.361743927001953
1772913001767802400,2.78880224609375,0.510311484336853,-0.005378457717597485,12.29866886138916
1772913001817802200,2.83880224609375,-3.2380645275115967,-0.00506758876144886,-27.57879066467285
1772913001867802400,2.88880224609375,-1.4450814723968506,-0.0032407017424702644,-6.083103656768799
1772913001917802200,2.93880224609375,-1.8339645862579346,-0.0035398597829043865,-7.410256385803223
1772913001967802400,2.98880224609375,-1.6235820055007935,-0.0052102478221058846,-6.225813865661621
1772913002017802200,3.03880224609375,-9.185157775878906,-0.005016487091779709,-9.852423667907715
1772913002067802400,3.08880224609375,-18.702058792114258,-0.005254961550235748,-32
1772913002117802200,3.13880224609375,-16.6599178314209,-0.005307128187268972,-32
1772913002167802400,3.18880224609375,-1.3133082389831543,-0.3895900547504425,-2.2226572036743164
1772913002217802200,3.23880224609375,-12.330925941467285,-0.5144326686859131,-5.696500778198242
1772913002267802400,3.28880224609375,0.35899075865745544,0.005205989349633455,32
1772913002317802200,3.33880224609375,15.53204345703125,0.005182567518204451,24.76097869873047
1772913002367802400,3.38880224609375,10.838152885437012,0.005464691668748856,32
1772913002417802200,3.43880224609375,15.792830467224121,0.005113367456942797,28.023447036743164
1772913002467802400,3.48880224609375,19.39234733581543,0.005115496460348368,30.739139556884766
1772913002517802200,3.53880224609375,13.086231231689453,0.005062265787273645,26.611772537231445
1772913002567802400,3.58880224609375,14.027000427246094,0.005157016683369875,25.84553337097168
1772913002617802200,3.63880224609375,12.746244430541992,0.0050718472339212894,14.814117431640625
1772913002667802400,3.68880224609375,2.794764518737793,0.0029553836211562157,6.32122802734375
1772913002717802200,3.73880224609375,-15.80161190032959,-0.005213441792875528,-5.344060897827148
1772913002767802400,3.78880224609375,-11.41611385345459,-0.005449787247925997,9.23269271850586
1772913002817802200,3.83880224609375,-1.080450415611267,0.005405073054134846,13.103696823120117
1772913002867802400,3.88880224609375,-2.806445598602295,-0.005334808025509119,11.670921325683594
1772913002917802200,3.93880224609375,-3.1114771366119385,0.00503671495243907,-28.179553985595703
1772913002967802400,3.98880224609375,2.077305793762207,-0.0053241620771586895,-5.657449722290039
1772913003017802200,4.03880224609375,-12.183599472045898,-0.00507397623732686,-2.338580369949341
1772913003067802400,4.08880224609375,-15.136869430541992,-25.180767059326172,-17.689565658569336
1772913003167802400,4.18880224609375,-18.869226455688477,0.5759527683258057,0.6101142764091492
1772913003217802200,4.23880224609375,16.692649841308594,4.990758419036865,0.03563174977898598
1772913003267802400,4.28880224609375,22.59632682800293,1.832650899887085,9.055870056152344
1772913003317802200,4.33880224609375,0.5203167796134949,0.5003764629364014,2.4011130332946777
1772913003367802400,4.38880224609375,0.21697689592838287,1.5819830894470215,4.182052135467529
1772913003417802200,4.43880224609375,-1.2114837169647217,-0.19010697305202484,-6.600497245788574
1772913003467802400,4.48880224609375,-0.9907433986663818,2.551321268081665,-1.7897487878799438
1772913003517802200,4.53880224609375,17.07574462890625,11.655865669250488,4.829626083374023
1772913003567802400,4.58880224609375,21.41266441345215,8.718047142028809,6.812125205993652
1772913003617802200,4.63880224609375,11.842336654663086,7.251171112060547,3.876110315322876
1772913003667802400,4.68880224609375,1.22169029712677,24.00194549560547,-9.148056983947754
1772913003717802200,4.73880224609375,-25.94150733947754,-0.6776611804962158,1.9776169061660767
1772913003767802400,4.78880224609375,-29.08524513244629,-11.597633361816406,29.064311981201172
1772913003817802200,4.83880224609375,-9.685517311096191,-32,20.77104949951172
1772913003867802400,4.88880224609375,0.674400269985199,-12.520227432250977,1.7639435529708862
1772913003917802200,4.93880224609375,-0.5061807632446289,-0.8335821628570557,-0.30541059374809265
1772913003967802400,4.98880224609375,1.9244264364242554,3.6774351596832275,0.35726606845855713
1772913004017802200,5.03880224609375,0.4586348831653595,-1.0644012689590454,1.4948992729187012
1772913004067802400,5.08880224609375,0.6725935935974121,-0.7361981868743896,1.1380079984664917
1772913004117802200,5.13880224609375,0.7495900392532349,-0.2844333350658417,0.18878258764743805
1772913004167802400,5.18880224609375,-10.597960472106934,-9.174113273620605,-1.378980278968811
1772913004217802200,5.23880224609375,-18.619482040405273,-17.40740394592285,-9.014118194580078
1772913004267802400,5.28880224609375,-12.48800277709961,-32,-32
1772913004317802200,5.33880224609375,0.3065561056137085,-2.2736992835998535,-5.2653937339782715
1772913004367802400,5.38880224609375,-1.5379610061645508,-4.711183071136475,-0.005192149430513382
1772913004417802200,5.43880224609375,-0.7663844227790833,-3.5269289016723633,-0.005278383381664753
1772913004467802400,5.48880224609375,0.9742897152900696,3.169581890106201,-0.005435946863144636
1772913004517802200,5.53880224609375,-0.19422811269760132,1.1558829545974731,0.005340131465345621
1772913004567802400,5.58880224609375,1.0601800680160522,6.8321146965026855,9.129703521728516
1772913004617802200,5.63880224609375,1.477625846862793,4.645937442779541,12.121180534362793
1772913004667802400,5.68880224609375,-0.5179256796836853,1.6060359477996826,0.005323097575455904
1772913004717802200,5.73880224609375,0.33453431725502014,2.793821334838867,1.513554573059082
1772913004767802400,5.78880224609375,0.14201810956001282,2.3464863300323486,1.513624906539917
1772913004817802200,5.83880224609375,-0.36027148365974426,1.4440562725067139,1.5118937492370605
1772913004867802400,5.88880224609375,-3.429948568344116,-3.7479991912841797,-0.11485540866851807
1772913004917802200,5.93880224609375,0.1873389631509781,-2.6838886737823486,-0.11521205306053162
1772913004967802400,5.98880224609375,0.1916102170944214,-0.1263330727815628,0.29870879650115967
1772913005017802200,6.03880224609375,0.17515864968299866,6.7227325439453125,2.8810253143310547
1772913005067802400,6.08880224609375,0.9003231525421143,3.773439407348633,0.8836341500282288
1772913005117802200,6.13880224609375,1.1952844858169556,4.618596076965332,0.8214316368103027
1772913005167802400,6.18880224609375,-0.2602504789829254,2.3929271697998047,2.6971356868743896
1772913005217802200,6.23880224609375,-2.886284589767456,-1.1155614852905273,0.670448362827301
1772913005267802400,6.28880224609375,1.7346504926681519,10.848702430725098,-0.13718686997890472
1772913005317802200,6.33880224609375,3.3850204944610596,0.2552105784416199,-0.5932719707489014
1772913005367802400,6.38880224609375,-2.39603590965271,-8.077890396118164,-4.3526082038879395
1772913005417802200,6.43880224609375,-3.1113035678863525,-3.0743303298950195,-3.7202351093292236
1772913005467802400,6.48880224609375,-2.143050193786621,-8.724961280822754,-0.005437011830508709
1772913005517802200,6.53880224609375,-0.6065946221351624,-2.675867795944214,-2.0330452919006348
1772913005567802400,6.58880224609375,-1.1334311962127686,-8.922478675842285,-1.9756803512573242
1772913005617802200,6.63880224609375,-2.130575180053711,-11.65729808807373,-1.7629257440567017
1772913005667802400,6.68880224609375,-0.9655725955963135,-13.71590805053711,0.005014357622712851
1772913005717802200,6.73880224609375,-1.7449603080749512,0.4256785213947296,0.005367811303585768
1772913005767802400,6.78880224609375,-0.5256282091140747,6.992824077606201,0.005293288268148899
1772913005817802200,6.83880224609375,14.549312591552734,32,0.005220893770456314
1772913005867802400,6.88880224609375,13.2242431640625,21.115015029907227,0.00523579865694046
1772913005917802200,6.93880224609375,-0.5226749181747437,-6.798373699188232,0.005407202523201704
1772913005967802400,6.98880224609375,2.4616119861602783,-1.4760991334915161,1.5760924816131592
1772913006017802200,7.03880224609375,15.640254974365234,1.4893728494644165,1.071372389793396
1772913006067802400,7.08880224609375,-0.027008332312107086,-5.059367656707764,-1.6859718561172485
1772913006117802200,7.13880224609375,0.5521968603134155,0.530470073223114,5.783748626708984
1772913006217802200,7.23880224609375,-25.012908935546875,-14.99819278717041,-0.005124013405293226
1772913006267802400,7.28880224609375,-1.6947879791259766,-2.476522207260132,5.264327049255371
1772913006317802200,7.33880224609375,-1.802410364151001,0.39811766147613525,1.5757933855056763
1772913006367802400,7.38880224609375,-0.948585569858551,4.1372857093811035,2.9241902828216553
1772913006417802200,7.43880224609375,-1.217294454574585,7.50525426864624,1.2377276420593262
1772913006467802400,7.48880224609375,0.050805769860744476,5.792602062225342,2.998059034347534
1772913006517802200,7.53880224609375,2.485182762145996,-4.490362644195557,8.382040023803711
1772913006567802400,7.58880224609375,1.3170503377914429,9.653096199035645,2.2805895805358887
1772913006617802200,7.63880224609375,0.4840548038482666,-0.8488402962684631,-3.820955514907837
1772913006667802400,7.68880224609375,-2.2650418281555176,-12.689591407775879,-2.9966824054718018
1772913006717802200,7.73880224609375,-2.400665760040283,-32,-0.6018539071083069
1772913006767802400,7.78880224609375,11.389786720275879,-8.066584587097168,8.719630241394043
1772913006817802200,7.83880224609375,20.65655517578125,32,21.75188446044922
1772913006867802400,7.88880224609375,-11.501810073852539,23.585519790649414,-15.12915325164795
1772913006917802200,7.93880224609375,-31.69749641418457,-3.3624229431152344,0.9799056053161621
1772913006967802400,7.98880224609375,-23.925386428833008,-7.788593292236328,32
1772913007017802200,8.03880224609375,15.38642406463623,-0.45903730392456055,21.563154220581055
1772913007067802400,8.08880224609375,18.5745792388916,33.591365814208984,0.005459368694573641
1772913007117802200,8.13880224609375,-1.9980491399765015,0.9431336522102356,-0.005227281711995602
1772913007167802400,8.18880224609375,-15.359237670898438,-24.84832191467285,-0.005033520981669426
1772913007217802200,8.23880224609375,-11.784067153930664,-21.116743087768555,0.005035649985074997
1772913007267802400,8.28880224609375,-0.9590582251548767,-1.9888614416122437,0.19826088845729828
1772913007317802200,8.33880224609375,2.378465414047241,1.1401222944259644,-0.1695002019405365
1772913007367802400,8.38880224609375,0.13559845089912415,3.6314809322357178,-2.1715896129608154
1772913007417802200,8.43880224609375,15.45355224609375,19.769393920898438,4.273593425750732
1772913007467802400,8.48880224609375,20.607059478759766,10.76915454864502,1.7577346563339233
1772913007517802200,8.53880224609375,3.270054340362549,-0.502651572227478,0.033368367701768875
1772913007567802400,8.58880224609375,3.452578067779541,0.32137030363082886,-0.14215651154518127
1772913007617802200,8.63880224609375,-0.06604260206222534,0.6002963185310364,-3.3501551151275635
1772913007667802400,8.68880224609375,-0.5190200805664062,-2.1551902294158936,-0.005458304192870855
1772913007717802200,8.73880224609375,-2.4701833724975586,32,-0.005181503016501665
1772913007767802400,8.78880224609375,-0.5867916345596313,13.385428428649902,0.005006905645132065
1772913007817802200,8.83880224609375,12.829489707946777,-2.115638494491577,0.005194278433918953
1772913007867802400,8.88880224609375,-10.55504322052002,-8.42198371887207,-8.767446517944336
1772913007917802200,8.93880224609375,-13.73486328125,-12.61961841583252,-5.801820755004883
1772913007967802400,8.98880224609375,-1.1128520965576172,-0.595467209815979,-0.6145324110984802
1772913008017802200,9.03880224609375,-1.4321484565734863,-1.4880282878875732,-0.6672651767730713
1772913008067802400,9.08880224609375,-2.1643447875976562,-4.133881092071533,-1.11027991771698
1772913008117802200,9.13880224609375,-1.5937715768814087,-1.9081941843032837,-0.04143392667174339
1772913008217802200,9.23880224609375,-2.891526699066162,-8.046732902526855,-19.453475952148438
1772913008267802400,9.28880224609375,-13.596405982971191,-28.59398651123047,-1.24602210521698
1772913008317802200,9.33880224609375,-13.547741889953613,-32,-6.192013263702393
1772913008367802400,9.38880224609375,1.7877026796340942,-32,-29.647024154663086
1772913008417802200,9.43880224609375,17.003257751464844,35,32
1772913008467802400,9.48880224609375,10.670791625976562,28.87312126159668,32
1772913008517802200,9.53880224609375,13.264126777648926,32,-2.335653781890869
1772913008567802400,9.58880224609375,22.251237869262695,33.52043151855469,1.2059946060180664
1772913008617802200,9.63880224609375,9.523248672485352,28.454484939575195,25.647884368896484
1772913008667802400,9.68880224609375,2.6881067752838135,22.1216983795166,2.1495656967163086
1772913008717802200,9.73880224609375,13.798057556152344,3.735671043395996,-0.4245915412902832
1772913008767802400,9.78880224609375,11.267864227294922,10.689845085144043,1.1133439540863037
1772913008817802200,9.83880224609375,0.5470014810562134,1.3589750528335571,-2.1016130447387695
1772913008867802400,9.88880224609375,-0.04584890231490135,0.5465170741081238,-0.918804943561554
1772913008917802200,9.93880224609375,-12.005378723144531,-4.231734752655029,-4.810068130493164
1772913008967802400,9.98880224609375,-14.403047561645508,-11.464616775512695,-4.489314079284668
1772913009017802200,10.03880224609375,-3.048332452774048,-2.619037389755249,-0.3339540958404541
1772913009067802400,10.08880224609375,0.5228069424629211,0.24063807725906372,0.780180811882019
1772913009117802200,10.13880224609375,1.8533118963241577,4.794810771942139,0.3783753514289856
1772913009167802400,10.18880224609375,-0.23217646777629852,-0.10133261233568192,0.05216848477721214
1772913009217802200,10.23880224609375,0.21547898650169373,1.9010037183761597,0.6813724637031555
1772913009267802400,10.28880224609375,-0.11248769611120224,2.1863930225372314,1.3516802787780762
1772913009317802200,10.33880224609375,0.25081902742385864,2.9528913497924805,1.802137851715088
1772913009367802400,10.38880224609375,-0.07705502957105637,0.8189595937728882,0.7934715747833252
1772913009417802200,10.43880224609375,-0.5902878642082214,-0.8969376683235168,0.6421550512313843
1772913009467802400,10.48880224609375,-0.5217178463935852,-1.0944405794143677,0.6088388562202454
1772913009517802200,10.53880224609375,-0.6163933873176575,-1.8956528902053833,0.21614544093608856
1772913009567802400,10.58880224609375,-0.5581757426261902,-4.164820194244385,-0.2704676389694214
1772913009617802200,10.63880224609375,-0.28338998556137085,-2.8739073276519775,-0.13969191908836365
1772913009717802200,10.73880224609375,0.722118616104126,2.4255056381225586,-0.08594886213541031
1772913009767802400,10.78880224609375,0.6674557328224182,0.7540029287338257,-0.12656410038471222
1772913009817802200,10.83880224609375,-1.4666645526885986,-1.8526625633239746,6.109416961669922
1772913009867802400,10.88880224609375,-3.148603677749634,-8.05302906036377,0.4488872289657593
1772913009917802200,10.93880224609375,-0.9310235977172852,-24.543603897094727,-0.3114491105079651
1772913009967802400,10.98880224609375,-0.8005437850952148,-5.6979827880859375,0.6989940404891968
1772913010017802200,11.03880224609375,-0.27545538544654846,-5.6376190185546875,-0.761266827583313
1772913010067802400,11.08880224609375,-0.7332311272621155,-6.695462226867676,-1.8324347734451294
1772913010117802200,11.13880224609375,-1.1274926662445068,-4.3222527503967285,-1.3428758382797241
