time,seconds_elapsed,z,y,x
1772895887575812600,0.0328125,0.049911155116558074,-0.005054031986556947,-0.010323807349335402
1772895887585780700,0.04278076171875,-0.05229249729514122,-0.013427636849880218,0.005514233376830816
1772895887595748600,0.05274853515625,-0.010085925206542015,-0.02557586488109082,0.011111012204270809
1772895887605716700,0.062716796875,0.04932663322687149,-0.014494243168085813,0.0024317206589505075
1772895887615684900,0.072684814453125,-0.07292962713241577,0.014035722278244792,-0.0075656494813039895
1772895887625653800,0.08265380859375,0.04887888945937156,-0.0014575053319334983,-0.005621566208824515
1772895887635621600,0.09262158203125,-0.028331191471219062,0.007164302138797938,0.01400127201937139
1772895887645589500,0.102589599609375,-0.017851298511028287,-0.017751966322399674,0.020656272929161786
1772895887655557600,0.1125576171875,0.024345336705446242,-0.002823094596713781,0.01397811033949256
1772895887665526500,0.122526611328125,0.013272738549113273,0.0325622531697154,0.005406042028311639
1772895887675494700,0.13249462890625,-0.0005085340440273285,0.04328972768280655,-0.007587806514184922
1772895887685462800,0.142462890625,-0.0015618424892425537,0.026379399816319343,-0.005344502833113074
1772895887695430700,0.1524306640625,0.019385668471455574,-0.015863412629440427,0.001019734969176352
1772895887705398500,0.1623984375,-0.059473933231830596,-0.025881277568452057,0.010889752402715384
1772895887715367700,0.17236767578125,0.03525426873266697,-0.039856063439697026,-0.0036427221502177416
1772895887725335600,0.18233544921875,-0.006495207238197327,-0.02136380014400929,-0.010782821429520844
1772895887735303700,0.1923037109375,-0.04225976358056068,-0.00447550144623965,-0.015937573844194412
1772895887745271800,0.202271728515625,0.022984569746255873,-0.016349990569986404,-0.016229615593329073
1772895887755239700,0.21223974609375,0.0038385552495718,-0.00107150168903172,-0.0011039609202183782
1772895887765208800,0.222208740234375,0.0014525368958711623,-0.009370543478801846,0.006211275730282068
1772895887775176700,0.2321767578125,0.016414543706178664,0.024992694698274136,0.0038701011653058228
1772895887785144600,0.24214453125,0.01580430285334587,0.036272907723300156,-0.00006785933813080191
1772895887795112700,0.25211279296875,-0.0018628712624311446,0.028371633079461753,-0.005041081173438579
1772895887805080600,0.26208056640625,0.0249222598105669,0.01051693703494966,0.0015275931597687304
1772895887815049700,0.2720498046875,0.025376433318853378,-0.018162008428014815,-0.0033626083008944986
1772895887825017600,0.282017578125,-0.03612345278263092,-0.028005430115573108,0.006144110511895269
1772895887834985700,0.29198583984375,0.00922083280980587,-0.030510069880262017,0.005396890607476234
1772895887844953900,0.301953857421875,-0.01936228759586811,-0.0029791984738782046,-0.009510426873527466
1772895887854921500,0.31192138671875,-0.01651800408065319,0.005363865120708942,-0.001437595055066049
1772895887864890600,0.321890625,0.02209551195204258,-0.0021577625557780266,-0.002505918406322598
1772895887874858500,0.3318583984375,-0.00842997469305992,-0.005369491143897175,0.00952975262850523
1772895887884826600,0.34182666015625,0.008338204756379128,-0.0024515213379636405,0.007330744746886194
1772895887894794800,0.351794677734375,0.005054360780119896,0.01510207286812365,-0.008703932796232402
1772895887904762600,0.3617626953125,0.02735387087166309,0.02051649913229048,-0.003598188888747245
1772895887914731800,0.371731689453125,-0.014845102432370185,0.010722359946556388,0.004240267918258905
1772895887924700000,0.381699951171875,0.010446575212478637,-0.009810030874609946,0.010445168706681579
1772895887934667500,0.39166748046875,0.004912321960926056,-0.012644998572207987,0.002592774705868214
1772895887944635600,0.4016357421875,-0.00914192235469818,-0.005368687426298856,0.0037626770017668604
1772895887954604500,0.4116044921875,0.02302957793176174,0.008428988312371075,-0.006248612065985798
1772895887964572400,0.421572509765625,-0.00734685563147068,0.017238025450892744,-0.005078271378669888
1772895887974540500,0.43154052734375,0.010008183795213699,0.011276998154632746,-0.0049836701640859245
1772895887984508400,0.44150830078125,0.007166238367557525,0.0040739714406430715,-0.0010822970776818693
1772895887994476500,0.4514765625,0.0011760580420494078,-0.01150412144139409,0.004927537796366959
1772895888004445400,0.461445556640625,-0.01618891825675964,-0.013203472705185413,-0.0022245076490566133
1772895888014413600,0.47141357421875,0.003260463100671768,-0.005543605601787567,-0.013662797312624752
1772895888024381400,0.48138134765625,-0.009002221623063087,-0.007809029783122241,-0.009909618791565298
1772895888034349600,0.491349609375,-0.007500000366568565,-0.009159165750443935,-0.01215571721792221
1772895888044317400,0.5013173828125,0.019897125124931334,-0.016341624600440263,-0.0016357845082879065
1772895888054286600,0.51128662109375,-0.005384615647792816,-0.0026871567247435447,0.008878924036957322
1772895888064254500,0.52125439453125,0.006285363879799843,0.006941855027154087,0.006437503967899829
1772895888074222600,0.53122265625,0.01107084459066391,0.024485366230644283,0.0019020524953491985
1772895888084190700,0.541190673828125,0.003583703705668449,0.032757227752543985,-0.008795209542568773
1772895888094158300,0.551158447265625,0.011214052453637123,0.013157258943282067,-0.000700951343588531
1772895888104127500,0.56112744140625,0.013755553629994392,-0.005621420078352093,0.0005248458580113947
1772895888114095400,0.571095458984375,-0.007648468926548958,-0.018838921308889985,0.010335095928329974
1772895888124063500,0.5810634765625,-0.00869885476231575,-0.016358904528804123,0.004967431415338069
1772895888134031600,0.591031494140625,-0.007797522008419037,-0.007965425921231508,0.000015709025785326956
1772895888144000500,0.60100048828125,-0.00256020587682724,-0.012774652833864092,-0.004643843750469386
1772895888153968600,0.61096875,-0.005541267514228821,-0.02115012086071074,0.0028264190649613737
1772895888163936500,0.6209365234375,0.01213525895178318,-0.012090177701041102,0.011963756576087324
1772895888173904400,0.630904296875,0.006457213315367698,0.002043415461108088,0.011667769304197282
1772895888183872500,0.64087255859375,0.0155851071447134,0.009921893751248717,0.005018430950213223
1772895888193841400,0.65084130859375,0.023507716837525366,0.027527802666462955,-0.00045863048769533634
1772895888203809500,0.6608095703125,-0.005675123026967048,0.0174132358873263,0.006236355372611433
1772895888213777700,0.670777587890625,0.006147416713833808,0.00590385374892503,0.004049878179002553
1772895888223745500,0.68074560546875,-0.000741173756122589,-0.016559212873876093,0.0021060323685407637
1772895888233713400,0.69071337890625,0.010477554872632026,-0.018269012466445564,0.0015502616493031382
1772895888243682300,0.700682373046875,-0.012273206117749213,-0.015413878763653337,-0.00696225849436596
1772895888253650400,0.710650390625,0.005233809000253677,-0.0043367870952934024,-0.005325560670625418
1772895888263618600,0.72061865234375,-0.012120061382651329,-0.0035829365206882357,-0.016320435681939124
1772895888273586400,0.73058642578125,0.0006114098966121674,-0.0006896262319758534,-0.01355294372998178
1772895888283555600,0.7405556640625,-0.0017845453292131422,-0.003990604006126523,-0.0052299730753526084
1772895888293523500,0.7505234375,-0.008963058656454085,-0.006867766877636313,0.004584843572229147
1772895888303491600,0.76049169921875,0.007791676789522171,0.004299268096499145,-0.0072129453198052935
1772895888313459500,0.77045947265625,-0.009421908339858055,0.007976349174045026,-0.007084131308365613
1772895888323427300,0.78042724609375,-0.0016413374662399291,-0.00027658845167607065,0.002649893454276025
1772895888333396500,0.790396484375,-0.008975333616137504,-0.007729315610416233,0.009968673768732696
1772895888343364400,0.8003642578125,0.016314590463042258,-0.0009567162029445171,0.004671590273920446
1772895888353332500,0.81033251953125,-0.004635258585214614,-0.0021095760324969888,0.011601608732808381
1772895888363300600,0.820300537109375,0.009582651859521864,0.017347586772590875,0.0025552191744558513
1772895888373269500,0.83026953125,0.004636427628993987,0.022700382510013876,-0.0021443002860061823
1772895888383237600,0.840237548828125,0.0017903905481100081,0.010334347009658813,0.003109839116223156
1772895888393205500,0.85020556640625,0.007032967376708984,-0.000802329358831048,0.0005156031056307256
1772895888403173400,0.86017333984375,0.002093172886967659,-0.008290273961424828,0.009267795490380376
1772895888413141500,0.8701416015625,0.0025356559574604034,-0.006952559084258974,0.00296613806290552
1772895888423110400,0.8801103515625,-0.02036006646156311,-0.006766388862393796,-0.0022672508122399447
1772895888433078500,0.89007861328125,-0.0019575638085603713,-0.010919051562435925,-0.0007219028000719845
1772895888443046700,0.900046630859375,-0.012127075645327567,-0.014377594518475234,-0.003140946640539914
1772895888453014500,0.9100146484375,-0.0019435352832078933,-0.011151618209294974,-0.004352185593824834
1772895888462982400,0.919982421875,-0.003592471534013748,-0.011052249488048255,0.007895758218504488
1772895888472951300,0.929951416015625,0.008232406294345854,0.010253025401756167,0.0035454905871301888
1772895888482919400,0.93991943359375,0.0026952304333448408,0.02088204450905323,0.004272416622191667
1772895888492887600,0.949887451171875,0.01645487571656704,0.022990049638971687,0.008450725220143795
1772895888502855400,0.95985546875,0.004174655336141586,0.013614829985052347,0.006142503076698631
1772895888512824600,0.969824462890625,-0.0010673369705677031,0.007733662991970777,0.00014664192907512188
1772895888522792700,0.979792724609375,0.0026671733826398847,-0.00151314450930804,-0.008512958535086363
1772895888532760300,0.98976025390625,0.009584405425190925,-0.008093034356273711,-0.006432188471965491
1772895888542728400,0.999728515625,0.23224632886350152,-0.02960278230961412,-0.013609532755427062
1772895888552696600,1.009696533203125,-0.42602936381995676,0.01786258709002286,-0.007903083008434623
1772895888562665500,1.01966552734375,0.11130348919034004,-0.021380532083101568,-0.005084573255293071
1772895888572633600,1.029633544921875,-0.10910919401645659,0.013604710449837147,-0.0011182817065156995
1772895888582601500,1.0396015625,0.19225743282437324,-0.02037614081352949,-0.009790979114267975
1772895888592569600,1.049569580078125,-0.07468494636714458,-0.012689897159859537,-0.004812898440752178
1772895888602537500,1.059537353515625,0.12822598241865635,-0.0007539601724594831,0.01871394322235137
1772895888612506400,1.06950634765625,-0.19306758016347883,0.01510247472692281,0.01301355788996443
1772895888622474500,1.079474609375,0.07568155618906021,0.02993932078760117,0.005553725137002766
1772895888632442400,1.0894423828125,0.055775663235783576,0.009304529037885367,-0.007533902636170387
1772895888642410500,1.099410400390625,0.033627544313669204,-0.0012268018485978244,0.0030142697872593996
1772895888652379400,1.10937939453125,-0.06498129847645759,-0.020459581313282252,0.020192089483514426
1772895888662347500,1.119347412109375,0.05382862082123756,-0.032733737279102205,0.02773651351369917
1772895888672315600,1.129315673828125,-0.1431020645111799,0.024420155507326124,-0.007643555289413779
1772895888682283500,1.139283447265625,0.13569324955940246,0.010558547686971724,-0.010277063864469528
1772895888692251400,1.14925146484375,0.016440262669324874,0.006668006521835923,-0.0019128661503084003
1772895888702220500,1.159220458984375,-0.05224748910963535,-0.008275076392292975,0.01367952925171703
1772895888712188400,1.1691884765625,-0.04132394403517246,-0.013564232308976352,0.018340031876042485
1772895888722156500,1.179156494140625,0.03977788363695144,-0.004803929683007299,-0.003054181672539562
1772895888732124700,1.189124755859375,0.02631517547369003,0.007290741530060768,-0.017295071134064345
1772895888742093600,1.199093505859375,-0.017519874599575994,0.01398804721161723,-0.014356387333665042
1772895888752061700,1.209061767578125,0.010616671082377432,-0.01401106276102364,0.0011458455668762325
1772895888762029300,1.219029296875,-0.06600713439285755,-0.0016131708176806568,0.009829594091605394
1772895888771997400,1.22899755859375,0.02857084544599056,-0.019270444593951105,0.005673497325461357
1772895888781965600,1.238965576171875,0.07855681936442852,0.0034319106774404642,-0.0019380188578739762
1772895888791934500,1.2489345703125,-0.04175181405842304,0.03145378047116101,-0.004282810152042657
1772895888801902600,1.258902587890625,0.017355623948574064,0.022582747479714452,-0.0010259272479452193
1772895888811870500,1.268870361328125,-0.021996727752685546,0.007583185137994587,0.010990016173105686
1772895888821838600,1.278838623046875,0.028438158977031707,-0.012190204009413718,-0.0036862872973084447
1772895888831807500,1.288807373046875,0.009445873737335204,-0.01193509673718363,-0.003840454945713281
1772895888841775400,1.298775390625,0.019620061749219892,-0.010122457824647426,0.01036052263053134
1772895888851743500,1.308743408203125,-0.06358896733522415,-0.004898001174628734,-0.0037413054201751944
1772895888861711600,1.318711669921875,0.002701660174131393,-0.008438121466897427,-0.0018765527279116213
1772895888871679500,1.328679443359375,0.06451309644281863,-0.025559169474616644,-0.005677662043925375
1772895888881648600,1.338648681640625,-0.02526069798469543,-0.013318331256508827,0.005147573755215853
1772895888891616500,1.348616455078125,0.011406944677233695,-0.002718392113223672,0.009916066798660904
1772895888901584400,1.35858447265625,-0.020019874721765515,0.024958682830817997,0.014196703259926289
1772895888911552500,1.368552490234375,-0.010149638092517852,0.023121238270588217,-0.002308386540226638
1772895888921520400,1.378520263671875,0.045672786894440646,0.015212876298837363,-0.005219342083483934
1772895888931489500,1.388489501953125,0.015599720191955565,0.003696699093468487,0.005242083638254553
1772895888941457400,1.39845751953125,-0.04710311195850372,-0.009984072267264128,0.011485526338778435
1772895888951425500,1.408425537109375,-0.015379939961433409,-0.006343852601386606,0.004981697402708232
1772895888961393400,1.418393310546875,0.02741583019196987,-0.012299947994202375,-0.0059231795039027925
1772895888971362300,1.4283623046875,0.00931494083404541,0.009934972428530454,-0.01421440331339836
1772895888981330400,1.438330322265625,0.001692190870642662,-0.0061973202701658,0.0011202179352752864
1772895888991298300,1.44829833984375,0.005734159737825394,-0.01685520014576614,0.006383399160485715
1772895889001266200,1.45826611328125,-0.04708499177992344,-0.013425773686356841,0.0019257804308086632
1772895889011234300,1.468234375,0.03402151206731796,-0.007546214128471911,-0.010398936678469181
1772895889021203200,1.478203125,0.006188917768001556,0.01550645241793245,-0.009943959452584385
1772895889031171300,1.48817138671875,-0.009229600638151168,0.017501316029578447,-0.0031749402416869996
1772895889041139500,1.498139404296875,-0.004894786304235458,0.00016461597718298433,-0.00480723588494584
1772895889051107300,1.508107421875,0.0022819734573364257,-0.005506305798701942,0.012419446188025176
1772895889061076500,1.518076416015625,0.019338322198390958,-0.009037256403826176,0.004943995740823447
1772895889071044000,1.528044189453125,-0.004460486540198326,0.004467646933346986,0.003936901057511568
1772895889081012200,1.53801220703125,0.014083470410108566,0.007817870676703751,0.002192249347269535
1772895889090980400,1.54798046875,-0.041292379853129384,0.010856836513802409,0.0006241780466400087
1772895889100948200,1.5579482421875,0.028289690417051313,0.0011862871751189231,-0.00047837636778131124
1772895889110917400,1.56791748046875,0.006742459997534751,-0.011527538849599658,0.004051449081581086
1772895889120885200,1.57788525390625,-0.0010316811352968215,-0.010129873946122825,0.004605411436222493
1772895889130853000,1.58785302734375,-0.01315174251794815,-0.01003540059570223,0.0003532886833883822
1772895889140821200,1.5978212890625,-0.012850129222869872,0.00429261916000396,-0.0019068382683210074
1772895889150789400,1.607789306640625,0.0016717326045036314,-0.0013209098728373646,-0.0033315190428867933
1772895889160758300,1.61775830078125,0.009310849180817603,-0.017972988661937413,0.003691931586805731
1772895889170726400,1.627726318359375,-0.0036994390398263927,-0.013940700938552618,0.010349672442954034
1772895889180694300,1.6376943359375,-0.014925766453146933,-0.0027464856965467334,0.009037877458333968
1772895889190662400,1.647662353515625,0.008716974940896034,0.006476575602963566,0.004488525324594229
1772895889200631300,1.65763134765625,0.019497896674275397,0.01600932390615344,0.0012074395610019563
1772895889210599200,1.66759912109375,0.00871931302845478,0.02177884721830487,-0.0033107867821119724
1772895889220567300,1.6775673828125,0.01186111818552017,-0.0005014467161148787,0.01268796093109995
1772895889230535200,1.68753515625,-0.0099906481385231,-0.002543437405116856,-0.0032581980783492324
1772895889240503300,1.69750341796875,-0.004912321960926056,-0.007654387210682034,-0.0065445262726396315
1772895889250472200,1.70747216796875,0.006601590222120285,-0.0017910846678540109,-0.008226999466866254
1772895889260440300,1.7174404296875,-0.010760463467240333,-0.006593078122101724,-0.005492368604894727
1772895889270408400,1.727408447265625,-0.015246668970584869,-0.0016646818092092871,-0.006751520086824893
1772895889280376300,1.737376220703125,-0.01075578729212284,-0.01067241985760629,0.0001555924205109477
1772895889290345200,1.74734521484375,0.018880641558766363,-0.007599076826870441,0.001185611321683973
1772895889300313300,1.757313232421875,-0.008648001357913018,0.005490341044589877,-0.005942760987207293
1772895889310281200,1.76728125,0.020243162083625792,0.0022785759238526226,-0.00017944822013378142
1772895889320249300,1.777249267578125,-0.014027356308698653,0.01206033055204898,-0.000383281962852925
1772895889330217500,1.787217529296875,-0.004454056799411773,0.0022486557096242903,0.001840184506587684
1772895889340186400,1.797186279296875,0.019932780960202217,-0.008157550959847867,-0.002097757730539888
1772895889350154500,1.807154541015625,0.006324526846408844,0.0009688084995374083,0.01086542167905718
1772895889360122000,1.8171220703125,0.009018003714084625,0.0006010346330702304,0.00812260751063004
1772895889370090200,1.82709033203125,-0.00550035098195076,0.0024896248586475846,0.0007996807440184057
1772895889380059100,1.83705908203125,0.014103344154357909,0.010084938825853169,0.003045724371448159
1772895889390027300,1.84702734375,0.0006365443378686904,-0.0023567922592163085,-0.002356573063507676
1772895889399995400,1.856995361328125,0.022940146082639692,-0.004557809434831142,0.0016509455448016524
1772895889409963300,1.86696337890625,-0.012972878819704055,-0.007561484762839973,0.001333477093465626
1772895889419931100,1.87693115234375,-0.00324818814098835,-0.0023217574784532187,0.002174604092724621
1772895889429900300,1.886900390625,-0.0021972177833318707,-0.0014415405778214335,0.001311447924748063
1772895889439868200,1.8968681640625,0.023699440017342567,0.000496332149580121,0.0021624752635136246
1772895889449836300,1.906836181640625,-0.0096726682305336,-0.016560126189328728,0.0022293847535736857
1772895889459804400,1.916804443359375,0.0033481413841247557,-0.009083031774312257,0.010166625759936869
1772895889469773300,1.926773193359375,-0.0012877017229795456,-0.006427439231611788,0.0016855602004565299
1772895889479741400,1.936741455078125,0.007694646155834197,-0.006051518591307104,-0.0046965603183954955
1772895889489709300,1.946709228515625,0.009043722677230834,0.007521481546014547,-0.001535301542188972
1772895889499677200,1.95667724609375,0.011432079118490219,0.00980681600421667,-0.008518383628875017
1772895889509645300,1.966645263671875,0.002449146717786789,-0.0003212313110008836,-0.000983037954289466
1772895889519614200,1.9766142578125,0.0035012861192226406,-0.01009790790528059,0.005693060542456805
1772895889529582300,1.986582275390625,0.015322072294354437,-0.010343480164185166,0.004246788990590721
1772895889539550200,1.99655029296875,0.0006546645164489745,-0.00744940269049257,0.0003388400329276919
1772895889549518300,2.006518310546875,0.0061895022898912425,-0.00875306916758418,-0.0034016068707220255
1772895889559487200,2.0164873046875,-0.01910217535495758,-0.008938326073996722,-0.0011091120193712414
1772895889569455400,2.026455322265625,-0.004131400716304779,-0.016844167295098304,0.005998820289690047
1772895889579423200,2.03642333984375,-0.000831190127134323,-0.018387853073142467,0.0037573067069053647
1772895889589391000,2.04639111328125,0.02012742674946785,-0.005855740290880203,0.0023201683095656336
1772895889599359200,2.056359130859375,0.002022445738315582,0.014349975859187543,0.004161320930533111
1772895889609328400,2.066328369140625,0.008451602002978325,0.011866013556346297,0.009303359994105994
1772895889619296300,2.076296142578125,0.007401216167211532,0.01198039718363434,0.007555438614543527
1772895889629264400,2.086264404296875,0.010688567274808883,0.002381963233090937,0.011964085369650273
1772895889639232500,2.096232421875,0.006342062503099441,0.001117569320462644,0.0038226452943868933
1772895889649201400,2.106201416015625,0.0061836570709943766,-0.005378222439624369,0.006690510614588857
1772895889659169300,2.116169189453125,-0.0001087210714817047,-0.004799838029779494,0.0018216442028991878
1772895889669137200,2.12613720703125,0.005727145475149155,-0.011279957296699285,-0.0006429375460371375
1772895889679105300,2.136105224609375,0.008570259946584701,-0.004368022483773529,-0.000006356675550341606
1772895889689073400,2.146073486328125,-0.002502338209748268,-0.01769819030854851,0.008224807509779929
1772895889699042300,2.156042236328125,0.00947042365670204,-0.005912365848943591,-0.00043493908485397694
1772895889709010400,2.166010498046875,-0.006091302612423896,0.003499240292608738,-0.004921217653434723
1772895889718978300,2.175978271484375,0.014713000485301017,0.005082344765588641,-0.0006584639087319373
1772895889728946200,2.1859462890625,-0.001449029764533043,0.007967033356428146,0.0014468012748286127
1772895889738915300,2.195915283203125,0.014261749586462974,-0.001379617790132761,-0.0005678264832124114
1772895889748883200,2.20588330078125,-0.012072130587697029,0.009509111699275673,0.005440200026240199
1772895889758851300,2.215851318359375,0.008287351351976394,0.0006856441766023635,0.01363057554345578
1772895889768819500,2.2258193359375,-0.007722703206539154,-0.001251096039637923,-0.003095500063616782
1772895889778788400,2.235788330078125,0.004994739547371864,0.005436966889537871,-0.0024029694885015487
1772895889788756500,2.245756591796875,0.0043920974791049954,-0.0048765930604189635,0.007994341488461941
1772895889798724000,2.25572412109375,-0.0044458734929561615,0.0008960720568895339,0.0017110965005122125
1772895889808692200,2.265692138671875,0.004372223734855652,-0.003093655166402459,0.007123075079265981
1772895889818660400,2.275660400390625,-0.0035661680489778515,-0.005307787551917136,0.0015722908180207014
1772895889828629200,2.285629150390625,0.005261866050958633,0.007326251234859227,0.005927179825585335
1772895889838597400,2.295597412109375,-0.0022246903121471403,0.010831081018038093,-0.0035842882275581357
1772895889848565200,2.305565185546875,0.013631050467491149,-0.0020018778743222353,-0.004467190275620669
1772895889858533400,2.315533447265625,-0.005666939720511436,-0.008140234498865901,0.006412954048532992
1772895889868502300,2.325502197265625,0.006906126126646995,-0.002952675793133676,0.00003662394965067506
1772895889878470100,2.33547021484375,-0.004315525111556053,-0.003147102386690676,0.008699293153733014
1772895889888438300,2.345438232421875,0.001816109511256218,0.001314918523468077,0.0030096484110690653
1772895889898406100,2.35540625,0.0030167174726724623,0.010967420748807489,0.0010817490884102881
1772895889908374300,2.365374267578125,0.007215922728180885,-0.0002298267005011439,0.010195303865149616
1772895889918343400,2.375343505859375,0.00646890375316143,0.0032912235651165246,0.012444032640010119
1772895889928311300,2.385311279296875,0.012156301739811897,0.003982749493233859,0.004684066163003445
1772895889938279400,2.395279541015625,0.017087328401207923,0.007459631823562085,0.0014099581294693053
1772895889948247300,2.405247314453125,0.004521276816725731,0.0027290961703285575,0.005433879883307963
1772895889958216200,2.41521630859375,0.01036065049469471,-0.010009791230410337,-0.010185366993024945
1772895889968183800,2.425183837890625,-0.006247954478859901,-0.007478336524032056,-0.0001302935824729502
1772895889978151700,2.435151611328125,0.011114099210500716,-0.01569569137971848,0.004761314383987337
1772895889988119800,2.445119873046875,0.0006371288597583771,-0.009703538292832672,-0.00295682224528864
1772895889998088000,2.455087890625,0.0030289924323558806,-0.0053578737713396545,-0.0016710567510686814
1772895890008056800,2.465056884765625,0.0015267711758613586,-0.004392353207431733,0.002562543964385986
1772895890018025000,2.47502490234375,0.016332126119732854,0.005083659939840435,-0.012721607472375034
1772895890027993000,2.4849931640625,0.00017009586989879608,0.006426927774958312,-0.0010933847272768615
1772895890037960700,2.494960693359375,0.005406827479600906,0.002319273260422051,0.006165281164087355
1772895890047929900,2.504929931640625,-0.0001309329032897949,0.002165690133906901,0.011077274331450462
1772895890057897700,2.514897705078125,-0.004026186776161194,0.0028185280194506046,0.0003529416235163808
1772895890067865900,2.524865966796875,0.005396890607476234,0.0035890009352937337,-0.000786620333045721
1772895890077834000,2.534833984375,-0.002087327668070793,-0.00884454684332013,0.005847830979060381
1772895890087801900,2.5448017578125,0.004640519282221794,-0.004935958564840257,-0.0028616182425059374
1772895890097771000,2.55477099609375,-0.009723521634936332,-0.005148688000068068,0.005015855400636792
1772895890107739000,2.56473876953125,0.0071831895023584365,-0.0041151802338659765,-0.0010557743969373404
1772895890117706800,2.574706787109375,-0.006283610314130782,-0.004188756926730275,-0.0020277064353227616
1772895890127675000,2.5846748046875,0.0058364510685205455,0.0004983049109578133,0.002804736956115812
1772895890137643800,2.594643798828125,-0.0035901334464550016,0.008057341988384724,-0.0008248882505111396
1772895890147612000,2.60461181640625,0.007786416092514991,-0.0033881811335682867,0.014326759380381554
1772895890157579800,2.614579833984375,-0.003145312288403511,-0.01026581181809306,0.007525262671988457
1772895890167548000,2.6245478515625,0.007921440649032592,-0.0024516674684360623,0.006016611674707383
1772895890177517000,2.63451708984375,0.005676876592636108,0.0017106398427858948,0.0019282646488398313
1772895890187485000,2.64448486328125,0.008677227452397346,0.00529883706048131,0.0015399777173064648
1772895890197452800,2.654452880859375,0.012568974193930625,0.005482340401224792,0.005810951301082968
1772895890207421000,2.6644208984375,-0.004639934760332107,0.0025897242322564123,0.002728365517966449
1772895890217388800,2.674388916015625,-0.0019558102428913113,0.006883402838185429,-0.0026255444643087686
1772895890227358000,2.68435791015625,0.0065688569962978356,0.0029867241932079193,-0.00259551465222612
1772895890237325800,2.694325927734375,-0.005253098222613334,0.005007160637527704,-0.005642590730544179
1772895890247294000,2.7042939453125,-0.006439677658677101,0.0017434096012264489,0.003520264814328402
1772895890257262000,2.714261962890625,0.0034428339302539825,-0.008348799215629697,0.0013464461728930472
1772895890267231000,2.72423095703125,-0.012569558715820313,-0.011181465358287096,-0.002260327881108969
1772895890277198800,2.73419873046875,0.013910451930761337,-0.010893697925470769,0.008189918859489262
1772895890287166700,2.744166748046875,-0.004793664017319679,0.0007434387784451246,-0.005893624615855514
1772895890297134800,2.754134765625,0.009120879566669463,0.005961538752913474,-0.0013420257261022924
1772895890307104000,2.76410400390625,-0.005702011033892631,0.0018458470623940227,0.010432144828327
1772895890317072000,2.77407177734375,0.013597732719779014,0.007093794185854494,0.0031541897146031258
1772895890327040000,2.7840400390625,0.0017728548914194106,0.014479410925135015,0.005191942619904875
1772895890337007900,2.7940078125,0.0037158056527376174,0.004080949170701205,0.005224273986928165
1772895890346975700,2.803975830078125,0.008050035464763641,0.011385280834697186,0.00267166689466685
1772895890356945000,2.81394482421875,0.0013099135547876358,0.01437364899571985,-0.0012455978806130588
1772895890366912800,2.823912841796875,0.006838321587443351,-0.004605228773131967,0.0024542064853943883
1772895890376881000,2.833880859375,-0.00887830298244953,-0.0032074177391827104,0.0004809701836667955
1772895890386849000,2.84384912109375,0.008778349739313126,-0.01004964831676334,0.0068042183884419495
1772895890396818000,2.85381787109375,-0.008877133938670158,-0.011974113573320209,-0.0024353191218338907
1772895890406786000,2.8637861328125,0.00429039067029953,0.00012183628138154745,-0.0032475122875533996
1772895890416753700,2.873753662109375,-0.00184825821518898,-0.0023702727952972054,0.000445551810413599
1772895890426721800,2.8837216796875,0.011015315011143684,0.007497589213773608,0.002857544855587184
1772895890436690000,2.89368994140625,0.008029577198624611,0.004534647754952311,-0.002605086198169738
1772895890446658800,2.903658935546875,0.0036982699960470197,-0.0003682853231206536,0.0011063720730133354
1772895890456627000,2.913626953125,0.0029489129334688184,0.010591975032538175,0.0020133491164073345
1772895890466594800,2.9235947265625,0.005936988833546638,0.011271810522861778,-0.0013289835814386606
1772895890476563000,2.93356298828125,0.011020575708150864,0.010825345396995544,0.0015887670287862419
1772895890486532000,2.943531982421875,-0.005887888994812965,0.005286708231270313,0.007740805118810385
1772895890496499700,2.953499755859375,0.010126257216930388,-0.0003945888081565499,0.002614274151623249
1772895890506467800,2.9634677734375,0.0012999766826629637,-0.0029758374730125066,0.003379321973677724
1772895890516436000,2.97343603515625,0.00220423204600811,0.007555383815616368,0.003178958829678595
1772895890526404900,2.98340478515625,-0.00258241770863533,0.0020710341203957795,-0.006770370917767286
1772895890536373000,2.993373046875,0.003706453302502632,-0.0025379575124010443,-0.0014205160561017692
1772895890546340900,3.0033408203125,-0.007220014381408691,-0.0016963555891066789,0.0062366293672472236
1772895890556309000,3.01330908203125,0.0019090484917163848,0.0002552168700844049,0.0006062953300774097
1772895890566278000,3.02327783203125,0.002205401089787483,-0.0035939328387379643,-0.013197956279851495
1772895890576245800,3.033245849609375,0.010737667113542557,0.002265679909661412,0.005036788590811193
1772895890586214000,3.0432138671875,-0.007666589105129242,0.0029088001187890767,0.004977094292826951
1772895890596181800,3.053181640625,0.003258709535002708,-0.004403824449516832,0.004924341192282736
1772895890606150000,3.06314990234375,0.008944353955984115,0.0035662411142140626,0.004055358071718365
1772895890616118800,3.073118896484375,0.005801379755139351,0.007797266280092299,0.0030388927718624473
1772895890626087000,3.0830869140625,0.014030278918147086,0.008429317105934024,0.0012504384525120257
1772895890636055000,3.093054931640625,-0.009617138651013374,0.004320128221437335,0.003149714468885213
1772895890646023000,3.10302294921875,0.0150666362285614,0.006252009599469602,0.004026899162214249
1772895890655991800,3.11299169921875,-0.005582768568396568,-0.0005368468230590224,0.009047485536895692
1772895890665960000,3.1229599609375,0.007139350360631943,-0.008837496048025787,0.0038074294589459895
1772895890675927800,3.132927734375,-0.006027589726448059,-0.008028590817935765,-0.00024860446620732544
1772895890685896000,3.14289599609375,0.009538228195905685,-0.005213095005787908,-0.003916497590299695
1772895890695864800,3.15286474609375,-0.010062544330954552,0.0005014467161148787,-0.0030708405463956293
1772895890705833000,3.1628330078125,-0.007816226708889007,-0.0007611205656081438,-0.004295925361942499
1772895890715800800,3.17280078125,-0.0021264906346797944,0.0003863689690828323,0.005330492574069649
1772895890725768700,3.182768798828125,-0.011701543709635734,-0.004793992810882628,0.011109751828946173
1772895890735736800,3.19273681640625,0.02166588836312294,0.007709441866166889,0.006018748832866549
1772895890745705700,3.202705810546875,0.003557400220632553,0.00993453403711319,0.0032089155765250323
1772895890755673900,3.212673828125,-0.006321604236960411,0.011191438763029873,0.0024545535452663897
1772895890765642000,3.22264208984375,-0.0024286884516477583,0.016770115678198635,-0.001350008103158325
1772895890775609900,3.23260986328125,0.0101432083517313,-0.00532638265453279,0.0017289609507657587
1772895890785579000,3.2425791015625,-0.010212181934714317,-0.007221512218751013,0.009316603068169206
1772895890795547000,3.252546875,0.001609188762307167,0.003568798397481441,-0.00038370208796113727
1772895890805514800,3.2625146484375,-0.0004904138654470443,-0.002752221317589283,-0.002035542681906372
1772895890815483000,3.27248291015625,0.0027910920232534406,0.0083873045951128,0.0005417239275760948
1772895890825451800,3.28245166015625,0.002787584891915321,0.0048589478058740495,0.008603650759533047
1772895890835420000,3.292419921875,0.0036830724269151685,-0.0066410089170560235,0.004678330541960895
1772895890845388000,3.302387939453125,-0.0024479776740074155,-0.0028094679301604625,0.0032225605093874035
1772895890855356000,3.31235595703125,0.005334931287169456,0.0017742796635255216,-0.005177786230389028
1772895890865325000,3.322324951171875,0.002189034476876259,0.009653086747229098,-0.0009673837274312972
1772895890875292700,3.332292724609375,-0.0027495909690856933,0.014899061109311877,-0.0012695084791630505
1772895890885260800,3.3422607421875,0.018043606212735173,0.005118950448930263,-0.002547602123580873
1772895890895229000,3.35222900390625,-0.001409282276034355,-0.005319331859238445,-0.0030923217258416115
1772895890905196800,3.36219677734375,0.0072702832639217375,-0.011057912043854593,0.013456205357238649
1772895890915166000,3.372166015625,-0.01502571969628334,0.0048585094144567844,0.011143434902839361
1772895890925133800,3.3821337890625,0.005178279420733452,0.006265344005078077,-0.009540200957283376
1772895890935102000,3.39210205078125,0.0011374795973300934,-0.0007264876436442136,-0.0006783924519084394
1772895890945069800,3.40206982421875,0.0036848259925842284,-0.007204634149186312,0.006875018602330237
1772895890955038700,3.412038818359375,-0.00933539910018444,-0.009454276239499449,-0.002627681622467935
1772895890965006800,3.4220068359375,-0.009185176974534987,-0.00633490210995078,-0.004571436101384461
1772895890974975000,3.43197509765625,0.005925882917642593,-0.0017451996995136141,-0.004069076069816947
1772895890984942600,3.441942626953125,0.009808861830830573,0.009642528820596635,-0.004997680423129349
1772895890994912000,3.451912109375,0.0035182372540235518,0.0008225318966433406,0.0018505415038205682
1772895891004879600,3.461879638671875,0.002468435940146446,-0.006216938286088406,0.005957940290030092
1772895891014847700,3.47184765625,0.0053021980613470075,-0.0032649566126987336,0.0024953422133810817
1772895891024815900,3.48181591796875,-0.0005360065728425979,0.002621105751208961,-0.00411001086840406
1772895891034784800,3.49178466796875,0.014426000237464903,0.008948884000629187,0.0024858072000555694
1772895891044753000,3.5017529296875,-0.009968436306715012,0.010154168137162923,0.0034192886578850445
1772895891054720800,3.511720703125,0.0054430678367614746,0.0058675037939101456,-0.0023847945109941064
1772895891064688600,3.521688720703125,-0.0018903437912464142,-0.007591478042304515,0.017034630099590865
1772895891074656800,3.53165673828125,0.004239537265896797,0.000010119535215198992,0.005354202243220061
1772895891084625700,3.541625732421875,-0.008037760505080222,-0.007492036255821585,0.00021150559252128005
1772895891094593800,3.55159375,-0.004000467813014984,0.007892104956693947,0.007166183568630367
1772895891104562000,3.56156201171875,-0.0008610007435083389,0.00771532361768186,0.0018402210392057894
1772895891114529800,3.57152978515625,0.0009340659797191619,0.005713774536922574,-0.0013420439924113452
1772895891124499000,3.5814990234375,-0.0005669862329959869,-0.0065327627696096895,0.006619801732245832
1772895891134466800,3.591466796875,-0.005053191736340523,-0.01116002071145922,0.014199224010575561
1772895891144434700,3.6014345703125,0.007208908465504646,0.004168663986772299,-0.002884524194058031
1772895891154402800,3.61140283203125,-0.005209259080886841,0.01170165330749005,-0.0026702969214878977
1772895891164371700,3.621371826171875,0.00810673408806324,0.009205562175437807,0.001834101825673133
1772895891174339800,3.63133984375,-0.0074514850497245785,0.0025251710960641502,0.004523614904284477
1772895891184307700,3.6413076171875,0.013652093255519866,0.001968121735192835,0.011580218884907663
1772895891194275800,3.65127587890625,-0.014779051458835601,-0.0005276040706783532,-0.0009372443174943327
1772895891204244700,3.66124462890625,-0.001312251642346382,-0.0055003144493326545,-0.0015911599152721465
1772895891214212900,3.671212890625,0.0009276362389326095,0.001622961559332907,-0.002524641373101622
1772895891224180700,3.6811806640625,0.003772504276037216,0.0021751520819962024,-0.0029745222987607118
1772895891234148900,3.69114892578125,-0.005054945302009582,-0.006141352299228311,-0.004410838712193071
1772895891244117800,3.70111767578125,-0.004597849184274673,0.0004614069666713476,-0.0034163295158185065
1772895891254086000,3.7110859375,0.005281739795207977,-0.00435384782794863,-0.005130056364834309
1772895891264053800,3.7210537109375,0.0019920506000518797,0.0051664793850854035,0.00005980389583855867
1772895891274022000,3.73102197265625,0.005883797341585159,0.01281176997385919,0.006345679232291877
1772895891283990000,3.740989990234375,-0.012217676538228988,0.008583338623866439,0.001073492716718465
1772895891293959000,3.750958984375,0.008881225591897964,0.00895936886202544,-0.002426039836835116
1772895891303926800,3.7609267578125,-0.003385550785064697,0.004045658661611378,0.007106598868500441
1772895891313894700,3.770894775390625,0.0033481413841247557,-0.004209872779995203,0.006018182577285916
1772895891323862800,3.78086279296875,0.0031967502146959302,-0.004552073813788592,0.003855561183299869
1772895891333831700,3.790831787109375,-0.010575170028209686,0.0036695918908342716,0.003280957899428904
1772895891343799800,3.8007998046875,-0.0006985036581754684,0.000547733543254435,0.0015379318906925618
1772895891353768000,3.810767822265625,0.008133037573099135,0.000057977264933288094,-0.000812448894046247
1772895891363735600,3.820735595703125,0.006928337958455085,-0.0041657779099419714,0.001767119270376861
1772895891373705000,3.830705078125,0.0007955342918634414,-0.010848105218075214,0.0017160466702654956
1772895891383672800,3.8406728515625,-0.00414484471976757,-0.006063574355281889,0.0031373116450384257
1772895891393640700,3.850640625,0.01799976707100868,-0.004212393530644476,-0.007923376877792179
1772895891403608800,3.86060888671875,-0.009537643674015998,0.012610986704751848,-0.001982734782435
1772895891413577700,3.87057763671875,0.0033329438149929044,-0.008689758140407502,0.011474201227165758
1772895891423545900,3.8805458984375,-0.022109540477395058,-0.011666801189817487,0.01090288587892428
1772895891433514000,3.890513916015625,0.004075871136784553,-0.007803403759934008,0.010084281238727271
1772895891443481600,3.900481689453125,0.020538345637917517,0.008344817160256207,-0.00048628567960113284
1772895891453450800,3.91045068359375,-0.006101239484548568,0.015930486516281962,-0.0027213877879083154
1772895891463418600,3.920418701171875,0.010810732349753379,0.005554382724128663,-0.000742233202047646
1772895891473386800,3.93038671875,-0.02794131537079811,-0.000983165818452835,0.007184084551502019
1772895891483355000,3.94035498046875,0.0332616336107254,-0.006538498390652239,0.005546418613381683
1772895891493323800,3.95032373046875,0.011408698242902755,-0.0014075287103652954,-0.0014720818465575574
1772895891503292000,3.9602919921875,0.0019756839871406555,0.00002107932064682245,-0.0012554434211924672
1772895891513259800,3.970259765625,-0.0026689269483089447,-0.0007653948819264769,-0.005190517847798765
1772895891523227600,3.9802275390625,0.004067103308439255,0.008245083112828433,-0.010764536854159087
1772895891533196800,3.99019677734375,0.013344634741544723,-0.011017945359647273,-0.0047286907560192045
1772895891543164700,4.00016455078125,-0.005963292318582535,-0.00951733153834939,0.006795395761169493
1772895891553132800,4.0101328125,0.008403086686134337,-0.013825440528430044,0.005180069519020617
1772895891563101000,4.020100830078125,-0.012092588853836059,0.008838007504679262,0.001033270304184407
1772895891573068800,4.03006884765625,0.006311082842946052,0.014702588689140974,-0.00301339300442487
1772895891583038000,4.040037841796875,0.013487842604517936,0.010443104613758624,-0.002055361627228558
1772895891593005800,4.050005859375,-0.00073415949344635,0.009954809640161693,-0.004377320035081357
1772895891602973700,4.0599736328125,0.0019499650239944457,-0.003550641686283052,0.007129486553743482
1772895891612941800,4.06994189453125,0.002242225968837738,0.007975289728119969,0.0005353124530985951
1772895891622910700,4.07991064453125,-0.003601239362359047,0.008069215089268982,-0.004187496551405638
1772895891632878800,4.08987890625,0.012559037321805954,0.005461297613196075,-0.008176346991863101
1772895891642846700,4.0998466796875,-0.0001543137788772583,0.00162277889624238,-0.005431505263131111
1772895891652814800,4.10981494140625,-0.00015080664753913878,0.0013482728037983178,0.004246843789517879
1772895891662783700,4.11978369140625,-0.013612345767021179,-0.006723791829682886,0.0072435596537776285
1772895891672751900,4.129751953125,0.021707389417290685,0.000030029812082648275,0.0024588278615847226
1772895891682719700,4.1397197265625,0.009891863939166069,0.0083818977676332,-0.007306158294901251
1772895891692688000,4.14968798828125,0.011247370201349258,0.0046310573341324926,-0.0007925203508697449
1772895891702656800,4.15965673828125,-0.007158055061101913,0.002435666181705892,-0.003724409084301442
1772895891712625000,4.169625,-0.008799977049231529,-0.007049845446273684,0.004567947236355394
1772895891722592800,4.1795927734375,0.004517769685387611,-0.0027110855896025896,0.009801445709355174
1772895891732561000,4.189560791015625,-0.002217091527581215,0.005671835091337561,0.004671188415121287
1772895891742529800,4.19952978515625,0.007948913177847862,0.003982493764907121,-0.005971621755510568
1772895891752497700,4.20949755859375,-0.021833646145462987,0.006426233655214309,-0.0032069062825292346
1772895891762465800,4.2194658203125,0.008690086933970451,-0.00044478462543338535,-0.0008744812795892357
1772895891772433700,4.22943359375,0.0021072014123201368,0.000056808221153914926,0.0027749628723599015
1772895891782402800,4.23940283203125,0.013476736688613891,-0.0039786578400060535,0.0017710830594412981
1772895891792370700,4.24937060546875,-0.011216390541195869,-0.0011009469792246818,-0.003506966941338032
1772895891802338800,4.2593388671875,-0.00194236623942852,0.00913077990617603,-0.006096599842049181
1772895891812307000,4.269306884765625,-0.0020920038431882855,0.006716631436534225,-0.002677713042963296
1772895891822275800,4.27927587890625,0.016014146211743355,0.002316789042390883,0.004267813512310386
1772895891832243700,4.28924365234375,0.008684241715073584,-0.0016722805937752128,0.014602671978622674
1772895891842211800,4.2992119140625,0.0017974048107862472,-0.0009638400634750723,0.0019023995552212
1772895891852179700,4.3091796875,-0.014969605594873427,0.001525309871137142,-0.0009134433167986571
1772895891862148900,4.31914892578125,0.019894787037372588,0.01053151354957372,-0.007655154395662248
1772895891872116700,4.32911669921875,-0.0015039748221635817,0.004738280568271875,-0.007166548894811421
1772895891882084900,4.3390849609375,0.017052257087826726,0.008046016876772045,-0.003063716685865074
1772895891892053000,4.349052978515625,0.0040332010388374325,0.0013161240998655556,0.003516483688354492
1772895891902022000,4.35902197265625,0.009565700724720955,-0.0038663200393319126,0.0013587941978126764
1772895891911989800,4.36898974609375,0.007312953361868858,0.004017601610906422,-0.002815148752275854
1772895891921957600,4.37895751953125,0.002072130098938942,0.006911058030091226,-0.004674622481223196
1772895891931925800,4.38892578125,0.006855857244133949,0.0013175123393535614,-0.003956080682016909
1772895891941894700,4.398894775390625,-0.006021744507551193,-0.004662146592140198,-0.004481218800973147
1772895891951862800,4.40886279296875,0.008190905240178108,-0.0021571415012702345,-0.0008306056052446365
1772895891961831000,4.418830810546875,-0.001983867293596268,0.0019071487955749033,0.0008573109490796923
1772895891971799300,4.42879931640625,0.0004126724541187286,0.0036793095672503114,-0.010775003449246286
1772895891981768400,4.4387685546875,-0.006623802053928375,0.01005578579660505,0.0007720986173488199
1772895891991736300,4.448736328125,0.0008528174370527267,0.001678418073616922,-0.0028000425146892664
1772895892001704400,4.458704345703125,-0.00976677625477314,-0.0036003260469064115,-0.003154682904947549
1772895892011672300,4.46867236328125,-0.003324760508537292,0.000006722001731395721,0.0029200521651655434
1772895892021641500,4.478641357421875,-0.017542086431384087,0.00773220168724656,0.008967314706463366
1772895892031609300,4.488609375,0.007442717221379279,0.0005106164032593369,0.004273567399661987
1772895892041577200,4.4985771484375,-0.0012339257091283798,-0.002567512400448322,0.0030393128969706594
1772895892051545300,4.50854541015625,0.013874211573600768,-0.0003371960651129484,-0.0037016309969127178
1772895892061514500,4.518514404296875,-0.0033346973806619644,0.0026977877166122198,0.0006901376886293292
1772895892071482400,4.528482421875,0.017770049968361852,-0.007160064355097711,-0.004843567573651671
1772895892081450500,4.538450439453125,-0.006618541356921195,0.0008030965438112616,0.0062028732281178235
1772895892091418400,4.54841845703125,0.011188918012380599,0.007925276573933661,0.00441264707678929
1772895892101386200,4.55838623046875,-0.010956278300285338,0.002235905825905502,0.00130386740649119
1772895892111355400,4.56835546875,0.005504442635178566,0.006714950936101377,0.0008466982235200703
1772895892121323300,4.5783232421875,0.007897475251555442,-0.004938369717635214,0.011013177852984517
1772895892131291400,4.58829150390625,0.0062432783037424085,0.004164681931398809,-0.0018120178580284117
1772895892141260300,4.59826025390625,-0.00035363574326038356,0.007142528698407113,0.00039979470623657104
1772895892151228400,4.608228515625,0.007128828966617584,0.000055785307846963404,0.0006834887521341442
1772895892161196500,4.618196533203125,0.006086041915416717,0.006659677084907889,0.0011720577203668653
1772895892171164200,4.6281640625,0.006688683983683586,0.0027375717377290127,0.0065045047895051535
1772895892181132300,4.63813232421875,0.008939677780866623,-0.0007184870002791285,0.0019056326919235289
1772895892191101400,4.648101318359375,-0.0030330840855836865,-0.002785977456718683,-0.002960859099589288
1772895892201069300,4.6580693359375,0.010436638340353965,0.0014662366276606918,-0.005085906695853918
1772895892211037400,4.668037353515625,-0.0022848960667848587,0.004012085185572505,-0.0032203320196829734
1772895892221005300,4.67800537109375,0.004901800566911697,-0.0004465381911024451,-0.009385594917461276
1772895892230974500,4.687974365234375,0.004895955348014831,-0.001794555266574025,0.009180044141691178
1772895892240942600,4.697942626953125,0.013127192598581314,0.0010534180430695414,0.008485504272580146
1772895892250910200,4.70791015625,-0.00497661936879158,0.005821253499388695,0.002696052417252213
1772895892260878300,4.71787841796875,0.0048953708261251444,0.0035046471200883386,-0.000036971009522676466
1772895892270847200,4.72784716796875,-0.0009463409394025802,0.0014118030266836285,-0.0063123249519616365
1772895892280815400,4.7378154296875,0.010274141255021095,0.00379906348939985,0.00019530337639153003
1772895892290783500,4.747783447265625,-0.011724924585223197,0.0032244419392198323,0.0007379771520383655
1772895892300751400,4.75775146484375,0.009526537758111953,-0.0036535906041041013,0.0006994900388643145
1772895892310720500,4.767720458984375,-0.008283844220638275,0.004579107951186597,0.003878101808670908
1772895892320688400,4.7776884765625,0.010871522626280784,0.002731178529560566,0.005503894645906985
1772895892330656300,4.78765625,-0.002145195335149765,0.0009144479637965559,-0.0035785891391336916
1772895892340624400,4.797624267578125,0.00041150341033935545,-0.0021432225737720726,-0.00016189429713413118
1772895892350593300,4.80759326171875,-0.01814414397776127,0.0009530994737520813,-0.0027787987972609698
1772895892360561400,4.8175615234375,0.011485270610451698,0.000029810616374015806,0.0014190182187594472
1772895892370529500,4.827529541015625,-0.006023498073220252,-0.00005271656792610883,-0.003371960651129484
1772895892380498400,4.83749853515625,0.006091887134313583,0.00491140864547342,-0.0015713409699499607
1772895892390466600,4.847466552734375,0.0014519523739814758,0.0014657617036253213,-0.0020607501883991063
1772895892400434200,4.85743408203125,0.01671615700125694,0.0020722762294113637,-0.0011168569344095886
1772895892410402300,4.86740234375,-0.009620061260461806,-0.0035373072806745764,-0.0068446234640665345
1772895892420370400,4.877370361328125,0.010576923593878745,-0.002030702110007405,-0.002777300959918648
1772895892430339300,4.88733935546875,0.002347439908981323,0.008373385667614638,-0.003311754896491766
1772895892440307500,4.897307373046875,0.009382160851359367,0.010035108334757388,-0.001488996448740363
1772895892450275300,4.907275390625,-0.0009410802423954009,0.007280366266518831,-0.00719860626719892
1772895892460243500,4.917243408203125,0.005344868159294128,0.004997917885147035,-0.0004674713812768459
1772895892470212400,4.92721240234375,0.004599018228054046,-0.005656016467697918,-0.005821417896170169
1772895892480180200,4.93718017578125,0.006546645164489746,0.0043509252185001965,-0.0032298852993175387
1772895892490148400,4.9471484375,0.00011047463715076445,-0.0010169219575822354,-0.0007097374382428824
1772895892500116200,4.9571162109375,-0.004672667986154556,0.0009031593848019837,-0.007606383350491523
1772895892510085400,4.96708544921875,0.003859598037600517,0.0001816401772201061,-0.0017862806285731494
1772895892520053500,4.977053466796875,0.0005664017111063003,0.004360825558006763,-0.0028842684657312927
1772895892530021400,4.987021484375,0.005350713378190994,0.004237820232845842,-0.0037408487624488768
1772895892539989500,4.996989501953125,0.002805120548605919,-0.0017372721213847397,-0.005268405389599501
1772895892549958400,5.00695849609375,0.007143442013859748,0.011555047911033034,0.005864380255062133
1772895892559926300,5.01692626953125,-0.004230184915661812,0.015177512724511325,0.004977203890681266
1772895892569894400,5.026894287109375,-0.000040332010388374324,0.00242795779928565,0.00195411147614941
1772895892579862300,5.0368623046875,-0.0052712184011936185,-0.002731215062178671,0.0007087510575540364
1772895892589831400,5.04683154296875,0.014331892213225363,-0.0016863821843639015,0.0046231845549307765
1772895892599798500,5.056798583984375,0.004756839138269424,0.0007602437827736139,0.0069411243747919795
1772895892609766400,5.066766357421875,0.010893734458088875,0.005280059294775128,0.001606266152858734
1772895892619734300,5.076734375,-0.013641571861505507,0.007469020706415176,-0.008223638466000556
1772895892629703200,5.086703125,0.006562427255511283,0.0028868440153077242,-0.0031563999379985034
1772895892639671300,5.09667138671875,-0.0076578212767839425,0.007096607197448611,0.003644475715886801
1772895892649639400,5.106639404296875,0.015082418319582938,0.007247377312369644,-0.0012418715535663068
1772895892659607300,5.116607177734375,-0.011691606837511062,0.00939136707112193,0.007964256877452135
1772895892669576400,5.126576416015625,0.03366495371460915,0.00508625375572592,0.0014150361633859575
1772895892679544600,5.136544677734375,-0.002099018105864525,0.002027231511287391,0.007342599581461399
1772895892689512400,5.146512451171875,-0.020055530557036398,0.00019402473475784061,0.0012214498200453817
1772895892699480300,5.156480224609375,0.0006032265901565551,-0.010502725846506654,0.0057501427582465105
1772895892709449200,5.16644921875,0.017374328649044035,-0.005503127460926771,-0.0038990897977724667
1772895892719417300,5.176417236328125,-0.013442249897122383,-0.0016963921217247842,-0.0023847945109941064
1772895892729385500,5.186385498046875,0.013209025663137435,0.0035524683171883225,0.0007495762582868337
1772895892739353300,5.196353271484375,0.0019908815562725067,0.004405322286859154,0.006229998697061092
1772895892749322500,5.206322509765625,0.0076864628493785855,0.009413798098638654,0.0019567418246529997
1772895892759290400,5.216290283203125,0.002013093388080597,0.008647124575078487,-0.0030789690539240835
1772895892769258200,5.22625830078125,0.030002924075722692,0.00767886406481266,0.0015687471540644763
1772895892779226400,5.236226318359375,-0.009052490505576133,0.0059106488158926366,0.003256736773625016
1772895892789195300,5.2461953125,0.006223404559493065,0.0008019275000318884,-0.0019429507613182068
1772895892799163400,5.256163330078125,-0.008578443253040312,0.00021981676314026117,-0.0021524287935346365
1772895892809131300,5.26613134765625,-0.001993219643831253,-0.004111490439437329,-0.0024061660925857723
1772895892819099400,5.276099365234375,0.019115034836530684,-0.00006977730058133602,0.0035370515523478387
1772895892829068500,5.286068603515625,-0.00092412910759449,-0.0023379779608920215,-0.00467012896919623
1772895892839036400,5.296036376953125,-0.01063946743607521,0.003930325186252593,-0.009293496187217533
1772895892849004300,5.30600439453125,0.007173837152123451,0.008632548060454428,-0.002166219856869429
1772895892858972400,5.315972412109375,0.013612930288910864,0.008647124575078487,-0.007980276430491358
1772895892868941300,5.32594140625,0.021103578305244446,0.011987119185365736,-0.011110464214999227
1772895892878909400,5.335909423828125,-0.01151391218304634,0.009889891177788376,-0.004025474390108138
1772895892888877300,5.345877197265625,-0.015407412490248679,-0.0002113411957398057,-0.015143720052763819
1772895892898845400,5.355845458984375,-0.022744331249594688,-0.009101042355038225,-0.010400434515811503
1772895892908814300,5.365814453125,0.03188157742917538,-0.0031281054252758622,-0.004352989311423153
1772895892918782500,5.375782470703125,0.014531798699498175,0.002059307149983942,-0.00759259228715673
1772895892928750300,5.385750244140625,-0.0008674304842948913,0.005296498972922563,-0.0026246676814742384
1772895892938718200,5.39571826171875,-0.02090250277519226,0.008231529511511326,0.0010379647456109523
1772895892948687400,5.405687255859375,0.009635258829593658,0.005699271087534726,0.0036322920877486465
1772895892958655200,5.4156552734375,0.00694470457136631,0.0058694400226697325,0.006010547260101884
1772895892968623400,5.425623291015625,0.011737784066796302,0.00782130474280566,-0.0004052928652614355
1772895892978591500,5.435591552734375,-0.007107786178588866,0.0028069837121292946,0.00832357344282791
1772895892988560400,5.445560302734375,0.001129296290874481,-0.006149499073065817,0.0029943412440828977
1772895892998528500,5.455528564453125,-0.0018628712624311446,-0.011177337172441184,0.0002593633222393691
1772895893008496600,5.46549658203125,-0.0051543140232563015,-0.003663527476228773,-0.004166325899213552
1772895893018464500,5.475464599609375,-0.0030541268736124037,0.0002747618207708001,0.006336600876692682
1772895893028433700,5.48543359375,0.004424246183037757,0.003229227712191641,0.0022872341543436047
1772895893038401500,5.495401611328125,-0.002757774275541305,0.010579919268563389,-0.002606876296456903
1772895893048369400,5.505369384765625,0.02687807005345821,0.0026237360997125505,0.010188618396036327
1772895893058338300,5.51533837890625,0.0020347206979990005,0.0028292320765554903,0.016267700847703962
1772895893068306400,5.525306396484375,-0.001409282276034355,0.007455832431279123,-0.0016217559829354285
1772895893078274600,5.535274658203125,0.0003828618377447128,0.0019553718514740467,0.0030951164711266756
1772895893088242400,5.545242431640625,-0.016235095486044883,0.004650127360783517,0.001977492351736873
1772895893098211600,5.555211669921875,-0.013850830698013305,0.003044226534105837,0.004578797423932701
1772895893108179500,5.565179443359375,-0.015201660785079002,0.0010476093567907809,-0.0043125111705623565
1772895893118147600,5.575147705078125,0.024146014741063117,-0.011256795616820454,-0.007977499951515346
1772895893128115500,5.585115478515625,-0.013565584015846252,-0.00618617782164365,-0.007196560440585017
1772895893138084400,5.59508447265625,-0.0014636428117752074,0.007334142280369996,-0.00021470219660550354
1772895893148052500,5.605052490234375,-0.008675473886728286,0.01192713262643665,-0.015019490884896366
1772895893158020600,5.6150205078125,-0.027872341787815093,0.016254019382223487,-0.004908833095896989
1772895893167988500,5.624988525390625,-0.02179915935397148,0.015143902715854345,-0.01018668216727674
1772895893177957600,5.63495751953125,0.010192308190464973,0.0033055443514138456,-0.011236355616990476
1772895893187925500,5.644925537109375,0.08455342943072318,-0.0012561010083183646,-0.01077914990140125
1772895893197893400,5.654893310546875,0.007939560827612876,-0.009348733505792916,-0.005845383293647319
1772895893207861500,5.664861572265625,-0.010316811352968216,-0.008463292440772057,-0.002430460283625871
1772895893217830400,5.674830322265625,-0.023797055172920224,-0.0030480259263888,-0.005014668090548366
1772895893227798500,5.684798583984375,0.017797522497177122,0.011907003153860568,-0.007433492735307664
1772895893237766400,5.694766357421875,0.019595511829853057,0.007584208051301539,0.0036789625073783095
1772895893247734500,5.704734619140625,0.025874445968866348,-0.001541384223103523,0.00470185754802078
1772895893257703400,5.714703369140625,-0.01348199738562107,-0.004129099161364138,0.005328154486510903
1772895893267671600,5.724671630859375,-0.004211480215191841,0.006007423721253871,0.007183006839267909
1772895893277639400,5.734639404296875,0.012100187638401984,0.017122655442915857,0.007522540991939604
1772895893287607600,5.744607666015625,0.03245440888106823,0.006300780644640326,0.008916698764078319
1772895893297576400,5.754576416015625,0.001485270121693611,0.004793627484701574,0.004925473703444004
1772895893307544600,5.764544677734375,0.00926525647342205,-0.012645948420278727,0.021885979120898992
1772895893317512400,5.774512451171875,-0.006593991437554359,-0.017359861732274294,0.01362721454259008
1772895893327480600,5.78448046875,0.002080313405394554,-0.010099953731894493,0.008627287363447249
1772895893337449500,5.794449462890625,0.009572714987397193,0.0017833762854337692,-0.0010097250318154693
1772895893347417600,5.80441748046875,0.00194236623942852,0.009209982622228562,-0.011617043763957917
1772895893357385500,5.814385498046875,-0.014373977789282798,0.011811105031333863,0.005827244848757982
1772895893367353300,5.824353271484375,-0.0004559270739555359,0.006481580571644008,-0.0014259411498904228
1772895893377322500,5.834322509765625,0.026173136654496193,0.008038125831261277,-0.0036016412211582064
1772895893387290400,5.844290283203125,0.01314823538661003,0.01251169104874134,-0.008115995106752961
1772895893397258500,5.854258544921875,0.0005728314518928528,0.011089658888988196,-0.020042616276536137
1772895893407226600,5.8642265625,-0.009305003961920738,0.005045958277955651,-0.021226309635769575
1772895893417195500,5.874195556640625,-0.014393851533532141,-0.011723536345735192,-0.02052634467286989
1772895893427163600,5.88416357421875,0.007159808626770973,-0.020807371837645767,-0.017487945091351865
1772895893437131500,5.894131591796875,0.007915595430135727,-0.006102773854508995,-0.007400704710558056
1772895893447099400,5.904099365234375,-0.014977204379439352,0.0020016221459954976,-0.005423468087147921
1772895893457068500,5.914068603515625,-0.005105798706412315,0.0147891709940508,-0.010126768673583865
1772895893467036400,5.924036376953125,-0.0007628010660409927,0.021131854551658034,-0.0033915604007430373
1772895893477004500,5.934004638671875,0.010014029014110564,0.01782890401612967,-0.001666106581315398
1772895893486972700,5.94397265625,0.009113865303993225,-0.0001634834660217166,0.010826368310302495
1772895893496941600,5.953941650390625,-0.007649053448438644,0.000009681143797934054,0.005057685248367488
1772895893506909700,5.96390966796875,-0.0251531459569931,0.0057580520700663326,0.004002477107010781
1772895893516877300,5.973877197265625,0.009565700724720955,0.0014127528747543692,-0.001145699436403811
1772895893526846500,5.983846435546875,0.006124620360136032,-0.009200045750103891,0.005025043354090303
1772895893536814300,5.993814453125,0.01600128673017025,-0.012655848759785294,0.003082914576679468
1772895893546782500,6.003782470703125,-0.005704933643341064,-0.021230309957452117,0.012956493940483777
1772895893556750600,6.01375048828125,0.010298691174387932,-0.0009196355955675244,0.018544468406960366
1772895893566719500,6.023719482421875,0.012239888370037078,0.011342355008423328,0.0020867431461811066
1772895893576687600,6.0336875,0.020011691415309906,0.014674714301526545,0.0017266959284432232
1772895893586655700,6.04365576171875,0.004901800566911697,0.00985372388586402,0.0071823857847601175
1772895893596623400,6.053623291015625,-0.0016816694766283035,0.00043882980868220324,0.007531418418139219
1772895893606592500,6.063592529296875,-0.00033317747712135315,0.005177548768371344,0.00004190291296690702
1772895893616560400,6.073560302734375,0.011180734705924986,-0.005995185294188559,-0.007154748859163373
1772895893626528500,6.083528564453125,0.004448796102404594,0.003032755292020738,-0.009414199957437813
1772895893636496600,6.09349658203125,0.0047428106129169464,0.007915595430135727,-0.013351174080185591
1772895893646465500,6.103465576171875,-0.01395604463815689,0.0070670523094013326,-0.008356215337105096
1772895893656433700,6.11343359375,0.00983516531586647,0.002021532422862947,-0.008036317466665058
1772895893666401300,6.1234013671875,0.007735562688112259,0.006777239049971104,-0.0042947928507812315
1772895893676369400,6.133369384765625,0.016557751569151877,0.013344379013217986,-0.0058329074045643204
1772895893686338300,6.14333837890625,0.00009469254612922667,0.026478220548294483,-0.013155541910231112
1772895893696306400,6.153306396484375,-0.0024479776740074155,0.009960472195968031,-0.014999489276483655
1772895893706274600,6.163274658203125,-0.00722878220975399,0.002882277438044548,-0.004226239392906427
1772895893716242400,6.173242431640625,-0.0006499883413314818,-0.00967584656830877,-0.0009393814756534993
1772895893726211600,6.183211669921875,-0.000048515316843986505,-0.014595328922383487,0.0058658780924044545
1772895893736179700,6.1931796875,-0.007374328160285949,-0.003902560396492481,0.004612864090315997
1772895893746147300,6.203147216796875,-0.004386836782097816,0.006042202773690223,0.003629332945682108
1772895893756115500,6.213115478515625,0.011622633254528045,0.007979454446583985,0.0011751447265967727
1772895893766084400,6.22308447265625,0.017463760498166083,0.007307802262715995,0.011719481225125492
1772895893776052500,6.233052490234375,0.010732990938425063,0.012124847155623137,0.017249350562505424
1772895893786020600,6.2430205078125,0.002354454171657562,0.008426431029103695,0.013000168685428798
1772895893795988500,6.252988525390625,-0.00782441001534462,0.002302577853947878,0.01879906422253698
1772895893805957600,6.26295751953125,0.014165887996554374,0.0033525618309155104,0.015939363942481577
1772895893815925500,6.272925537109375,0.0018956044882535933,-0.008810973367281257,-0.0008285963112488389
1772895893825893400,6.282893310546875,0.006839490631222724,-0.013112214225158094,0.0034014059413224455
1772895893835862300,6.2928623046875,-0.006022329029440879,-0.02132445451430976,0.009606617256999015
1772895893845830400,6.302830322265625,0.00760346074104309,-0.011612075327895582,-0.0015512297636829317
1772895893855798500,6.312798583984375,0.0035649990051984785,0.00787551914807409,0.0028460736135020853
1772895893865766400,6.322766357421875,0.009250643426179886,0.018731515411660075,-0.011179529129527509
1772895893875735600,6.332735595703125,0.0032668928414583205,0.020657478505559265,-0.010113616931065916
1772895893885703700,6.34270361328125,0.006562427255511283,0.004882694007642567,-0.004392389740049839
1772895893895671600,6.352671630859375,0.004165887507796288,0.008584398069791496,-0.0019300547471269964
1772895893905639400,6.362639404296875,0.020326748713850974,0.010289192693680524,-0.010233571782615036
1772895893915608300,6.3726083984375,0.0013210194706916808,0.00796692375857383,-0.015274013635236769
1772895893925576400,6.382576416015625,-0.0022796353697776793,0.0049110798519104715,-0.0067375646267086265
1772895893935544600,6.392544677734375,-0.005285831448435783,0.006503134816326201,-0.004761478780768811
1772895893945512400,6.402512451171875,0.0015986673682928084,-0.01079495025873184,-0.014115619114041328
1772895893955481600,6.412481689453125,0.00040390462577342983,-0.0050668549355119465,-0.005665131355915219
1772895893965449500,6.422449462890625,0.004891279172897339,-0.00044580753874033684,-0.0008041559897363186
1772895893975417600,6.43241748046875,0.005488660544157028,0.006275536605529487,-0.002657145178969949
1772895893985385500,6.442385498046875,0.008628127613663673,0.005508972679823637,0.003958345704339445
1772895893995354400,6.452354248046875,0.0014478607207536697,0.006475443091802298,0.005569123635534197
1772895894005322500,6.462322509765625,0.005635375538468361,-0.012624686436541377,0.005117891003005207
1772895894015290600,6.47229052734375,0.003545125260949135,-0.00857584943715483,0.013454104731697588
1772895894025258500,6.482258544921875,-0.0030459435671567913,-0.009362798563763498,-0.005917480415478348
1772895894035227600,6.4922275390625,0.0006949965268373489,0.0013262071024626493,0.006130100252851843
1772895894045195500,6.502195556640625,-0.004984218153357506,-0.0007839169193059205,0.009595219080150126
1772895894055163400,6.512163330078125,0.010284662649035454,0.0016472557503730057,0.008139741308521478
1772895894065132500,6.522132568359375,0.001000116953253746,0.007145560905709863,0.007744878505729138
1772895894075100400,6.532100341796875,0.008926233777403831,0.003651142918691039,-0.006349222896248102
1772895894085068500,6.542068603515625,-0.003791793498396873,0.005669350873306393,-0.0032014446561224757
1772895894095036400,6.552036376953125,0.0050362406015396115,0.011206417136453092,-0.007427684049028903
1772895894105005600,6.562005615234375,-0.004535889863967895,0.005610716021247208,-0.0013589951272122561
1772895894114973400,6.571973388671875,0.007590601259469985,0.0017966741584241389,-0.0003587320434860885
1772895894124941600,6.581941650390625,-0.008266308563947677,-0.014580898538231848,-0.007931578450556843
1772895894134909400,6.591909423828125,-0.0006266074657440185,-0.012361943847127257,-0.0063958750495687125
1772895894144878300,6.60187841796875,0.0052110126465559,-0.00842767313811928,-0.008870137942302972
1772895894154846500,6.611846435546875,0.0028121348112821578,-0.00492119938712567,-0.013429627877566963
1772895894164814600,6.621814697265625,-0.006759995654225349,0.010339826902374625,-0.009231427269056439
1772895894174782500,6.631782470703125,0.017033552387356758,0.005855886421352625,-0.005457735682930797
1772895894184751600,6.641751708984375,-0.010944587862491606,0.013160729542002082,-0.0029593429959379135
1772895894194719500,6.651719482421875,0.0074514850497245785,0.010671871868334709,0.01061630575619638
1772895894204687600,6.6616875,-0.0007826748102903366,0.01750759963989258,0.010327515410073101
1772895894214655500,6.671655517578125,0.002952420064806938,0.004176993423700332,0.005226283280923962
1772895894224624400,6.681624267578125,0.009839256969094276,-0.0009511632449924945,0.0033479587210342287
1772895894234592500,6.691592529296875,-0.003328267639875412,-0.008371595569327473,0.00778121019443497
1772895894244560400,6.701560302734375,-0.0012315876215696334,-0.015705043729953468,0.0022996735108084974
1772895894254528500,6.711528564453125,-0.012891045755147934,-0.007655117863044143,0.005911489066109061
1772895894264497400,6.721497314453125,0.005523731857538223,0.001730732782743871,0.0023813239122740925
1772895894274465500,6.731465576171875,-0.003006196078658104,0.0047859556348994374,0.005540902188047766
1772895894284433700,6.74143359375,0.011509820529818535,0.00991294325981289,0.004524601284973323
1772895894294401300,6.7514013671875,-0.003592471534013748,0.007373670573160052,0.016212956719473003
1772895894304370400,6.761370361328125,0.009132570004463195,-0.0003791355106979608,0.009376827089115978
1772895894314338600,6.771338623046875,-0.009564531680941582,-0.002354454171657562,-0.0027385215857997536
1772895894324306400,6.781306396484375,0.006903788039088248,-0.004783507949486374,-0.0016742168225347995
1772895894334275600,6.791275634765625,-0.004760930791497231,-0.0017595204858109354,0.008882120641041547
1772895894344243500,6.801243408203125,-0.0017687632381916045,0.002779145857132971,-0.00019197890814393758
1772895894354211600,6.811211669921875,0.00017535656690597534,-0.0011927534485235809,-0.0038913631490431724
1772895894364179700,6.8211796875,0.00825403360426426,-0.006322663682885468,-0.0029544293588027355
1772895894374148600,6.831148681640625,-0.0016185411125421523,0.0022822291856631634,-0.008029540666006505
1772895894384116500,6.841116455078125,0.003911035963892936,0.014023629981651901,-0.0018816307618282734
1772895894394084400,6.85108447265625,-0.013891747230291365,0.006217851601541042,-0.007472546104062348
1772895894404052500,6.861052490234375,0.001963409027457237,0.0006784837834537029,-0.012723287972807883
1772895894414021400,6.871021484375,-0.003572597789764404,-0.004092091619223356,-0.01057796477349475
1772895894423989500,6.880989501953125,-0.0013332944303750991,-0.004390599641762674,-0.011159381390642374
1772895894433957600,6.89095751953125,-0.007917348995804787,-0.003215710643492639,-0.0036947628647089003
1772895894443925500,6.900925537109375,-0.006421557480096817,-0.00008124854266643523,-0.0055305086581967765
1772895894453894700,6.910894775390625,-0.0005786766707897186,0.004620280211791396,-0.00885574409076944
1772895894463862500,6.920862548828125,-0.0008814590096473693,0.004737549915909767,-0.0014687756446190177
1772895894473830400,6.930830322265625,0.010043255108594894,-0.0003930544381961226,-0.001193922492302954
1772895894483798500,6.940798583984375,-0.004317863199114799,0.0179148287339136,0.00763957323404029
1772895894493767400,6.950767333984375,-0.003869534909725189,0.00812218738552183,0.009084438280109316
1772895894503735600,6.960735595703125,-0.006719663643836975,0.015014613780379294,0.009215626911725849
1772895894513703700,6.97070361328125,0.006298807883262634,0.00863897780124098,-0.001631546724587679
1772895894523672600,6.980672607421875,0.000016366612911224363,-0.008103738413378596,0.008046838860679417
1772895894533640400,6.990640380859375,0.0007727379381656646,-0.007183226034976542,0.013984320884570479
1772895894543608300,7.0006083984375,-0.007457330268621444,-0.009989442562125623,0.007749116289429366
1772895894553576400,7.010576416015625,0.009303250396251678,-0.007902370622381567,0.0013405278887599706
1772895894563545300,7.02054541015625,0.002869417956471443,0.004245309419557452,0.01599880251213908
1772895894573513500,7.030513427734375,0.017242226701974867,0.012638020842149853,-0.0023330643237568435
1772895894583481600,7.040481689453125,-0.005499766460061073,0.01158270310293883,0.006582264467142522
1772895894593449500,7.050449462890625,0.021283026525378227,0.006110628367401659,-0.0034260471922345458
1772895894603418600,7.060418701171875,0.0027291327029466627,0.014287139756046235,0.0007253003335557877
1772895894613386500,7.070386474609375,0.005115735578536987,0.007423829857818782,-0.0036358174853958185
1772895894623354400,7.080354248046875,-0.0037140520870685575,0.00677917527873069,-0.010422335820365697
1772895894633322500,7.090322509765625,-0.008052958074212075,0.0019129574818536638,-0.0062629145859740675
1772895894643291400,7.10029150390625,-0.0071522098422050475,0.0007549100205302238,-0.00436471628183499
1772895894653259500,7.110259521484375,0.006313420930504798,-0.0019532529596239328,-0.00236092044506222
1772895894663227600,7.1202275390625,-0.010443652603030203,0.00193392720464617,-0.006178031047806143
1772895894673195500,7.130195556640625,-0.006556582036614417,-0.002800590503960848,-0.0008294182951562106
1772895894683164700,7.14016455078125,-0.005057867911458016,0.013353073776327072,-0.007784680793154984
1772895894693132300,7.15013232421875,-0.0020639467924833295,0.0036019700147211548,-0.005087696794141084
1772895894703100400,7.160100341796875,0.002121229937672615,0.0052069575259462,-0.0036130393980070945
1772895894713068500,7.170068603515625,0.004211480215191841,0.004858692077547312,0.004599730614107102
1772895894723037400,7.180037353515625,0.010352467188239097,0.014251556986011564,0.003700407154206186
1772895894733005600,7.190005615234375,-0.006857610809803009,-0.004266388740204274,0.0011447313220240174
1772895894742973400,7.199973388671875,-0.002069207489490509,-0.01749251166861504,0.005717592195514589
1772895894752942600,7.209942626953125,0.0037689971446990965,-0.0030296134868636727,0.008265468313731253
1772895894762910700,7.21991064453125,-0.007900397861003876,0.006256466578878462,0.007757208264339715
1772895894772878300,7.22987841796875,-0.0031090719312429427,0.001904883773252368,0.004093498125020414
1772895894782846500,7.239846435546875,0.001978022074699402,0.0060651817904785275,0.005242083638254553
1772895894792815400,7.2498154296875,-0.011939444118738174,-0.0047922392452135676,0.00782623664624989
1772895894802783500,7.259783447265625,-0.00011865794360637664,-0.002951799010299146,-0.0005074197991751134
1772895894812751600,7.269751708984375,-0.008203180199861526,0.006103760235197842,0.005586549694370478
1772895894822719500,7.279719482421875,0.0015261866539716719,0.005227927248738706,0.00431908704182133
1772895894832688600,7.289688720703125,-0.002804536026716232,-0.002763765624910593,-0.003892623524367809
1772895894842656500,7.299656494140625,0.002583586752414703,-0.009773790517449378,-0.002175553940795362
1772895894852624400,7.309624267578125,-0.0002519289344549179,-0.009619951662607491,-0.0034720600247383116
1772895894862592500,7.319592529296875,0.003799392282962799,-0.0010802329847589135,0.001639346438553184
1772895894872561400,7.3295615234375,-0.006525602376461028,0.007400558580085635,-0.003949943202175199
1772895894882529500,7.339529541015625,0.003492518290877342,0.001519976108893752,-0.0010831921268254518
1772895894892497700,7.34949755859375,0.0006552490383386611,0.009537351413071155,-0.0066500872726552186
1772895894902465500,7.359465576171875,0.01262450377345085,0.01618614177778363,-0.006479005022067576
1772895894912434700,7.3694345703125,0.0032020109117031096,0.0038452772513031955,-0.0004149557427503168
1772895894922402300,7.37940234375,0.01127250464260578,-0.0013377148771658539,-0.0006260412101633847
1772895894932370400,7.389370361328125,-0.0038490766435861586,-0.0006407455889508128,-0.008245411906391381
1772895894942339300,7.39933935546875,0.004537058907747268,-0.009411788804642855,-0.0024798706496134398
1772895894952307500,7.409307373046875,0.0019996493846178055,0.006187310332804918,-0.005411704584117979
1772895894962275600,7.419275634765625,-0.0029348844081163407,0.0008943550238385797,0.0024167788181453944
1772895894972242700,7.42924267578125,0.005891980648040771,-0.003072429715283215,0.00485233540199697
1772895894982211600,7.439211669921875,0.0018517653465270996,0.003537489943765104,0.0020480551036074755
1772895894992179700,7.4491796875,-0.003987608331441879,0.008048318431712687,-0.0025362039467319844
1772895895002147600,7.459147705078125,0.010075988334417342,0.00899630333893001,0.0058384603625163435
1772895895012115700,7.46911572265625,0.012027122402191162,0.01139806725103408,0.007494356077071279
1772895895022084600,7.479084716796875,-0.004287468060851097,0.002703779065981507,0.0040814240947365755
1772895895032052500,7.489052490234375,-0.004434767577052116,0.004935848966985941,0.010432272692490368
1772895895042020600,7.4990205078125,-0.0006914893954992294,-0.002168101286701858,0.010126750407274811
1772895895051988500,7.508988525390625,0.0011000701963901518,-0.0030738179547712204,0.001797039484605193
1772895895061957600,7.51895751953125,-0.004281038320064544,-0.0006389920232817531,0.008424458267726004
1772895895071925800,7.52892578125,0.001858195087313652,0.0006557970276102423,-0.002288731991685927
1772895895081893600,7.5388935546875,0.003206687086820602,0.008557035138830542,-0.0004716360997408628
1772895895091861800,7.54886181640625,0.012492401826381682,0.004196246113441884,-0.0029768421200104056
1772895895101830700,7.55883056640625,0.007856558719277382,0.005929791907779872,-0.005798511944618076
1772895895111798500,7.568798583984375,0.007106617134809493,0.005750599415972829,-0.004997442961111665
1772895895121766700,7.5787666015625,-0.005309796845912933,0.006585990794189274,0.0008778240141458809
1772895895131735600,7.588735595703125,0.009511924710869788,0.007783676146157085,0.002267926665674895
1772895895141703700,7.59870361328125,-0.022207155632972715,-0.0035630627764388916,0.00029653526116162537
1772895895151671600,7.608671630859375,0.01595160236954689,-0.007019852166809141,-0.0029740473747253415
1772895895161639700,7.6186396484375,-0.004694879817962646,-0.00879782162476331,0.001205594663787633
1772895895171608600,7.628608642578125,0.0029302082329988478,0.004657872275821864,0.005655979935079812
1772895895181576700,7.63857666015625,0.0053261634588241576,0.00434628557600081,-0.00043815395524725314
1772895895191544600,7.648544677734375,-0.0005061959564685822,0.01256448068190366,-0.0037754999507218596
1772895895201512400,7.658512451171875,0.00039279870986938477,-0.0004314502198249101,0.0011900865674018858
1772895895211481600,7.668481689453125,0.023131284740567207,0.00853197376281023,-0.0028839944710955024
1772895895221449700,7.67844970703125,-0.004105097231268883,0.0054649508750066154,-0.0012207922329194843
1772895895231417600,7.68841748046875,0.01355564714372158,0.01018803387414664,0.0016609737484715877
1772895895241385700,7.6983857421875,-0.009037877458333968,0.009383147232048214,0.005666446530167013
1772895895251354600,7.708354736328125,0.0198462717205286,-0.006983283016085624,0.006038823506515472
1772895895261322800,7.71832275390625,-0.011121113473176956,-0.005560520203970372,0.006180789260473102
1772895895271290600,7.72829052734375,0.012222937235236167,-0.014905600447952746,0.009158142837136984
1772895895281259500,7.738259521484375,-0.011718494844436645,-0.005135170931369066,0.0081979377691634
1772895895291227600,7.7482275390625,0.005340776506066322,0.006864698137715459,-0.000138750883564353
1772895895301195500,7.758195556640625,0.021795652222633362,0.015045045451261103,-0.0004688048218376934
1772895895311163600,7.76816357421875,-0.0009486790269613265,0.0107940004106611,0.0046039866641163826
1772895895321132500,7.778132568359375,-0.005884966385364532,0.0021098317608237264,-0.0017864998242817817
1772895895331100700,7.7881005859375,0.006680500677227973,-0.0033784999897703526,0.0015951419706456361
1772895895341068500,7.798068603515625,-0.009330722925066948,-0.006761603089421987,0.0046557716502808036
1772895895351036700,7.80803662109375,-0.0001999064862728119,-0.005350274986773729,-0.00852386352159083
1772895895361005600,7.818005615234375,0.012223521757125854,0.0026649083603173494,-0.003844382202159613
1772895895370973700,7.8279736328125,-0.00004676175117492675,0.00010123188477009534,-0.001787668868061155
1772895895380941600,7.837941650390625,0.006538461858034134,-0.006993219888210296,0.007298322048317641
1772895895390910700,7.84791064453125,0.013120178335905074,-0.002762158189713955,-0.002302632652875036
1772895895400878600,7.857878662109375,0.0008504793494939803,0.008628383341990412,-0.0022499343512579796
1772895895410846700,7.8678466796875,0.008776596173644065,0.0099217841533944,-0.00647288580853492
1772895895420814600,7.877814697265625,-0.004087561574578285,0.013237776833586394,-0.00424003045624122
1772895895430783500,7.887783447265625,-0.016360183170437814,-0.001774827652797103,0.0013456789879128337
1772895895440751600,7.897751708984375,0.018659692284464836,-0.007136427751183509,0.0073228171687573194
1772895895450719500,7.907719482421875,0.002210077264904976,-0.002042429080419242,0.000005078033916652202
1772895895460687600,7.9176875,-0.004519523251056671,0.003802972479537129,-0.0030493045680224894
1772895895470656500,7.927656494140625,-0.005264788660407066,0.0019558102428913113,0.005522891607321798
1772895895480624600,7.937624755859375,0.007008417457342147,0.0029899025309830904,0.011291465071402489
1772895895490592800,7.9475927734375,-0.012290157252550124,-0.003476809265092015,0.010509064255747944
1772895895500560600,7.957560546875,0.007310030752420425,0.004002513639628887,0.005772811247780919
1772895895510529500,7.967529541015625,-0.0012216507494449615,0.005207030591182411,0.002110233619622886
1772895895520497700,7.97749755859375,0.004758008182048797,0.003078238401561975,-0.0027105923992581664
1772895895530465500,7.987465576171875,-0.0028799393504858016,0.001330006494745612,0.0016188516397960483
1772895895540433700,7.99743359375,0.010886135673522949,0.000763714381493628,-0.0005919014785438775
1772895895550402600,8.007402587890626,-0.004518354207277297,-0.011179894455708562,0.0065421699187718325
1772895895560370700,8.01737060546875,0.007458499312400817,-0.007072386071644723,-0.0019033676696009934
1772895895570338800,8.0273388671875,-0.009149521139264106,-0.0031317952197045086,0.002970540243387222
1772895895580307700,8.0373076171875,0.011350830575823784,-0.0013129822947084903,0.0031528380077332258
1772895895590275600,8.047275634765626,0.0013245266020298003,0.006674217066913843,-0.001735829082969576
1772895895600243500,8.057243408203124,0.010904840373992919,0.003436586852557957,-0.005034578367415815
1772895895610211600,8.067211669921875,-0.007498246800899505,0.007263816990517079,-0.002645728735812008
1772895895620180500,8.077180419921875,0.0004196867167949676,-0.002644377028942108,-0.00018436185726895926
1772895895630148600,8.087148681640626,-0.006166705936193466,0.0020430866675451398,-0.0001940064684487879
1772895895640116700,8.09711669921875,0.015532500174641608,0.0034516382912173865,-0.00010280278734862804
1772895895650084600,8.107084716796875,-0.0016799159109592437,-0.0022953078629449008,-0.0013031002215109764
1772895895660053800,8.1170537109375,-0.0027291327029466627,-0.004142323969118297,-0.0013896825264208019
1772895895670021600,8.127021728515626,-0.011112345644831656,-0.008984320640191435,0.007153853810019791
1772895895679989500,8.136989501953124,0.01537117213308811,0.0037559550000354647,-0.0027815570099279283
1772895895689958700,8.146958740234375,-0.0028770167410373687,0.006599325199797749,0.00430551517419517
1772895895699926500,8.156926513671875,0.002815641942620277,-0.0018211144799366592,0.0045772813202813265
1772895895709894700,8.166894775390626,-0.00795242030918598,0.009450294184125959,-0.003904861951433122
1772895895719862800,8.17686279296875,0.005221534040570259,0.0048036008894443505,0.001769731352571398
1772895895729831700,8.186831787109375,0.014055997881293296,-0.0009717311089858412,0.0006560162233188748
1772895895739799800,8.1967998046875,0.004185176730155945,-0.0008706818873062729,0.0022568390160799027
1772895895749767400,8.206767333984375,0.0055360068172216415,-0.005584376003593206,0.004686477315798402
1772895895759735600,8.216735595703126,-0.01960018800497055,-0.009331928501464425,0.012555219663213938
1772895895769704700,8.22670458984375,0.013922142368555069,-0.006860825680196285,0.0010483948080800473
1772895895779672600,8.236672607421875,0.006141571494936942,-0.0015046324092894791,0.005232859152182937
1772895895789640700,8.246640625,-0.001633154159784317,0.001259863867983222,-0.0038395416302606463
1772895895799608800,8.25660888671875,-0.00417056368291378,-0.0012844868525862692,0.007836593643482773
1772895895809577700,8.26657763671875,-0.01225333237349987,0.008164272961579263,0.004337810008600354
1772895895819545600,8.276545654296875,0.0006155015498399734,0.007061828145012259,0.003076959759928286
1772895895829513500,8.286513427734375,0.032193127596378324,0.0068226856268942355,-0.0018389058649539945
1772895895839482600,8.296482666015624,-0.015688567519187926,0.012739800716191529,-0.004264890902861952
1772895895849450500,8.306450439453124,0.006608019962906837,-0.0013236863518133759,0.0002497735099866986
1772895895859418600,8.316418701171875,-0.00027530981004238127,-0.017877565463446078,0.004225253012217581
1772895895869386800,8.32638671875,0.004368716603517532,-0.013658705659396945,0.007233951575215906
1772895895879355600,8.336355712890626,-0.0008639233529567718,-0.0034506519105285405,-0.0074283416361548005
1772895895889323800,8.34632373046875,0.012309446474909782,0.005359408141300082,-0.006682692634314299
1772895895899291400,8.35629150390625,-0.024048984107375142,0.014255210247822106,-0.0024942462348379194
1772895895909259500,8.366259521484375,0.008276829957962036,0.0002227393725886941,-0.007145049449056386
1772895895919228700,8.376228759765626,0.007529810982942581,-0.003964665847271681,0.0027668891637586054
1772895895929196500,8.386196533203124,-0.003245265531539917,-0.006571268149092793,0.002346709256619215
1772895895939164700,8.39616455078125,-0.007431026783585548,-0.005637896289117634,-0.004543105056043714
1772895895949132800,8.4061328125,0.006035188511013984,-0.0021774171043187377,-0.00021848332257941365
1772895895959101700,8.416101806640626,-0.011623217776417732,-0.0009417743621394038,-0.003955587491672486
1772895895969069800,8.42606982421875,0.018756722918152807,-0.005885441309399902,-0.003992649832740426
1772895895979037700,8.43603759765625,0.007242810735106468,-0.0008918708058074116,0.0009419935578480362
1772895895989006800,8.4460068359375,0.0013970073163509368,0.0028802681440487504,0.008486581984814256
1772895895998974700,8.455974609375,-0.0036900866895914074,-0.001209814181178808,0.0030596432989463207
1772895896008942800,8.46594287109375,0.004835749593377113,0.0036115415606647727,-0.0052551623155362905
1772895896018911000,8.475910888671875,-0.007431611305475235,-0.014732107044570147,0.010443177678994834
1772895896028880000,8.4858798828125,0.015019874477386473,-0.009544621404074131,0.008320906561706214
1772895896038847700,8.49584765625,-0.009667992055416106,0.003649645081348717,0.008144253086857497
1772895896048815600,8.505815673828126,-0.0075707275152206415,-0.010457279269583522,-0.005302435523364693
1772895896058783700,8.51578369140625,-0.0011374795973300934,-0.002429382571391761,0.0001247954234480858
1772895896068752600,8.525752685546875,-0.00023614684343338012,-0.0014666384864598513,0.008810096584446727
1772895896078720800,8.535720703125,0.003961304846405982,-0.00410129783898592,0.009827931857481598
1772895896088689000,8.54568896484375,-0.000827098473906517,-0.005376651537045836,0.008425864773523061
1772895896098657800,8.55565771484375,0.007848959934711457,0.006173720198869705,0.007019541639555245
1772895896108626000,8.5656259765625,-0.0039747488498687745,0.00571300735194236,0.011575433111935853
1772895896118593800,8.57559375,0.028653847554326057,0.007356975166685879,0.001302333036530763
1772895896128561700,8.585561767578126,-0.0029220249265432354,0.005070289001613855,-0.005824157842528075
1772895896138530800,8.59553076171875,0.004405541482567787,-0.0038985783411189913,0.0014258132857270537
1772895896148498700,8.605498779296875,0.0026069676280021667,-0.013115209899842738,-0.004273165540862828
1772895896158466800,8.615466796875,0.012483633998036384,-0.0022372940653935074,-0.0014729586293920874
1772895896168435000,8.62543505859375,-0.0012818565040826797,0.0013210560033097862,0.015724332952313125
1772895896178403800,8.63540380859375,0.0033539866030216216,-0.00010031856931746005,-0.003286236862745136
1772895896188372000,8.6453720703125,-0.00547287845313549,-0.0008745178122073411,0.009561408142093568
1772895896198339600,8.655339599609375,0.013989946907758712,0.0025849749919027087,0.0013338789522647856
1772895896208307700,8.6653076171875,-0.0005178863942623138,-0.004832680853456259,0.007288111181557178
1772895896218276900,8.67527685546875,0.005611410140991211,-0.0066641705969348545,0.005456566639151424
1772895896228244700,8.68524462890625,-0.015488661032915114,0.0006100581897422671,-0.000300097191426903
1772895896238212900,8.695212890625,0.0014209727138280869,0.0015545359656214714,0.003236004512850195
1772895896248181800,8.705181640625,-0.0017179098337888716,0.006708046271279454,0.009967157665081322
1772895896258150000,8.71514990234375,0.015935820278525352,-0.0024060747610405086,0.010765157908666879
1772895896268118000,8.725117919921875,-0.007409983995556831,-0.004018514926359057,0.006249324452038854
1772895896278085600,8.735085693359375,0.00021978023052215574,-0.001114537113159895,0.0023788214279338716
1772895896288054800,8.7450546875,-0.002626256850361824,0.010979622643254697,-0.000538545589800924
1772895896298022700,8.755022705078124,0.013232991060614586,-0.0002442570846527815,0.0067555569411255414
1772895896307990800,8.76499072265625,0.0036596915513277053,0.0016400953572243452,0.0030557708414271473
1772895896317959000,8.774958984375,-0.00038110827207565303,0.00028371231220662593,0.010204126492422073
1772895896327927800,8.784927734375,0.006205868902802467,-0.006159801271371543,0.0074424797593615945
1772895896337896000,8.79489599609375,0.008751461732387542,-0.008866028022766113,0.0036027371997013687
1772895896347863600,8.804863525390624,-0.0008276829957962036,-0.00009432721994817257,-0.0029403825671412047
1772895896357833000,8.8148330078125,-0.008915712383389472,0.01020633671581745,-0.0003337619990110397
1772895896367800800,8.82480078125,0.00575520252585411,0.00007218845337629318,-0.007003248091880232
1772895896377768700,8.834768798828126,-0.002330488774180412,-0.002867993184365332,0.0006708119336515664
1772895896387736800,8.84473681640625,0.004706570255756378,0.0034438203109428286,0.006034074266161769
1772895896397705700,8.854705810546875,0.006501052457094192,0.002094634191691875,0.005098346052318811
1772895896407673900,8.864673828125,-0.0038280338555574415,0.004587985377386212,-0.000444620228651911
1772895896417642000,8.87464208984375,0.009784311911463736,0.007822327656112611,0.007446991537697613
1772895896427609600,8.884609619140624,0.008590718212723732,0.003595138415135443,0.005137837812490761
1772895896437578800,8.894578857421875,-0.001880406919121742,-0.00830211052969098,0.01082518100021407
1772895896447546600,8.904546630859375,0.011733692413568496,-0.012016345279850064,0.0031353206173516807
1772895896457514800,8.9145146484375,-0.009958499434590339,-0.008267769868671894,0.006718129273876547
1772895896467483600,8.924483642578124,0.01249298634827137,-0.006962788217328489,0.0011646598652005195
1772895896477451800,8.93445166015625,-0.01549099912047386,-0.004697583231702446,0.002782488591689616
1772895896487420000,8.944419921875,0.00022796353697776794,-0.004659991167671978,0.002276731026638299
1772895896497387800,8.9543876953125,-0.000810147339105606,-0.0003422740990296006,0.007890588853042573
1772895896507357000,8.96435693359375,0.010710194584727287,-0.010323204561136662,0.005945738395582884
1772895896517324800,8.97432470703125,-0.01203589023053646,0.001635382649488747,0.004396371795423328
1772895896527292700,8.984292724609375,0.0024777882903814314,0.00646715018749237,0.0021742570328526197
1772895896537260800,8.9942607421875,-0.0035059622943401335,0.002595386788062751,0.004742883678153157
1772895896547229700,9.004229736328124,0.008761398604512215,-0.0060180912457406515,0.003833568547200411
1772895896557197800,9.01419775390625,-0.007100187394022941,-0.01044336034208536,0.007054759083408862
1772895896567166000,9.024166015625,-0.009192191237211227,-0.004429543412663042,0.001957582074869424
1772895896577134800,9.034134765625,-0.006050386080145836,-0.010612287168204783,0.005322017006669193
1772895896587103000,9.04410302734375,0.009062427377700804,0.007226517187431454,0.00011626505712047218
1772895896597070600,9.054070556640625,0.00561842440366745,0.01132569613456726,-0.008420805005915463
1772895896607038700,9.064038818359375,0.0063601826816797255,-0.004419752671010792,0.0014037841170094906
1772895896617007600,9.074007568359375,-0.0023141221612691877,-0.006770553580857813,0.005905844776611774
1772895896626975700,9.083975830078124,-0.0026081366717815397,0.0016253727121278642,0.005886939146742224
1772895896636944000,9.09394384765625,0.010413257464766502,0.003037212271429598,0.001694419360347092
1772895896646911700,9.103911865234375,-0.005147884282469749,-0.0015860636150464415,-0.00035456732502207156
1772895896656881000,9.113880859375,-0.0030558804392814636,-0.0027187574394047257,0.0012914280500262974
1772895896666849000,9.12384912109375,0.0018815759629011153,-0.0024863369230180977,0.006571158551238476
1772895896676816600,9.133816650390624,0.0017301847934722899,-0.010683452708274125,0.0050543059811927376
1772895896686785800,9.143785888671875,0.0072702832639217375,-0.0007302139706909656,0.003134206372499466
1772895896696753700,9.153753662109375,0.011309914043545722,0.011398286446742713,0.0025213717037811875
1772895896706721800,9.1637216796875,-0.00006838906109333039,0.013321947985701263,-0.0025817601215094325
1772895896716690000,9.17368994140625,0.006963993793725967,0.008716901875659823,0.004177888472843915
1772895896726658800,9.183658935546875,-0.007857143241167068,-0.0023168986402451993,0.010172215250506997
1772895896736627000,9.193626953125,0.0006663549542427063,-0.008296484506502748,0.005706157486047595
1772895896746594800,9.2035947265625,-0.01594809523820877,-0.009279686857573688,0.008623688900563866
1772895896756562700,9.213562744140624,0.020869185027480124,-0.00477240203358233,0.004161284397915005
1772895896766531600,9.223531494140625,-0.01893091044127941,0.00040785014852881427,-0.0016324783063493668
1772895896776499700,9.233499755859375,0.01802373246848583,-0.007035853453539311,0.0015261135887354612
1772895896786467800,9.2434677734375,-0.009359949019551277,-0.010241042703017593,0.012219777163770049
1772895896796436700,9.253436767578124,0.00036649522483348846,-0.006745346074365079,0.0037097595044411715
1772895896806404900,9.26340478515625,-0.0009779051214456557,0.006996325160749256,0.005089066767320036
1772895896816373000,9.273373046875,0.019672668719291686,0.00896342398263514,-0.0010015051927417516
1772895896826340600,9.283340576171875,-0.0175894327044487,0.02220624231752008,0.00725983493514359
1772895896836310000,9.29331005859375,0.021762334474921225,0.0007539236398413777,0.005348320491705089
1772895896846277600,9.303277587890625,0.009943301865458488,-0.015295257352665065,0.006424005165509879
1772895896856245800,9.313245849609375,-0.003232406049966812,-0.012947707845829427,0.004963065767474472
1772895896866214000,9.3232138671875,0.006489946541190147,-0.009279650324955582,0.005520827514398843
1772895896876182800,9.333182861328124,0.009632920742034912,-0.007182824176177382,0.00538525496860966
1772895896886151000,9.34315087890625,-0.0039794250249862665,0.006437522234208882,-0.0006313749724067748
1772895896896118800,9.353118896484375,0.013681903871893882,-0.0008796323787420988,-0.00022677622688934204
1772895896906088000,9.363087890625,-0.00263034850358963,-0.007465294379368424,0.003003784925863147
1772895896916055600,9.3730556640625,-0.005181202030181884,0.00164984956625849,0.0038434140877798197
1772895896926023700,9.383023681640625,0.013215455403923987,0.015874883871525525,-0.006013323739077895
1772895896935991800,9.39299169921875,0.0030406828701496124,0.009843385154940187,-0.006952760013658553
1772895896945960700,9.402960693359375,-0.0018985270977020263,0.0051943172400817274,-0.0043136619480326766
1772895896955928800,9.4129287109375,-0.0038420623809099193,-0.005908822184987366,0.0001930566203780472
1772895896965897000,9.42289697265625,0.0043897593915462494,-0.011208755224011838,0.006614011312276125
1772895896975864600,9.432864501953125,-0.003095627927780151,-0.010228731210716067,0.0027067199417389926
1772895896985833700,9.442833740234375,0.018599486529827118,0.003115866998210549,0.0058129423287697135
1772895896995801600,9.452801513671876,-0.0020481647014617918,0.0021131927616894245,-0.0030903306981548665
1772895897005769700,9.462769775390624,0.017250994530320165,0.0009030497869476676,-0.0024877251625061033
1772895897015738600,9.472738525390625,0.009319617009162902,0.0018587796092033385,0.008795300874114035
1772895897025706800,9.482706787109375,0.018593056789040566,-0.00031045418865978717,0.008761526468675583
1772895897035675000,9.4926748046875,-0.017476035457849502,0.004439918676204979,0.00614979133401066
1772895897045642800,9.502642822265624,0.010802549043297766,-0.0026820786908268927,-0.004492123787477612
1772895897055612000,9.51261181640625,0.008113748350739478,0.004517988881096243,0.0032716786144301293
1772895897065579800,9.522579833984375,0.0027209493964910503,-0.0068991483965888615,-0.0005251015863381326
1772895897075547600,9.532547607421876,0.001076104798913002,-0.008132964507862925,0.005444748337194323
1772895897085515800,9.542515869140624,0.008104396000504494,-0.0037854002902284263,0.0026486878778785466
1772895897095484700,9.552484619140625,-0.007908581167459487,-0.0019995397867634893,0.007379004335403442
1772895897105452800,9.562452880859375,0.003311316505074501,0.008682159355841577,-0.004915646429173648
1772895897115421000,9.5724208984375,-0.009252396991848945,0.01226798195336014,-0.005980663578491658
1772895897125389800,9.582389892578124,0.008407178339362144,0.009831913912855088,-0.0020697920113801954
1772895897135358000,9.59235791015625,-0.010147300004959106,0.0004895736152306199,0.0074334379363805055
1772895897145325600,9.60232568359375,0.01125204637646675,-0.005505465548485518,0.004468925574980676
1772895897155293700,9.612293701171875,0.0027156886994838714,-0.006016410745307803,-0.0029654256768524645
1772895897165262600,9.6222626953125,-0.004018587991595268,-0.006230199626460671,0.0023103045026771725
1772895897175230700,9.632230712890625,-0.013298457512259483,0.0003812909351661801,0.0004738463231362402
1772895897185198800,9.64219873046875,-0.0005851064115762711,-0.0041781259348616,0.0030661826375871894
1772895897195167700,9.652167724609376,-0.004023848688602448,-0.008999773937650024,0.0017833945517428218
1772895897205136000,9.662135986328124,0.0007739069819450377,0.001069711590744555,0.0035531441706232723
1772895897215103700,9.672103759765625,-0.0035649990051984785,0.010785122984461486,0.0014596242237836122
1772895897225071600,9.682071533203125,0.004061258089542389,0.01239281390942633,0.0020296243977732955
1772895897235040800,9.692040771484375,0.002709258958697319,0.006200169814378023,-0.0007280220136046409
1772895897245008600,9.702008544921876,-0.0005839373677968978,-0.004533880569972098,0.0035733467084355652
1772895897254976800,9.711976806640624,0.01617430520951748,-0.010064115233533084,0.005646901579480618
1772895897264945000,9.72194482421875,-0.0037350948750972746,-0.00411952761542052,0.012565521861519664
1772895897274913800,9.731913818359375,0.0013519991308450698,-0.0027834567060694097,0.0040088885814882815
1772895897284882000,9.7418818359375,0.003147650375962257,0.001307283206284046,-0.0028102899140678345
1772895897294849500,9.751849609375,0.0009065934509038925,-0.003871142344921827,-0.0007261223174631595
1772895897304819000,9.76181884765625,-0.015706103175878523,-0.004803381693735719,0.0020374423780478534
1772895897314786600,9.77178662109375,0.013476152166724204,-0.0027190862329676746,-0.0056560347340069705
1772895897324754700,9.781754638671876,-0.004924012398719787,-0.0007279124157503247,-0.003828435714356601
1772895897334722800,9.791722900390624,0.005699088424444198,0.0021219971226528285,-0.0014574505330063401
1772895897344691700,9.801691650390625,-0.0064209729582071304,0.00839439192302525,-0.005206062476802617
1772895897354659800,9.811659912109375,0.00030512042641639707,0.0026409429628401994,-0.0017657310308888553
1772895897364627700,9.821627685546876,-0.004936871880292892,-0.0015017097998410462,0.0047310653761960565
1772895897374595600,9.831595703125,0.0013490765213966369,-0.006683605949766934,0.001362538791168481
1772895897384564700,9.841564697265625,-0.012115385207533835,0.0005720642669126391,-0.005085614434909075
1772895897394532600,9.85153271484375,0.006593406915664672,0.0009228504659608006,-0.008516392601188272
1772895897404500700,9.861500732421876,0.0012017770051956176,-0.0026515008894726633,-0.007755290301889181
1772895897414469600,9.8714697265625,0.008083353212475776,-0.002876980208419263,-0.0057811589510180054
1772895897424437800,9.881437744140625,0.0005997194588184357,-0.00393218834977597,0.0019425489025190472
1772895897434406000,9.891406005859375,0.014956746113300322,-0.00023464900609105824,0.004958298260811716
1772895897444373800,9.901373779296875,0.005527238988876342,0.0013003054762259125,-0.003008314970508218
1772895897454343000,9.911343017578124,0.004780220013856888,0.0032094635657966136,0.0026774938472546635
1772895897464310500,9.921310546875,0.0010457096606492995,0.0016554755894467234,-0.0021370850939303634
1772895897474278700,9.931278564453125,0.002085574102401733,-0.009531798455119133,-0.005126969358604401
1772895897484247800,9.941247802734376,-0.0028571429967880245,-0.0011156696243211626,0.006189173496328294
1772895897494215700,9.951215576171874,0.0014870236873626708,-0.008675802680291235,0.0027914208168163895
1772895897504183800,9.961183837890625,0.0002881692916154861,0.0061546136396005745,0.0012652524291537702
1772895897514152000,9.97115185546875,-0.0025549451798200606,0.0071298518799245356,0.004802121318411082
1772895897524120800,9.981120849609376,0.005229717347025871,0.008696918533556162,0.00886405526138842
1772895897534089000,9.9910888671875,0.006567103430628776,0.0011932283725589513,-0.005351864155661314
1772895897544056600,10.001056640625,0.009113280782103538,-0.003193973735719919,0.000946286140475422
1772895897554024700,10.011024658203125,-0.007951251265406608,-0.002032821001857519,0.006541457532718778
1772895897563993600,10.02099365234375,0.0008767828345298766,0.003253339240141213,0.0062295237730257205
1772895897573961700,10.030961669921876,-0.00017009586989879608,-0.004595182303152978,-0.0035527057792060076
1772895897583929900,10.040929931640624,0.014487959557771681,-0.01220580343734473,-0.007489679901953786
1772895897593898800,10.050898681640625,-0.006010054069757461,-0.0038815541410818694,0.004787033347133547
1772895897603867000,10.060866943359375,0.01554068348109722,0.00680051032770425,-0.0018172602887265383
1772895897613834800,10.070834716796876,-0.001972176855802536,-0.007930829531885683,0.005585453715827316
1772895897623802600,10.080802734375,0.005065466696023941,-0.0009920067120343446,0.009972564492560922
1772895897633774800,10.09077490234375,0.0008761983126401901,0.005785415001027285,-0.0002788900066167116
1772895897643742700,10.10074267578125,0.015538345393538475,0.011839162082038819,0.0004820113632827997
1772895897653710800,10.1107109375,-0.013344634741544723,0.0022392302941530943,0.011280980210006236
1772895897663679700,10.1206796875,-0.00303425312936306,-0.0006388458928093314,0.0005229278955608606
1772895897673647600,10.130647705078125,-0.01888999390900135,-0.002414294600114226,0.0006901194223202765
1772895897683615700,10.14061572265625,0.00879120922088623,-0.0038633608972653746,-0.0017000271172262727
1772895897693583600,10.15058349609375,0.004899462479352951,-0.0054132206877693535,0.004920706196781248
1772895897703552800,10.160552734375,0.002807458636164665,0.0018567703152075408,0.00822520936857909
1772895897713520600,10.170520751953125,-0.00019055413603782652,0.004645743446610868,0.003989672424364835
1772895897723488800,10.18048876953125,0.009825812965631484,0.0023044410174712536,0.0064841561212204395
1772895897733458000,10.1904580078125,-0.004990647894144058,-0.003184475255012512,-0.003836819950211793
1772895897743425800,10.20042578125,0.000398059406876564,0.0015000658320263028,-0.00272513238126412
1772895897753393700,10.2103935546875,0.011174304965138434,-0.00006893705036491155,-0.0007955708244815468
1772895897763361800,10.22036181640625,0.00608896452486515,-0.0053065454429015516,0.006307411314826458
1772895897773330700,10.23033056640625,0.002495323947072029,-0.00759096658565104,0.003375084189977497
1772895897783298800,10.240298828125,0.004137830457091331,-0.0036961876368150114,-0.0028585312362760305
1772895897793266700,10.2502666015625,0.0007037643551826477,0.00005333762243390083,0.0010947547004558145
1772895897803234800,10.26023486328125,-0.00034311434924602505,0.002973280189745128,0.0004146269491873681
1772895897813203700,10.27020361328125,0.0016039280652999878,0.008784889077953995,-0.00029832535944879056
1772895897823171800,10.280171875,0.0007049333989620208,0.0031897724846377965,0.00007852686261758207
1772895897833139700,10.2901396484375,0.0047474867880344385,0.0027449878592044116,-0.0019424575709737835
1772895897843108600,10.300108642578126,-0.003936754927039147,0.0038050548387691375,-0.0023925942249596118
1772895897853076700,10.31007666015625,0.0002519289344549179,-0.0010177622077986598,0.0015624270111322402
1772895897863044900,10.320044921875,-0.006335048240423202,0.004840060442313551,-0.003238433931954205
1772895897873012700,10.3300126953125,0.003541618129611015,0.001367196699976921,0.003923694516066461
1772895897882982000,10.33998193359375,-0.005435469052195548,-0.011220299531333147,-0.004291377050988376
1772895897892949800,10.34994970703125,0.005488660544157028,-0.005150697294063866,0.007301920511201023
1772895897902918000,10.35991796875,-0.005884966385364532,0.0038361806293949483,0.003678067458234727
1772895897912886800,10.36988671875,0.010872107148170471,-0.001121734038926661,-0.0009085296796634793
1772895897922854700,10.379854736328125,-0.00020516718327999114,0.006652224430814385,0.003952409153897315
1772895897932822800,10.38982275390625,0.015211597657203674,0.00355845966655761,-0.0023587832869030535
1772895897942790700,10.399790771484374,-0.0009521861582994461,-0.0023921193009242415,0.0032906573095358906
1772895897952759800,10.409759765625,0.011316343784332274,-0.01010094011258334,0.0024296930986456573
1772895897962727700,10.419727783203125,-0.004539981517195701,0.0001222746727988124,0.0006631218175403773
1772895897972696000,10.429696044921876,0.007874678897857666,0.0022147534400224684,0.0023420148151926693
1772895897982665000,10.4396650390625,0.004281622841954231,0.0022731690963730213,0.003261778274923563
1772895897992633000,10.449633056640625,0.007423427999019622,-0.011499993255548178,-0.004386160928662866
1772895898002601200,10.459601318359375,-0.004849193596839905,-0.003453464922122657,-0.000473736725281924
1772895898012569000,10.469569091796876,0.006223989081382751,-0.004739778405614197,0.0004952727036550641
1772895898022538200,10.479538330078125,0.0012929624199867248,0.002304989006742835,0.0008456022449769079
1772895898032506000,10.489506103515625,0.009517769929766655,0.0061455900829285376,-0.008473649438004941
1772895898042474000,10.499473876953125,0.00727320587337017,0.0026613646963611244,-0.006880918620154261
1772895898052442000,10.509442138671876,0.0042740240573883054,-0.0012933642787858843,-0.008336359859164803
1772895898062411000,10.519410888671874,-0.003512392035126686,-0.002749664034321904,-0.0012579093729145824
1772895898072379100,10.529379150390625,0.0026227497190237045,-0.003894596285745501,0.0023417773531749842
1772895898082347300,10.53934716796875,0.004569207611680031,0.003933357393555343,0.0005050817116163671
1772895898092316200,10.549316162109376,0.004725274956226349,0.003473959720879793,0.002736640155967325
1772895898102284300,10.5592841796875,-0.003354571124911308,-0.0026644334362819788,-0.004881159637682139
1772895898112252200,10.569252197265625,0.0018733926564455032,-0.0018576836306601762,0.004829776510316878
1772895898122220000,10.579219970703125,0.008164017233252524,-0.003495806226506829,0.001541219826322049
1772895898132189000,10.58918896484375,0.0018815759629011153,-0.0017884543193504214,0.0003011931699700653
1772895898142157000,10.599156982421874,0.005919453176856041,0.003341163654066622,0.0013262619013898074
1772895898152125200,10.609125244140625,-0.002616319978237152,-0.00033273908570408817,0.006880535027664154
1772895898162094000,10.619093994140625,0.005472293931245803,-0.0001182195521891117,0.0013623195954598486
1772895898172062200,10.629062255859376,-0.009642857614159584,-0.013712152879685163,0.005371025513857603
1772895898182030000,10.639030029296874,0.010258359163999557,-0.009943082669749855,-0.003586772445589304
1772895898191998200,10.648998291015625,0.0008247603863477706,-0.00744494571108371,0.0036700120159424837
1772895898201967400,10.65896728515625,0.00814940418601036,0.0005874444991350174,-0.0004848061085678637
1772895898211935000,10.66893505859375,-0.0017296002715826034,0.0012561010083183646,-0.0031896628867834806
1772895898221903000,10.678903076171874,0.013380290576815605,0.004920286071673035,-0.0033530550212599337
1772895898231872000,10.6888720703125,-0.011909633502364158,0.006764817959815263,0.0005629128460772335
1772895898241840000,10.698840087890625,0.01726911470890045,-0.0005005334006622433,-0.007302285837382078
1772895898251808300,10.708808349609376,0.0011018237620592116,0.0037112756080925464,-0.004886347269453108
1772895898261776100,10.718776123046876,0.007377835291624069,-0.0023067060397937893,-0.0020389402153901752
1772895898271745300,10.728745361328125,0.0042418753534555435,-0.0006205065185204148,-0.00644676498658955
1772895898281713000,10.738712890625,0.002743161228299141,-0.004285385701619088,-0.0011919497309252618
1772895898291681000,10.748680908203125,-0.0006985036581754684,-0.00024542612843215465,-0.006719572312291711
1772895898301650000,10.75864990234375,0.002591185536980629,0.0028749709144234655,-0.0046989166722632945
1772895898311618000,10.7686181640625,-0.005189385336637497,-0.0014157120168209075,0.0007214461423456669
1772895898321586200,10.778586181640625,0.0010942249774932862,0.0012792626881971954,-0.0021491225915960966
1772895898331554000,10.788553955078125,-0.003394318613409996,0.0049565994940698145,-0.002619425250776112
1772895898341523200,10.798523193359374,0.00184825821518898,-0.00020363281331956386,0.0043477468807250255
1772895898351491300,10.8084912109375,-0.009217910200357437,0.0013353037243708967,0.0011429594900459051
1772895898361459000,10.818458984375,-0.0024848025530576703,-0.0024892960650846362,0.001361552410479635
1772895898371427000,10.828427001953125,-0.0030839374899864196,0.005725647637806832,0.004161741055641323
1772895898381396000,10.83839599609375,0.003649754679203033,-0.0008266966151073574,0.000012000965047627687
1772895898391364000,10.848364013671874,-0.0030786767929792402,0.0031207623690366745,0.0030650135938078164
1772895898401332200,10.858332275390625,0.007539163333177566,-0.006459186076745391,0.0040857166773639614
1772895898411301000,10.868301025390625,0.00799041423201561,-0.011574556329101324,0.006826759013812989
1772895898421269200,10.878269287109376,0.004991232416033745,-0.0010092501077800988,0.010784501929953694
1772895898431237000,10.888237060546874,0.009775544083118438,0.005762399451620877,0.004403568721190095
1772895898441205000,10.898205078125,0.002142272725701332,0.0014036197202280164,0.0008852949345484376
1772895898451174100,10.908174072265625,0.01650923625230789,0.00008621697872877121,0.0005297046962194145
1772895898461142000,10.91814208984375,-0.0048860184758901595,0.00565568767413497,0.00261772648403421
1772895898471110100,10.928110107421874,0.011872808623313903,0.004422784878313541,0.005440821080747992
1772895898481079000,10.9380791015625,-0.01806172639131546,0.0027788170635700223,0.0006195201378315687
1772895898491047200,10.948047119140625,-0.005797288101911545,0.001912701753526926,0.005320025978982448
1772895898501015300,10.958015380859376,-0.007288403442502022,0.006577807487733661,-0.002608629862125963
1772895898510983200,10.967983154296874,0.006034603989124298,0.003659801149182021,-0.0026743337757885455
1772895898520952300,10.977952392578125,-0.0005582184046506881,0.008053506063483654,0.0007454115398228168
1772895898530920000,10.987919921875,0.008117840003967284,0.003183123548142612,0.006115103613119572
1772895898540888000,10.99788818359375,-0.011632570126652716,0.006711516869999468,-0.0004807144553400576
1772895898550857000,11.00785693359375,0.0012356792747974395,0.0009640957918018102,0.0020010741567239162
1772895898560825000,11.0178251953125,-0.0013104980766773223,0.004755523964017629,-0.006674929452966898
1772895898570793200,11.027793212890625,0.00407645565867424,-0.0039054464733228084,-0.005020330646354705
1772895898580761000,11.037760986328125,-0.007143442013859748,-0.0025085122222080827,0.000635521424561739
1772895898590730200,11.047730224609374,0.0024397943675518036,-0.00246211579721421,-0.002875391039531678
1772895898600698000,11.057697998046875,-0.00010755202770233153,0.013959880563057959,-0.0005928513266146183
1772895898610666000,11.067666015625,0.005274725532531738,0.0013921850107610225,0.00019404300106689332
1772895898620634000,11.077634033203125,-0.010725976675748825,0.0038270474748685955,0.0034874402569606898
1772895898630603000,11.08760302734375,0.006036357554793357,0.00030289193671196696,0.007209967911429703
1772895898640571100,11.097571044921875,0.0020008184283971785,0.0055159869424998755,-0.0016961546597070991
1772895898650539300,11.107539306640625,0.004546411257982254,0.0047424087541177865,0.0005783844098448753
1772895898660508200,11.117508056640625,0.005441314271092414,0.0033559593643993136,0.00765449680853635
1772895898670476300,11.127476318359374,0.0015483984857797622,0.006611454029008746,0.004601027522049844
1772895898680444200,11.137444091796874,-0.008478490009903908,0.006150923845171928,0.008285068063344806
1772895898690412000,11.147412109375,-0.008179799324274062,-0.003922361075505614,0.004202200930193066
1772895898700381000,11.157380859375,0.004838672202825546,-0.006256831905059516,0.009227536545228213
1772895898710349000,11.16734912109375,-0.007134089663624763,-0.004094064380601049,-0.004353829561639577
1772895898720317200,11.177317138671874,0.005886135429143905,-0.0039515506373718375,-0.0035592268515378233
1772895898730286000,11.1872861328125,-0.002941314148902893,-0.006213211959041655,-0.0034020817947573957
1772895898740254200,11.197254150390625,0.012470774516463279,0.0058168695852160454,0.00528824260123074
1772895898750222000,11.20722216796875,-0.005185878205299377,0.005162789590656757,0.007832575055491179
1772895898760190000,11.21718994140625,-0.005337269374728203,0.0018078166069462895,-0.003032079438585788
1772895898770159000,11.2271591796875,0.0021440262913703916,-0.002547163732163608,0.0011656462458893655
1772895898780127000,11.237126953125,0.007532733592391014,0.0012277151640504597,0.004266480071749538
1772895898790095000,11.24709521484375,-0.003234744137525558,0.004990867089852691,0.002068330706655979
1772895898800064000,11.25706396484375,0.0060427872955799095,0.0004017492013052106,0.0034817411685362457
1772895898810032000,11.2670322265625,0.0006558335602283477,-0.0017429346771910786,0.0005770875019021332
1772895898820000300,11.277000244140625,0.008439327043294906,-0.0022615517238155007,0.00324690949935466
1772895898829968100,11.286968017578126,-0.0009954407781362533,-0.005538198774307966,-0.007101794829219579
1772895898839937300,11.296937255859374,0.013214286360144614,-0.004381831813417375,-0.006110573568474501
1772895898849905000,11.30690478515625,-0.007287818920612334,-0.0018643690997734665,0.006807707253471016
1772895898859873000,11.316873046875,0.0037923780202865597,-0.0017954685820266603,0.010082162346877158
1772895898869842200,11.32684228515625,0.0006587561696767807,0.0019697291703894733,0.007667356290109455
1772895898879810000,11.33681005859375,0.0014086977541446686,0.0006900280907750129,-0.0059451356073841445
1772895898889778200,11.346778076171875,-0.007113631397485732,0.0073679349521175025,-0.00429261916000396
1772895898899746300,11.356746337890625,0.008591887256503105,0.004131291118450463,0.0031953802415169773
1772895898909715200,11.366715087890626,0.0003647416591644287,-0.001733655392192304,0.006695880909450351
1772895898919683300,11.376683349609374,0.009490881922841072,-0.0061550154983997345,-0.001195164601318538
1772895898929651000,11.38665087890625,-0.009212064981460572,0.001280029873177409,-0.008081910174060613
1772895898939620000,11.3966201171875,-0.005026303729414939,-0.003574716681614518,-0.006021269583515823
1772895898949588000,11.406587890625,-0.004274608579277992,0.008214395713619888,0.002128061537258327
1772895898959556000,11.41655615234375,-0.012353870138525963,0.001736578001640737,0.0061577189121395344
1772895898969524500,11.4265244140625,-0.005616086316108704,0.0034247502842918035,0.0001667531353421509
1772895898979493400,11.436493408203125,0.003810498198866844,0.001355469729565084,-0.0028093400659970937
1772895898989461500,11.44646142578125,0.004114449581503868,-0.0005700915055349469,-0.0003001154577359557
1772895898999429400,11.456429443359376,0.001720247921347618,0.0013173296762630342,0.002315985324792564
1772895899009397200,11.466397216796874,0.00008241758644580841,-0.0008811302160844206,0.003804159789625555
1772895899019366100,11.4763662109375,-0.01726619209945202,0.0027429785652086135,0.0009689180973917245
1772895899029334300,11.486334228515625,0.002186111867427826,0.00412080625705421,-0.004106448938138782
1772895899039302400,11.496302490234376,0.006375380250811576,-0.003351173591427505,0.00007960457485169171
1772895899049271300,11.506271240234375,0.01566401759982109,0.005585983438789844,-0.0015988682976923881
1772895899059239400,11.516239501953125,-0.0033387890338897703,0.005119315775111317,0.0064904214652255175
1772895899069207600,11.52620751953125,0.013717559707164763,0.00345773923844099,-0.0009396189376711844
1772895899079175400,11.536175537109376,-0.004392682000994682,0.0001641775857657194,0.005501063368003815
1772895899089144600,11.54614453125,0.00787058724462986,-0.0013217135904356836,0.006248265006113797
1772895899099112200,11.5561123046875,-0.012337503525614737,0.0026169045001268386,-0.0004536072527058422
1772895899109080300,11.566080322265625,-0.002155132207274437,0.0033606355395168065,-0.0021759923322126266
1772895899119049200,11.57604931640625,0.0008399579554796219,-0.0032640432972460983,-0.0009636026014573872
1772895899129017300,11.586017333984374,0.006827215671539306,0.00008979717530310154,0.0009333718599751591
1772895899138985500,11.5959853515625,-0.005444821402430534,-0.0002619388718158007,-0.0018899601987563072
1772895899148953300,11.605953369140625,0.0035299276918172836,0.004613448612205684,-0.0009959157021716236
1772895899158922500,11.615922607421876,-0.010087094250321388,0.004678257476724684,0.003737469495274126
1772895899168890400,11.625890380859374,0.011014145967364311,-0.0009267229234799742,0.005660272517707198
1772895899178858200,11.635858154296875,0.0011392331629991531,0.009495813826285303,0.0009865268193185329
1772895899188827400,11.645827392578125,-0.0032031799554824826,-0.003983151352033019,0.0019271138713695109
1772895899198795300,11.655795166015626,-0.0014069441884756089,-0.009408208608068526,0.006074150548223405
1772895899208763400,11.665763427734374,0.012514029136300087,-0.0001486146904528141,-0.00036141719091683627
1772895899218731500,11.6757314453125,0.004146013763546943,0.002977371842972934,-0.0036510515871457754
1772895899228700400,11.685700439453125,0.0014484452426433562,-0.006624459641054272,-0.00047748131863772865
1772895899238668500,11.69566845703125,-0.010818915656208992,-0.001516067118756473,-0.0005546382080763578
1772895899248636400,11.705636474609374,0.0022001403927803037,-0.00003342734556645155,0.00273201877977699
1772895899258605600,11.71560546875,0.003253448837995529,-0.0034058994533494114,0.006274769420549273
1772895899268573200,11.7255732421875,-0.005269464835524559,0.0038514512637630102,0.005481902009807527
