time,seconds_elapsed,z,y,x
1772895887548401700,0.005401611328125,-1.0044708251953125,-0.0389556884765625,0.028167724609375
1772895887558369500,0.01536962890625,-0.9980621337890625,-0.036590576171875,0.027984619140625
1772895887568338700,0.025338623046875,-0.99346923828125,-0.0397796630859375,0.0283050537109375
1772895887578306600,0.035306640625,-1.00048828125,-0.0419158935546875,0.030181884765625
1772895887588274700,0.045274658203125,-1.003875732421875,-0.042205810546875,0.0309906005859375
1772895887598242800,0.055242919921875,-0.99188232421875,-0.042724609375,0.030426025390625
1772895887608210700,0.065210693359375,-1.0052032470703125,-0.0389404296875,0.029266357421875
1772895887618179600,0.0751796875,-0.9970245361328125,-0.040252685546875,0.0289306640625
1772895887628147700,0.085147705078125,-0.998077392578125,-0.03936767578125,0.030853271484375
1772895887638115600,0.095115478515625,-1.0030059814453125,-0.041473388671875,0.0320587158203125
1772895887648083700,0.105083740234375,-0.995849609375,-0.041168212890625,0.03143310546875
1772895887658051800,0.1150517578125,-0.997711181640625,-0.037689208984375,0.0307769775390625
1772895887668020700,0.125020751953125,-0.9974517822265625,-0.0359344482421875,0.0294189453125
1772895887677988900,0.13498876953125,-1.00042724609375,-0.0367889404296875,0.02886962890625
1772895887687956500,0.14495654296875,-0.995574951171875,-0.0410614013671875,0.0300140380859375
1772895887697924600,0.154924560546875,-1.004241943359375,-0.0427398681640625,0.0308074951171875
1772895887707892700,0.164892822265625,-0.9978790283203125,-0.0440673828125,0.0299072265625
1772895887717861600,0.174861572265625,-0.996551513671875,-0.04327392578125,0.029022216796875
1772895887727829800,0.184829833984375,-1.003814697265625,-0.0404815673828125,0.02825927734375
1772895887737797600,0.194797607421875,-0.99774169921875,-0.0419769287109375,0.027801513671875
1772895887747765800,0.204765869140625,-0.9975433349609375,-0.040496826171875,0.029632568359375
1772895887757733600,0.214733642578125,-0.998779296875,-0.0413360595703125,0.0303192138671875
1772895887767702500,0.22470263671875,-0.9978179931640625,-0.038299560546875,0.030242919921875
1772895887777670700,0.234670654296875,-0.9966583251953125,-0.0365142822265625,0.030303955078125
1772895887787638800,0.244638671875,-0.998992919921875,-0.0372467041015625,0.0294647216796875
1772895887797606700,0.254606689453125,-0.9969329833984375,-0.038421630859375,0.029876708984375
1772895887807575800,0.264575927734375,-0.99505615234375,-0.0417327880859375,0.0295867919921875
1772895887817543700,0.274543701171875,-1.00146484375,-0.0429534912109375,0.0300750732421875
1772895887827511600,0.284511474609375,-0.9991912841796875,-0.04339599609375,0.0309295654296875
1772895887837479700,0.294479736328125,-0.9990081787109375,-0.04150390625,0.02899169921875
1772895887847447600,0.304447509765625,-1.0016021728515625,-0.0396881103515625,0.029388427734375
1772895887857416700,0.314416748046875,-0.9965667724609375,-0.0401763916015625,0.02960205078125
1772895887867384600,0.324384521484375,-0.9991455078125,-0.0408477783203125,0.0303802490234375
1772895887877352700,0.334352783203125,-0.9984130859375,-0.0410308837890625,0.0310516357421875
1772895887887320800,0.34432080078125,-0.9980621337890625,-0.039093017578125,0.029205322265625
1772895887897288400,0.354288330078125,-0.9962005615234375,-0.03814697265625,0.0292816162109375
1772895887907257600,0.364257568359375,-0.999176025390625,-0.0389556884765625,0.0299224853515625
1772895887917225500,0.3742255859375,-0.99896240234375,-0.040740966796875,0.0308685302734375
1772895887927193600,0.384193603515625,-0.9971466064453125,-0.041778564453125,0.0301971435546875
1772895887937161700,0.39416162109375,-1.0003662109375,-0.0409698486328125,0.0301361083984375
1772895887947129600,0.404129638671875,-0.996551513671875,-0.039825439453125,0.0292816162109375
1772895887957098500,0.414098388671875,-0.998931884765625,-0.0385894775390625,0.029144287109375
1772895887967066600,0.424066650390625,-0.9983062744140625,-0.03887939453125,0.0291595458984375
1772895887977034500,0.434034423828125,-0.9977264404296875,-0.03948974609375,0.02978515625
1772895887987002600,0.444002685546875,-0.99859619140625,-0.0408172607421875,0.0299530029296875
1772895887996970500,0.453970458984375,-0.9997711181640625,-0.041900634765625,0.0301513671875
1772895888006939400,0.463939453125,-0.999176025390625,-0.0406951904296875,0.028350830078125
1772895888016907500,0.473907470703125,-0.9988555908203125,-0.041107177734375,0.028839111328125
1772895888026875400,0.48387548828125,-1.00018310546875,-0.0410614013671875,0.0286102294921875
1772895888036843500,0.493843505859375,-0.9971466064453125,-0.04180908203125,0.028961181640625
1772895888046812400,0.5038125,-0.998748779296875,-0.0407562255859375,0.0305938720703125
1772895888056780500,0.513780517578125,-0.9983062744140625,-0.039886474609375,0.0306243896484375
1772895888066748400,0.52374853515625,-0.99755859375,-0.037994384765625,0.0301666259765625
1772895888076716500,0.533716552734375,-0.99810791015625,-0.036895751953125,0.0291595458984375
1772895888086684400,0.543684326171875,-0.9979095458984375,-0.0382537841796875,0.029388427734375
1772895888096653600,0.553653564453125,-0.9972381591796875,-0.0402679443359375,0.0299530029296875
1772895888106621400,0.563621337890625,-0.999114990234375,-0.041778564453125,0.03082275390625
1772895888116589600,0.573589599609375,-0.999847412109375,-0.0422515869140625,0.030426025390625
1772895888126557700,0.5835576171875,-0.999603271484375,-0.0412139892578125,0.029876708984375
1772895888136525300,0.593525390625,-0.9990234375,-0.0413665771484375,0.0294647216796875
1772895888146494500,0.603494384765625,-0.9992523193359375,-0.042205810546875,0.0298614501953125
1772895888156462300,0.61346240234375,-0.9981536865234375,-0.0416259765625,0.0307769775390625
1772895888166430500,0.623430419921875,-0.9975738525390625,-0.0402069091796875,0.03094482421875
1772895888176398600,0.633398681640625,-0.9980316162109375,-0.0394134521484375,0.030548095703125
1772895888186367500,0.643367431640625,-0.9957122802734375,-0.03778076171875,0.02984619140625
1772895888196335600,0.653335693359375,-0.99908447265625,-0.03778076171875,0.030303955078125
1772895888206303500,0.663303466796875,-0.9984130859375,-0.0391387939453125,0.0303802490234375
1772895888216271400,0.673271240234375,-0.9984283447265625,-0.041412353515625,0.0297088623046875
1772895888226239500,0.683239501953125,-0.9980926513671875,-0.0421295166015625,0.030364990234375
1772895888236208400,0.69320849609375,-0.9993438720703125,-0.0418701171875,0.029205322265625
1772895888246176500,0.703176513671875,-0.9990081787109375,-0.0409393310546875,0.0293731689453125
1772895888256144600,0.71314453125,-0.9990386962890625,-0.04052734375,0.0284423828125
1772895888266112500,0.723112548828125,-0.999664306640625,-0.0402374267578125,0.0280303955078125
1772895888276080600,0.73308056640625,-0.9983673095703125,-0.0406646728515625,0.0290985107421875
1772895888286049500,0.743049560546875,-0.9999237060546875,-0.040740966796875,0.0301055908203125
1772895888296017400,0.753017333984375,-0.998138427734375,-0.0400848388671875,0.02935791015625
1772895888305985500,0.762985595703125,-0.9994659423828125,-0.0394287109375,0.0287628173828125
1772895888315953400,0.772953369140625,-0.9989166259765625,-0.039764404296875,0.029510498046875
1772895888325922600,0.782922607421875,-0.999847412109375,-0.041015625,0.03082275390625
1772895888335890400,0.792890380859375,-0.9975433349609375,-0.0403594970703125,0.030303955078125
1772895888345858600,0.802858642578125,-0.9983673095703125,-0.040771484375,0.030670166015625
1772895888355826700,0.81282666015625,-0.9987945556640625,-0.03900146484375,0.0303955078125
1772895888365794300,0.822794189453125,-0.997283935546875,-0.0379638671875,0.0293426513671875
1772895888375763500,0.832763427734375,-0.99932861328125,-0.038726806640625,0.029754638671875
1772895888385731600,0.842731689453125,-0.9975128173828125,-0.040252685546875,0.029632568359375
1772895888395699500,0.852699462890625,-0.9988555908203125,-0.041046142578125,0.03045654296875
1772895888405667600,0.86266748046875,-0.9979248046875,-0.0411529541015625,0.0301971435546875
1772895888415635700,0.8726357421875,-1.000640869140625,-0.0406951904296875,0.0294952392578125
1772895888425604600,0.8826044921875,-0.9990997314453125,-0.0413055419921875,0.0296478271484375
1772895888435572500,0.892572509765625,-0.999847412109375,-0.0417022705078125,0.0296173095703125
1772895888445540400,0.902540283203125,-0.99896240234375,-0.0416107177734375,0.02911376953125
1772895888455508500,0.912508544921875,-0.9994049072265625,-0.0413970947265625,0.0303955078125
1772895888465477400,0.922477294921875,-0.9979400634765625,-0.03985595703125,0.0299530029296875
1772895888475445500,0.932445556640625,-0.9984893798828125,-0.0381927490234375,0.0299072265625
1772895888485413600,0.94241357421875,-0.9973907470703125,-0.0378570556640625,0.0305633544921875
1772895888495381500,0.952381591796875,-0.9975433349609375,-0.0385589599609375,0.0305938720703125
1772895888505349400,0.962349365234375,-0.999176025390625,-0.039337158203125,0.0298919677734375
1772895888515318300,0.972318359375,-0.9980316162109375,-0.0399932861328125,0.029052734375
1772895888525286400,0.982286376953125,-0.999786376953125,-0.040863037109375,0.0287933349609375
1772895888535254500,0.992254638671875,-0.9752960205078125,-0.04302978515625,0.02813720703125
1772895888545222400,1.002222412109375,-1.0287017822265625,-0.0393829345703125,0.0290374755859375
1772895888555191600,1.012191650390625,-1.0045166015625,-0.0414276123046875,0.0287628173828125
1772895888565159700,1.02215966796875,-1.00067138671875,-0.040069580078125,0.0297088623046875
1772895888575127600,1.03212744140625,-0.9881744384765625,-0.040771484375,0.0290069580078125
1772895888585095400,1.042095458984375,-0.9984130859375,-0.0423431396484375,0.028778076171875
1772895888595063600,1.0520634765625,-0.9908905029296875,-0.0405120849609375,0.0310516357421875
1772895888605032400,1.062032470703125,-1.009429931640625,-0.0393218994140625,0.031707763671875
1772895888615000600,1.07200048828125,-1.0020294189453125,-0.03729248046875,0.0305328369140625
1772895888624968400,1.081968505859375,-0.9880523681640625,-0.038665771484375,0.0292510986328125
1772895888634936600,1.0919365234375,-0.99566650390625,-0.040618896484375,0.029693603515625
1772895888644904700,1.10190478515625,-1.0045318603515625,-0.041534423828125,0.0311431884765625
1772895888654873600,1.11187353515625,-0.994415283203125,-0.044189453125,0.0327911376953125
1772895888664841500,1.121841552734375,-1.0099334716796875,-0.038848876953125,0.029815673828125
1772895888674809300,1.131809326171875,-0.9936676025390625,-0.038482666015625,0.02862548828125
1772895888684777500,1.141777587890625,-0.9890594482421875,-0.0396575927734375,0.0289306640625
1772895888694746400,1.151746337890625,-1.0063934326171875,-0.0400848388671875,0.030670166015625
1772895888704714500,1.161714599609375,-1.0019073486328125,-0.0422210693359375,0.0317230224609375
1772895888714682600,1.1716826171875,-0.9981231689453125,-0.04046630859375,0.030029296875
1772895888724650500,1.181650390625,-0.9932098388671875,-0.040283203125,0.028076171875
1772895888734618400,1.191618408203125,-1.0015106201171875,-0.0384521484375,0.0279083251953125
1772895888744587500,1.20158740234375,-0.9968719482421875,-0.04144287109375,0.0295562744140625
1772895888754555400,1.211555419921875,-1.004364013671875,-0.04058837890625,0.030517578125
1772895888764523500,1.2215234375,-0.99981689453125,-0.0416259765625,0.0303192138671875
1772895888774491600,1.23149169921875,-0.9887847900390625,-0.0409393310546875,0.029937744140625
1772895888784460500,1.24146044921875,-1.001617431640625,-0.0370941162109375,0.02923583984375
1772895888794428700,1.2514287109375,-0.9983673095703125,-0.037841796875,0.0295867919921875
1772895888804396300,1.261396240234375,-1.0001068115234375,-0.0388031005859375,0.0306549072265625
1772895888814364400,1.271364501953125,-0.9974212646484375,-0.041107177734375,0.02996826171875
1772895888824332500,1.28133251953125,-0.9967498779296875,-0.0416259765625,0.0287933349609375
1772895888834301400,1.291301513671875,-0.9968414306640625,-0.0413055419921875,0.03070068359375
1772895888844269600,1.30126953125,-1.002655029296875,-0.0409698486328125,0.02947998046875
1772895888854237400,1.311237548828125,-1.0024871826171875,-0.04046630859375,0.0296783447265625
1772895888864205600,1.32120556640625,-0.9906005859375,-0.0427398681640625,0.0290069580078125
1772895888874174700,1.3311748046875,-1.000701904296875,-0.041839599609375,0.0299835205078125
1772895888884142300,1.341142333984375,-0.998291015625,-0.04095458984375,0.0303192138671875
1772895888894110500,1.3511103515625,-0.99951171875,-0.038177490234375,0.031402587890625
1772895888904078600,1.36107861328125,-1.000946044921875,-0.0375518798828125,0.0298309326171875
1772895888914046500,1.37104638671875,-0.995025634765625,-0.038330078125,0.0291595458984375
1772895888924015600,1.381015625,-0.9954681396484375,-0.0392608642578125,0.029815673828125
1772895888933983500,1.3909833984375,-1.0028076171875,-0.041168212890625,0.0309600830078125
1772895888943951600,1.40095166015625,-1.0015716552734375,-0.04083251953125,0.030426025390625
1772895888953919500,1.41091943359375,-0.99700927734375,-0.04144287109375,0.0294189453125
1772895888963887000,1.42088720703125,-0.9967193603515625,-0.0395660400390625,0.0282135009765625
1772895888973856300,1.430856201171875,-0.9993438720703125,-0.03997802734375,0.0290985107421875
1772895888983824100,1.44082421875,-0.9970245361328125,-0.041839599609375,0.0303802490234375
1772895888993792300,1.450792236328125,-1.0035858154296875,-0.041412353515625,0.029876708984375
1772895889003760400,1.460760498046875,-0.99713134765625,-0.0412445068359375,0.0291595458984375
1772895889013729300,1.470729248046875,-0.9963836669921875,-0.0391387939453125,0.0284423828125
1772895889023697400,1.480697509765625,-1.0001678466796875,-0.0383453369140625,0.02947998046875
1772895889033665300,1.490665283203125,-0.9990692138671875,-0.039764404296875,0.02923583984375
1772895889043633200,1.500633056640625,-0.9996337890625,-0.0403289794921875,0.0306549072265625
1772895889053601300,1.510601318359375,-0.99609375,-0.041046142578125,0.030517578125
1772895889063570200,1.520570068359375,-0.9999237060546875,-0.0400543212890625,0.0300445556640625
1772895889073538300,1.530538330078125,-0.9968414306640625,-0.0393524169921875,0.0299835205078125
1772895889083506400,1.54050634765625,-1.0023651123046875,-0.03887939453125,0.02978515625
1772895889093474300,1.550474365234375,-0.997772216796875,-0.039886474609375,0.02978515625
1772895889103443500,1.560443359375,-0.9968414306640625,-0.041015625,0.029815673828125
1772895889113411000,1.5704111328125,-0.9992218017578125,-0.041412353515625,0.030426025390625
1772895889123379200,1.580379150390625,-0.999298095703125,-0.0412445068359375,0.029815673828125
1772895889133347300,1.590347412109375,-1.0004730224609375,-0.0402069091796875,0.029754638671875
1772895889143315200,1.600315185546875,-0.9985198974609375,-0.0399932861328125,0.029144287109375
1772895889153284400,1.610284423828125,-0.9981842041015625,-0.0417633056640625,0.030120849609375
1772895889163252500,1.62025244140625,-0.9983367919921875,-0.04156494140625,0.03082275390625
1772895889173220400,1.630220458984375,-1.0005950927734375,-0.04095458984375,0.0305938720703125
1772895889183188200,1.640188232421875,-0.9983062744140625,-0.0395050048828125,0.030364990234375
1772895889193156400,1.65015625,-0.99658203125,-0.0388336181640625,0.0298614501953125
1772895889203125200,1.660125244140625,-0.997650146484375,-0.0378265380859375,0.029327392578125
1772895889213093400,1.67009326171875,-0.9975128173828125,-0.0394439697265625,0.030548095703125
1772895889223061200,1.680061279296875,-0.9991607666015625,-0.0404052734375,0.029998779296875
1772895889233029400,1.690029296875,-1.0001068115234375,-0.04071044921875,0.0290679931640625
1772895889242998300,1.699998291015625,-0.9977874755859375,-0.0404052734375,0.029144287109375
1772895889252966400,1.70996630859375,-0.9995574951171875,-0.0407867431640625,0.0290374755859375
1772895889262934300,1.719934326171875,-1.0000152587890625,-0.0405120849609375,0.029022216796875
1772895889272902100,1.729902099609375,-1.00030517578125,-0.04107666015625,0.029632568359375
1772895889282870300,1.739870361328125,-0.9972686767578125,-0.04144287109375,0.030059814453125
1772895889292839200,1.749839111328125,-0.9990234375,-0.0394439697265625,0.0291595458984375
1772895889302807300,1.759807373046875,-0.9974212646484375,-0.0401458740234375,0.02972412109375
1772895889312775400,1.769775390625,-0.9988555908203125,-0.0391387939453125,0.0294647216796875
1772895889322743300,1.779743408203125,-1.0006103515625,-0.03936767578125,0.029876708984375
1772895889332712200,1.789712158203125,-0.9964752197265625,-0.0408172607421875,0.029449462890625
1772895889342680300,1.799680419921875,-0.998382568359375,-0.0401153564453125,0.0305938720703125
1772895889352648200,1.809648193359375,-0.99761962890625,-0.039794921875,0.03076171875
1772895889362616300,1.8196162109375,-0.9996185302734375,-0.040252685546875,0.0298614501953125
1772895889372584400,1.82958447265625,-0.9971923828125,-0.0388641357421875,0.0298614501953125
1772895889382553300,1.83955322265625,-0.9987030029296875,-0.0400390625,0.0296783447265625
1772895889392521500,1.849521484375,-0.9964141845703125,-0.04058837890625,0.03009033203125
1772895889402489000,1.859489013671875,-0.9991302490234375,-0.0407562255859375,0.0296630859375
1772895889412457200,1.869457275390625,-0.9994354248046875,-0.04058837890625,0.0300140380859375
1772895889422426000,1.879426025390625,-0.9991607666015625,-0.040313720703125,0.0299835205078125
1772895889432394200,1.889394287109375,-0.9964447021484375,-0.0401153564453125,0.0298614501953125
1772895889442362400,1.8993623046875,-0.99871826171875,-0.04119873046875,0.0300445556640625
1772895889452330200,1.909330322265625,-0.999237060546875,-0.0417327880859375,0.03045654296875
1772895889462298400,1.91929833984375,-0.998321533203125,-0.040435791015625,0.0300750732421875
1772895889472267300,1.929267333984375,-0.998809814453125,-0.0409698486328125,0.0294952392578125
1772895889482235100,1.939235107421875,-0.997467041015625,-0.0395660400390625,0.02935791015625
1772895889492203300,1.949203369140625,-0.9976806640625,-0.0388641357421875,0.029022216796875
1772895889502171400,1.95917138671875,-0.9978179931640625,-0.0399322509765625,0.029266357421875
1772895889512140300,1.969140380859375,-0.9992523193359375,-0.041046142578125,0.0301666259765625
1772895889522108400,1.9791083984375,-0.9969940185546875,-0.0412139892578125,0.0301666259765625
1772895889532076300,1.989076171875,-0.9986724853515625,-0.04083251953125,0.029998779296875
1772895889542044400,1.99904443359375,-0.9978790283203125,-0.04071044921875,0.0294189453125
1772895889552012300,2.00901220703125,-1.0003204345703125,-0.04107666015625,0.029541015625
1772895889561981200,2.018981201171875,-0.9995574951171875,-0.041473388671875,0.029998779296875
1772895889571949300,2.02894921875,-0.9990234375,-0.0420684814453125,0.0301971435546875
1772895889581917200,2.038917236328125,-0.99725341796875,-0.0412750244140625,0.030303955078125
1772895889591885300,2.04888525390625,-0.99774169921875,-0.039031982421875,0.0297698974609375
1772895889601854200,2.058854248046875,-0.9985504150390625,-0.0389251708984375,0.03070068359375
1772895889611822300,2.068822265625,-0.9975433349609375,-0.0386199951171875,0.0303192138671875
1772895889621790500,2.07879052734375,-0.998199462890625,-0.039764404296875,0.030914306640625
1772895889631758300,2.08875830078125,-0.9976043701171875,-0.040130615234375,0.0305023193359375
1772895889641726200,2.098726318359375,-0.998504638671875,-0.0405426025390625,0.029937744140625
1772895889651695400,2.1086953125,-0.99822998046875,-0.040496826171875,0.030242919921875
1772895889661663200,2.118663330078125,-0.9984130859375,-0.0413818359375,0.0294952392578125
1772895889671631400,2.12863134765625,-0.997589111328125,-0.0408477783203125,0.0297698974609375
1772895889681599500,2.138599609375,-0.999267578125,-0.0416107177734375,0.030303955078125
1772895889691568400,2.148568359375,-0.9976806640625,-0.0412139892578125,0.030242919921875
1772895889701536300,2.158536376953125,-0.99932861328125,-0.0396881103515625,0.0289764404296875
1772895889711504100,2.168504150390625,-0.997589111328125,-0.0398406982421875,0.0294647216796875
1772895889721472300,2.17847216796875,-0.998504638671875,-0.0392608642578125,0.02972412109375
1772895889731440400,2.1884404296875,-0.9975738525390625,-0.0404205322265625,0.029754638671875
1772895889741409300,2.1984091796875,-0.999542236328125,-0.039337158203125,0.0301361083984375
1772895889751377400,2.20837744140625,-0.9986572265625,-0.0399017333984375,0.0308685302734375
1772895889761345300,2.21834521484375,-0.998870849609375,-0.040252685546875,0.02984619140625
1772895889771313200,2.228313232421875,-0.9991302490234375,-0.03985595703125,0.029083251953125
1772895889781282300,2.2382822265625,-0.99774169921875,-0.0404052734375,0.0303192138671875
1772895889791250200,2.248250244140625,-0.99951171875,-0.04034423828125,0.0296173095703125
1772895889801218300,2.25821826171875,-0.9981689453125,-0.0401763916015625,0.03033447265625
1772895889811186400,2.2681865234375,-0.9993743896484375,-0.0410919189453125,0.0294342041015625
1772895889821155300,2.2781552734375,-0.998077392578125,-0.0397796630859375,0.0306396484375
1772895889831123500,2.28812353515625,-0.9993438720703125,-0.03887939453125,0.02935791015625
1772895889841091300,2.29809130859375,-0.9971923828125,-0.03997802734375,0.029083251953125
1772895889851059200,2.30805908203125,-0.999114990234375,-0.0410919189453125,0.0300750732421875
1772895889861027300,2.31802734375,-0.9984130859375,-0.0407257080078125,0.029815673828125
1772895889870996200,2.327996337890625,-0.99896240234375,-0.0403900146484375,0.030364990234375
1772895889880964400,2.33796435546875,-0.9990081787109375,-0.040069580078125,0.0302276611328125
1772895889890932200,2.34793212890625,-0.998565673828125,-0.0393218994140625,0.029754638671875
1772895889900900400,2.357900390625,-0.998291015625,-0.03997802734375,0.0304107666015625
1772895889910869200,2.367869140625,-0.9979248046875,-0.0397796630859375,0.030914306640625
1772895889920837400,2.37783740234375,-0.99835205078125,-0.039764404296875,0.0305633544921875
1772895889930805200,2.38780517578125,-0.996551513671875,-0.03948974609375,0.029815673828125
1772895889940773400,2.3977734375,-0.99853515625,-0.03948974609375,0.03033447265625
1772895889950741200,2.4077412109375,-0.9976654052734375,-0.040863037109375,0.0290985107421875
1772895889960710000,2.4177099609375,-0.99920654296875,-0.041015625,0.0290069580078125
1772895889970677800,2.427677734375,-0.99822998046875,-0.0416107177734375,0.030364990234375
1772895889980646000,2.43764599609375,-0.9984130859375,-0.041259765625,0.02935791015625
1772895889990614000,2.447614013671875,-0.9987640380859375,-0.04095458984375,0.0294342041015625
1772895890000583000,2.4575830078125,-0.9984283447265625,-0.040435791015625,0.029998779296875
1772895890010551000,2.467551025390625,-0.9976806640625,-0.0399017333984375,0.028533935546875
1772895890020518700,2.4775185546875,-0.9978790283203125,-0.0396575927734375,0.02923583984375
1772895890030486800,2.48748681640625,-0.998870849609375,-0.039764404296875,0.030120849609375
1772895890040455000,2.497454833984375,-0.9981231689453125,-0.0398712158203125,0.03082275390625
1772895890050423800,2.507423828125,-0.9995574951171875,-0.0399322509765625,0.0299530029296875
1772895890060392000,2.517391845703125,-0.9980010986328125,-0.0396881103515625,0.0296173095703125
1772895890070360000,2.527360107421875,-0.9995269775390625,-0.0410308837890625,0.030181884765625
1772895890080328000,2.537327880859375,-0.9979095458984375,-0.0407257080078125,0.0297393798828125
1772895890090297000,2.547297119140625,-0.999755859375,-0.0406646728515625,0.0299530029296875
1772895890100264700,2.5572646484375,-0.99822998046875,-0.0409088134765625,0.0302734375
1772895890110232800,2.56723291015625,-0.9990386962890625,-0.0408172607421875,0.0292205810546875
1772895890120201000,2.577200927734375,-0.99847412109375,-0.0402374267578125,0.0302734375
1772895890130169900,2.587169921875,-0.9990692138671875,-0.0396575927734375,0.029296875
1772895890140138000,2.597137939453125,-0.9982147216796875,-0.0401458740234375,0.03082275390625
1772895890150105900,2.60710595703125,-0.998565673828125,-0.0411529541015625,0.0307464599609375
1772895890160073700,2.61707373046875,-0.998565673828125,-0.040740966796875,0.0302276611328125
1772895890170041900,2.627041748046875,-0.997528076171875,-0.03997802734375,0.02984619140625
1772895890180010800,2.6370107421875,-0.99859619140625,-0.03973388671875,0.029693603515625
1772895890189979000,2.646978759765625,-0.9968109130859375,-0.03955078125,0.0303192138671875
1772895890199947000,2.656947021484375,-0.9990692138671875,-0.03997802734375,0.030426025390625
1772895890209915000,2.666914794921875,-0.999237060546875,-0.0397796630859375,0.029388427734375
1772895890219884000,2.676884033203125,-0.9980926513671875,-0.0396881103515625,0.0294952392578125
1772895890229852000,2.686851806640625,-0.998748779296875,-0.0397491455078125,0.0289764404296875
1772895890239819800,2.69681982421875,-0.999664306640625,-0.0399627685546875,0.029754638671875
1772895890249788000,2.706787841796875,-0.9982452392578125,-0.0406494140625,0.030303955078125
1772895890259756800,2.7167568359375,-0.9998779296875,-0.04150390625,0.0292510986328125
1772895890269725000,2.726724853515625,-0.9976959228515625,-0.04144287109375,0.03057861328125
1772895890279692800,2.73669287109375,-0.998870849609375,-0.0403900146484375,0.0295867919921875
1772895890289661000,2.746660888671875,-0.9983978271484375,-0.03948974609375,0.029205322265625
1772895890299629000,2.756629150390625,-0.9988861083984375,-0.0403289794921875,0.0308990478515625
1772895890309598000,2.766597900390625,-0.9979248046875,-0.039794921875,0.0302276611328125
1772895890319565800,2.77656591796875,-0.99798583984375,-0.0387725830078125,0.030029296875
1772895890329533700,2.78653369140625,-0.9987945556640625,-0.0399017333984375,0.030517578125
1772895890339501800,2.796501708984375,-0.99737548828125,-0.0393524169921875,0.0300750732421875
1772895890349471000,2.806470947265625,-0.9990692138671875,-0.0384979248046875,0.02960205078125
1772895890359438800,2.81643896484375,-0.9977874755859375,-0.0404815673828125,0.030029296875
1772895890369407000,2.826406982421875,-0.999603271484375,-0.04058837890625,0.0297088623046875
1772895890379375000,2.836375,-0.9982757568359375,-0.0412139892578125,0.0301971435546875
1772895890389344000,2.846343994140625,-0.9989166259765625,-0.0418243408203125,0.029876708984375
1772895890399312000,2.856311767578125,-0.9989013671875,-0.0404052734375,0.0294036865234375
1772895890409279700,2.86627978515625,-0.9985809326171875,-0.0405426025390625,0.0292510986328125
1772895890419247900,2.876247802734375,-0.9980316162109375,-0.03985595703125,0.03045654296875
1772895890429216000,2.886216064453125,-0.997802734375,-0.03985595703125,0.02960205078125
1772895890439185000,2.896184814453125,-0.99871826171875,-0.0401763916015625,0.0295562744140625
1772895890449153000,2.906153076171875,-0.9980621337890625,-0.0395050048828125,0.0300140380859375
1772895890459121000,2.916120849609375,-0.9988861083984375,-0.0390625,0.0294189453125
1772895890469088800,2.9260888671875,-0.996978759765625,-0.0390625,0.0298614501953125
1772895890479057700,2.9360576171875,-0.999664306640625,-0.039764404296875,0.030548095703125
1772895890489025800,2.94602587890625,-0.9979248046875,-0.040313720703125,0.030242919921875
1772895890498994000,2.955993896484375,-0.9984588623046875,-0.040740966796875,0.0298614501953125
1772895890508961800,2.9659619140625,-0.9983673095703125,-0.039825439453125,0.0302734375
1772895890518930000,2.975929931640625,-0.9991607666015625,-0.039703369140625,0.0292816162109375
1772895890528899000,2.985899169921875,-0.998443603515625,-0.04071044921875,0.0295257568359375
1772895890538866700,2.99586669921875,-0.9993438720703125,-0.04034423828125,0.0301361083984375
1772895890548834800,3.005834716796875,-0.998504638671875,-0.040374755859375,0.0301666259765625
1772895890558803000,3.015802978515625,-0.9986114501953125,-0.0405731201171875,0.0285186767578125
1772895890568771800,3.025771728515625,-0.99810791015625,-0.040313720703125,0.0298614501953125
1772895890578740000,3.035739990234375,-0.99847412109375,-0.040191650390625,0.0303192138671875
1772895890588707800,3.045707763671875,-0.9993896484375,-0.04058837890625,0.0301666259765625
1772895890598676000,3.055676025390625,-0.9972686767578125,-0.040313720703125,0.0300140380859375
1772895890608644900,3.065644775390625,-0.998321533203125,-0.0395355224609375,0.0301666259765625
1772895890618612700,3.07561279296875,-0.9971466064453125,-0.039398193359375,0.0299835205078125
1772895890628580900,3.085580810546875,-0.9997100830078125,-0.0399932861328125,0.0300140380859375
1772895890638548700,3.095548828125,-0.9977569580078125,-0.0398712158203125,0.0301513671875
1772895890648516900,3.105516845703125,-0.9985198974609375,-0.0402069091796875,0.03045654296875
1772895890658486000,3.115486083984375,-0.9986114501953125,-0.04119873046875,0.0302581787109375
1772895890668454000,3.125453857421875,-0.9990081787109375,-0.04144287109375,0.0296630859375
1772895890678422000,3.135422119140625,-0.9981536865234375,-0.0410308837890625,0.0292816162109375
1772895890688390000,3.145389892578125,-0.9988861083984375,-0.04046630859375,0.02911376953125
1772895890698358800,3.15535888671875,-1.0003662109375,-0.040283203125,0.0295257568359375
1772895890708327000,3.165326904296875,-0.9984893798828125,-0.040496826171875,0.029571533203125
1772895890718294800,3.175294677734375,-1.00042724609375,-0.0407257080078125,0.0308380126953125
1772895890728263000,3.185262939453125,-0.9970855712890625,-0.040008544921875,0.0306243896484375
1772895890738231800,3.195231689453125,-0.99786376953125,-0.039031982421875,0.030059814453125
1772895890748200000,3.205199951171875,-0.9993438720703125,-0.039459228515625,0.030059814453125
1772895890758168000,3.21516796875,-0.9996337890625,-0.0387420654296875,0.02960205078125
1772895890768135700,3.2251357421875,-0.9973297119140625,-0.04034423828125,0.02960205078125
1772895890778104800,3.235104736328125,-0.999542236328125,-0.041229248046875,0.030731201171875
1772895890788072700,3.24507275390625,-0.998931884765625,-0.0401458740234375,0.02996826171875
1772895890798040800,3.255040771484375,-0.9985504150390625,-0.0408477783203125,0.029510498046875
1772895890808009000,3.265009033203125,-0.998992919921875,-0.039703369140625,0.0299835205078125
1772895890817976800,3.274976806640625,-0.998199462890625,-0.03955078125,0.0303497314453125
1772895890827946000,3.284946044921875,-0.9983978271484375,-0.040771484375,0.0302581787109375
1772895890837914000,3.2949140625,-0.998809814453125,-0.040771484375,0.03009033203125
1772895890847881700,3.3048818359375,-0.99896240234375,-0.040283203125,0.0292205810546875
1772895890857849900,3.314849853515625,-0.9976654052734375,-0.0397796630859375,0.0294647216796875
1772895890867818800,3.32481884765625,-0.999786376953125,-0.0388031005859375,0.02935791015625
1772895890877787000,3.334786865234375,-0.9967803955078125,-0.0394287109375,0.029693603515625
1772895890887755000,3.344755126953125,-0.9991607666015625,-0.040771484375,0.02911376953125
1772895890897723000,3.354722900390625,-0.9975738525390625,-0.0418243408203125,0.03076171875
1772895890907692000,3.364692138671875,-1.0001220703125,-0.04022216796875,0.031158447265625
1772895890917659600,3.37465966796875,-0.9983978271484375,-0.03961181640625,0.02899169921875
1772895890927627800,3.384627685546875,-0.9985809326171875,-0.0402374267578125,0.0291748046875
1772895890937596000,3.394595947265625,-0.9987640380859375,-0.0411529541015625,0.0302276611328125
1772895890947564800,3.404564697265625,-0.99884033203125,-0.0412139892578125,0.0300445556640625
1772895890957533000,3.414532958984375,-1,-0.041107177734375,0.0290374755859375
1772895890967500800,3.424500732421875,-0.9981842041015625,-0.041015625,0.029693603515625
1772895890977468700,3.43446875,-0.99774169921875,-0.03948974609375,0.0289306640625
1772895890987436800,3.444436767578125,-0.9979248046875,-0.0400848388671875,0.029998779296875
1772895890997405700,3.45440576171875,-0.9987030029296875,-0.0409393310546875,0.0299835205078125
1772895891007373800,3.464373779296875,-0.9980621337890625,-0.041015625,0.030364990234375
1772895891017342000,3.474342041015625,-0.9990997314453125,-0.0403900146484375,0.0293121337890625
1772895891027309800,3.484309814453125,-0.997283935546875,-0.03973388671875,0.0298004150390625
1772895891037279000,3.494279052734375,-0.999267578125,-0.0391845703125,0.03045654296875
1772895891047246600,3.50424658203125,-0.998870849609375,-0.0397186279296875,0.0293731689453125
1772895891057214700,3.514214599609375,-0.9984893798828125,-0.040679931640625,0.03125
1772895891067182800,3.524182861328125,-0.998565673828125,-0.04083251953125,0.0308837890625
1772895891077151700,3.53415185546875,-0.999114990234375,-0.041229248046875,0.029693603515625
1772895891087120000,3.544119873046875,-0.9995880126953125,-0.0401458740234375,0.030426025390625
1772895891097087700,3.554087646484375,-0.9985809326171875,-0.0396270751953125,0.030029296875
1772895891107055900,3.564055908203125,-0.9989776611328125,-0.0396881103515625,0.0299530029296875
1772895891117025000,3.57402490234375,-0.998046875,-0.04083251953125,0.0300140380859375
1772895891126992600,3.58399267578125,-0.999908447265625,-0.0417022705078125,0.0313568115234375
1772895891136960800,3.593960693359375,-0.99774169921875,-0.0403900146484375,0.0298614501953125
1772895891146929000,3.603928955078125,-0.99932861328125,-0.0391998291015625,0.0293426513671875
1772895891156896800,3.613896728515625,-0.9978485107421875,-0.0394287109375,0.029876708984375
1772895891166866000,3.623865966796875,-0.9994964599609375,-0.0400238037109375,0.030059814453125
1772895891176833800,3.633833740234375,-0.997467041015625,-0.0403289794921875,0.030731201171875
1772895891186802000,3.643802001953125,-0.999481201171875,-0.04046630859375,0.029876708984375
1772895891196769800,3.653769775390625,-0.999664306640625,-0.0410614013671875,0.0297088623046875
1772895891206738700,3.66373876953125,-0.998077392578125,-0.040374755859375,0.0295257568359375
1772895891216706800,3.673706787109375,-0.998565673828125,-0.040191650390625,0.0294036865234375
1772895891226674700,3.6836748046875,-0.9987030029296875,-0.040924072265625,0.02947998046875
1772895891236642800,3.693642822265625,-0.9997711181640625,-0.0406341552734375,0.02960205078125
1772895891246611700,3.70361181640625,-0.997955322265625,-0.040771484375,0.0291748046875
1772895891256579800,3.713579833984375,-0.99871826171875,-0.0402069091796875,0.0296173095703125
1772895891266547700,3.723547607421875,-0.9978485107421875,-0.0391845703125,0.0301971435546875
1772895891276515800,3.733515869140625,-0.999664306640625,-0.0393829345703125,0.0299224853515625
1772895891286484700,3.743484619140625,-0.9983062744140625,-0.0394439697265625,0.0294342041015625
1772895891296452900,3.753452880859375,-0.9986114501953125,-0.0398712158203125,0.030303955078125
1772895891306420700,3.763420654296875,-0.9989471435546875,-0.0406494140625,0.03070068359375
1772895891316388900,3.773388916015625,-0.9982147216796875,-0.040863037109375,0.030059814453125
1772895891326357800,3.783357666015625,-0.999359130859375,-0.040313720703125,0.030364990234375
1772895891336326000,3.793325927734375,-0.9995880126953125,-0.0399169921875,0.0301361083984375
1772895891346293800,3.803293701171875,-0.998016357421875,-0.04058837890625,0.029632568359375
1772895891356261600,3.81326171875,-0.99786376953125,-0.0404052734375,0.02978515625
1772895891366230800,3.823230712890625,-0.99847412109375,-0.04144287109375,0.0298919677734375
1772895891376198700,3.83319873046875,-0.9991912841796875,-0.0412445068359375,0.030120849609375
1772895891386166800,3.843166748046875,-0.9975738525390625,-0.04119873046875,0.0290679931640625
1772895891396135000,3.853135009765625,-0.9988555908203125,-0.0391845703125,0.02947998046875
1772895891406102800,3.863102783203125,-0.998992919921875,-0.04083251953125,0.0306243896484375
1772895891416072000,3.873072021484375,-0.9998321533203125,-0.0418243408203125,0.031036376953125
1772895891426039800,3.883039794921875,-1.0001373291015625,-0.0413055419921875,0.03094482421875
1772895891436007700,3.893007568359375,-0.99542236328125,-0.0402069091796875,0.0300750732421875
1772895891445975800,3.902975830078125,-0.9998321533203125,-0.0387115478515625,0.029327392578125
1772895891455944700,3.91294482421875,-0.99688720703125,-0.0396270751953125,0.02972412109375
1772895891465912800,3.922912841796875,-1.0013885498046875,-0.0402984619140625,0.0303802490234375
1772895891475881000,3.932880859375,-0.9970855712890625,-0.0406341552734375,0.030517578125
1772895891485848800,3.942848876953125,-0.99615478515625,-0.0409698486328125,0.029998779296875
1772895891495818000,3.95281787109375,-0.9990997314453125,-0.0399627685546875,0.0296173095703125
1772895891505785600,3.96278564453125,-0.9983367919921875,-0.0407562255859375,0.0296630859375
1772895891515753700,3.972753662109375,-0.9992523193359375,-0.039581298828125,0.028839111328125
1772895891525721900,3.982721923828125,-0.9966888427734375,-0.0412139892578125,0.0288238525390625
1772895891535690800,3.992690673828125,-0.99932861328125,-0.0414276123046875,0.0303955078125
1772895891545659000,4.002658935546875,-0.998016357421875,-0.041961669921875,0.0306549072265625
1772895891555626800,4.012626708984375,-0.9995269775390625,-0.0399169921875,0.029998779296875
1772895891565594600,4.0225947265625,-0.9989166259765625,-0.0391387939453125,0.0295562744140625
1772895891575564000,4.03256396484375,-0.9970703125,-0.0394287109375,0.0298919677734375
1772895891585531600,4.04253173828125,-0.998626708984375,-0.039093017578125,0.0293731689453125
1772895891595499800,4.052499755859375,-0.998748779296875,-0.040740966796875,0.03057861328125
1772895891605468000,4.062468017578125,-0.9981689453125,-0.0401611328125,0.03021240234375
1772895891615436800,4.072436767578125,-0.9993133544921875,-0.0395050048828125,0.02935791015625
1772895891625405000,4.082405029296875,-0.9979248046875,-0.0401153564453125,0.029449462890625
1772895891635372800,4.092372802734375,-0.9981689453125,-0.04022216796875,0.029052734375
1772895891645340700,4.102340576171875,-0.998809814453125,-0.040374755859375,0.0302581787109375
1772895891655309600,4.1123095703125,-0.999969482421875,-0.0408172607421875,0.0306396484375
1772895891665277700,4.122277587890625,-0.9975128173828125,-0.0408935546875,0.0304107666015625
1772895891675245800,4.132245849609375,-0.99688720703125,-0.039398193359375,0.0291290283203125
1772895891685213700,4.142213623046875,-0.998199462890625,-0.0399932861328125,0.029449462890625
1772895891695182800,4.152182861328125,-0.998443603515625,-0.040008544921875,0.029693603515625
1772895891705150700,4.162150634765625,-1.00048828125,-0.0407562255859375,0.0300140380859375
1772895891715118800,4.172118896484375,-0.9976959228515625,-0.04119873046875,0.0311126708984375
1772895891725086700,4.182086669921875,-0.9994964599609375,-0.039825439453125,0.030426025390625
1772895891735055600,4.1920556640625,-0.9974822998046875,-0.03997802734375,0.029296875
1772895891745023700,4.202023681640625,-1.0006256103515625,-0.039459228515625,0.02960205078125
1772895891754991900,4.211991943359375,-0.9982757568359375,-0.0401763916015625,0.0296783447265625
1772895891764959700,4.221959716796875,-0.9986724853515625,-0.0406494140625,0.0301513671875
1772895891774928000,4.231927978515625,-0.9974517822265625,-0.0405426025390625,0.03033447265625
1772895891784896800,4.241896728515625,-0.999237060546875,-0.0407257080078125,0.02960205078125
1772895891794865000,4.251864990234375,-0.999298095703125,-0.0397186279296875,0.0294647216796875
1772895891804832800,4.261832763671875,-0.9991912841796875,-0.0395965576171875,0.0295562744140625
1772895891814801700,4.2718017578125,-0.9974517822265625,-0.040008544921875,0.0301055908203125
1772895891824769800,4.281769775390625,-0.9977264404296875,-0.0406036376953125,0.0311737060546875
1772895891834737700,4.291737548828125,-0.9982757568359375,-0.04052734375,0.03082275390625
1772895891844705800,4.301705810546875,-1.0001068115234375,-0.040496826171875,0.02984619140625
1772895891854674000,4.311673828125,-0.99761962890625,-0.0393829345703125,0.02935791015625
1772895891864642800,4.321642822265625,-0.998077392578125,-0.03985595703125,0.029022216796875
1772895891874611000,4.33161083984375,-0.99786376953125,-0.0399169921875,0.0295867919921875
1772895891884578800,4.341578857421875,-0.9971923828125,-0.040191650390625,0.02996826171875
1772895891894546700,4.351546630859375,-0.99859619140625,-0.040863037109375,0.0301055908203125
1772895891904515800,4.361515869140625,-0.997467041015625,-0.0399017333984375,0.029510498046875
1772895891914483700,4.371483642578125,-0.9987945556640625,-0.0399169921875,0.0295867919921875
1772895891924451800,4.381451904296875,-0.9977569580078125,-0.0399932861328125,0.0294647216796875
1772895891934420000,4.391419921875,-0.9995269775390625,-0.040985107421875,0.0294647216796875
1772895891944388900,4.401388916015625,-0.9977874755859375,-0.0407257080078125,0.029754638671875
1772895891954357000,4.41135693359375,-0.99871826171875,-0.0405731201171875,0.0302581787109375
1772895891964325400,4.421325439453125,-0.998687744140625,-0.040191650390625,0.028900146484375
1772895891974293500,4.43129345703125,-0.999481201171875,-0.0395355224609375,0.0295562744140625
1772895891984262400,4.441262451171875,-0.9985504150390625,-0.0399169921875,0.029937744140625
1772895891994230300,4.451230224609375,-0.999725341796875,-0.0409698486328125,0.0294036865234375
1772895892004198400,4.461198486328125,-0.999053955078125,-0.040618896484375,0.030120849609375
1772895892014166300,4.471166259765625,-1.00048828125,-0.0400238037109375,0.0307769775390625
1772895892024135400,4.481135498046875,-0.99847412109375,-0.0399322509765625,0.0304412841796875
1772895892034103300,4.491103271484375,-0.9987640380859375,-0.040863037109375,0.03021240234375
1772895892044071400,4.501071533203125,-0.99737548828125,-0.0404815673828125,0.0298309326171875
1772895892054039600,4.51103955078125,-0.999053955078125,-0.0401763916015625,0.02960205078125
1772895892064008400,4.521008544921875,-0.9973907470703125,-0.0407257080078125,0.0295257568359375
1772895892073976300,4.530976318359375,-0.9988250732421875,-0.0410614013671875,0.030120849609375
1772895892083944400,4.5409443359375,-0.9982452392578125,-0.039337158203125,0.030731201171875
1772895892093912300,4.550912353515625,-0.998626708984375,-0.040374755859375,0.029876708984375
1772895892103881500,4.560881591796875,-0.999237060546875,-0.0399322509765625,0.0300445556640625
1772895892113849300,4.570849365234375,-0.99755859375,-0.04058837890625,0.0308685302734375
1772895892123817500,4.5808173828125,-0.998382568359375,-0.0404052734375,0.030364990234375
1772895892133785600,4.59078564453125,-0.9983978271484375,-0.039703369140625,0.0297393798828125
1772895892143754500,4.60075439453125,-0.998626708984375,-0.0401458740234375,0.030181884765625
1772895892153722400,4.610722412109375,-0.9974517822265625,-0.040069580078125,0.0298004150390625
1772895892163690200,4.620690185546875,-0.9987640380859375,-0.040130615234375,0.030609130859375
1772895892173658400,4.630658447265625,-0.9974212646484375,-0.0405426025390625,0.030426025390625
1772895892183627300,4.640627197265625,-0.99932861328125,-0.04083251953125,0.0295257568359375
1772895892193595400,4.650595458984375,-0.997528076171875,-0.0406036376953125,0.029541015625
1772895892203563500,4.6605634765625,-0.9991912841796875,-0.0400238037109375,0.029266357421875
1772895892213531100,4.67053125,-0.998016357421875,-0.0405120849609375,0.029083251953125
1772895892223500500,4.68050048828125,-0.998779296875,-0.040618896484375,0.0301971435546875
1772895892233468400,4.690468505859375,-0.9970855712890625,-0.0407867431640625,0.0311431884765625
1772895892243436300,4.700436279296875,-0.999114990234375,-0.0400543212890625,0.03033447265625
1772895892253404400,4.710404296875,-0.998321533203125,-0.04010009765625,0.0301666259765625
1772895892263373300,4.720373291015625,-0.9989166259765625,-0.0403594970703125,0.0294342041015625
1772895892273341400,4.730341552734375,-0.997650146484375,-0.040008544921875,0.0297698974609375
1772895892283309600,4.7403095703125,-0.9996337890625,-0.040252685546875,0.03021240234375
1772895892293277200,4.750277099609375,-0.9980926513671875,-0.0406494140625,0.0298614501953125
1772895892303246300,4.760246337890625,-0.999053955078125,-0.0401458740234375,0.0302276611328125
1772895892313214200,4.770214111328125,-0.998260498046875,-0.0403289794921875,0.03045654296875
1772895892323182300,4.780182373046875,-0.9982757568359375,-0.040252685546875,0.0296630859375
1772895892333150500,4.790150390625,-0.999053955078125,-0.0406341552734375,0.0299835205078125
1772895892343119400,4.800119384765625,-0.999969482421875,-0.0407867431640625,0.0296173095703125
1772895892353087500,4.81008740234375,-0.9984588623046875,-0.0403900146484375,0.029815673828125
1772895892363055400,4.820055419921875,-0.9981536865234375,-0.0405120849609375,0.0297698974609375
1772895892373023200,4.830023193359375,-0.9989166259765625,-0.040130615234375,0.029632568359375
1772895892382992400,4.839992431640625,-0.9982147216796875,-0.0401611328125,0.029876708984375
1772895892392960300,4.849960205078125,-0.99749755859375,-0.0401763916015625,0.0299835205078125
1772895892402928400,4.859928466796875,-0.9986419677734375,-0.04083251953125,0.029327392578125
1772895892412896500,4.869896484375,-0.9987335205078125,-0.040863037109375,0.0292510986328125
1772895892422865400,4.879865478515625,-0.9977569580078125,-0.0400848388671875,0.0298004150390625
1772895892432833500,4.88983349609375,-0.99810791015625,-0.039337158203125,0.0295257568359375
1772895892442801400,4.899801513671875,-0.9983062744140625,-0.0397796630859375,0.0295867919921875
1772895892452769300,4.909769287109375,-0.9991302490234375,-0.0398101806640625,0.029541015625
1772895892462738200,4.91973828125,-0.9975738525390625,-0.0408782958984375,0.029571533203125
1772895892472706300,4.929706298828125,-0.9987030029296875,-0.04022216796875,0.0295257568359375
1772895892482674400,4.93967431640625,-0.997894287109375,-0.0404815673828125,0.030029296875
1772895892492642300,4.949642333984375,-0.99993896484375,-0.0405426025390625,0.0291900634765625
1772895892502611500,4.959611572265625,-0.9980316162109375,-0.040435791015625,0.029571533203125
1772895892512579300,4.969579345703125,-0.9987640380859375,-0.040191650390625,0.0296783447265625
1772895892522547500,4.97954736328125,-0.9978790283203125,-0.0398101806640625,0.0297698974609375
1772895892532515300,4.989515380859375,-0.9988250732421875,-0.0410308837890625,0.02935791015625
1772895892542484200,4.999484130859375,-0.997344970703125,-0.039642333984375,0.030181884765625
1772895892552452400,5.009452392578125,-0.999481201171875,-0.038848876953125,0.03082275390625
1772895892562420500,5.01942041015625,-0.9981536865234375,-0.0399169921875,0.0300445556640625
1772895892572388400,5.029388427734375,-1.00018310546875,-0.0408477783203125,0.03021240234375
1772895892582357500,5.039357421875,-0.9967803955078125,-0.04071044921875,0.0301513671875
1772895892592325400,5.049325439453125,-0.9988861083984375,-0.0402679443359375,0.0308685302734375
1772895892602290400,5.05929052734375,-0.99676513671875,-0.040283203125,0.03033447265625
1772895892612258600,5.069258544921875,-1.000244140625,-0.039703369140625,0.0294189453125
1772895892622226400,5.079226318359375,-0.998077392578125,-0.0402374267578125,0.0293731689453125
1772895892632195600,5.089195556640625,-0.9997406005859375,-0.03985595703125,0.0304412841796875
1772895892642163200,5.0991630859375,-0.9970245361328125,-0.03973388671875,0.030059814453125
1772895892652131300,5.10913134765625,-0.9998779296875,-0.0395355224609375,0.0306396484375
1772895892662099500,5.119099365234375,-0.9967193603515625,-0.039825439453125,0.0300140380859375
1772895892672068400,5.129068359375,-0.9967041015625,-0.0404815673828125,0.030731201171875
1772895892682036500,5.139036376953125,-1.001617431640625,-0.0400390625,0.030120849609375
1772895892692004400,5.14900439453125,-0.9989013671875,-0.0416259765625,0.0303497314453125
1772895892701972500,5.158972412109375,-0.9967803955078125,-0.0410614013671875,0.02978515625
1772895892711941400,5.16894140625,-0.999359130859375,-0.0408172607421875,0.029510498046875
1772895892721909200,5.1789091796875,-0.9981536865234375,-0.0398101806640625,0.029815673828125
1772895892731877400,5.18887744140625,-0.99810791015625,-0.04022216796875,0.0302276611328125
1772895892741846300,5.19884619140625,-0.998046875,-0.0394287109375,0.0302886962890625
1772895892751814400,5.208814453125,-0.9988555908203125,-0.039337158203125,0.0296783447265625
1772895892761782500,5.218782470703125,-0.9957275390625,-0.0397186279296875,0.029510498046875
1772895892771750400,5.22875048828125,-0.9989776611328125,-0.039764404296875,0.03009033203125
1772895892781718500,5.238718505859375,-0.9986724853515625,-0.0400390625,0.0295562744140625
1772895892791687400,5.2486875,-0.9987640380859375,-0.0403289794921875,0.02947998046875
1772895892801655300,5.2586552734375,-0.9996185302734375,-0.040924072265625,0.02960205078125
1772895892811623400,5.26862353515625,-0.9971466064453125,-0.04052734375,0.02978515625
1772895892821592300,5.27859228515625,-0.99810791015625,-0.040496826171875,0.0296783447265625
1772895892831560400,5.288560546875,-1.0001068115234375,-0.0401153564453125,0.02886962890625
1772895892841528300,5.2985283203125,-0.998443603515625,-0.039459228515625,0.029327392578125
1772895892851496400,5.308496337890625,-0.99737548828125,-0.0395355224609375,0.0290985107421875
1772895892861464300,5.31846435546875,-0.99664306640625,-0.038970947265625,0.028533935546875
1772895892871433200,5.32843310546875,-0.9991302490234375,-0.039154052734375,0.0292510986328125
1772895892881401300,5.3384013671875,-1.0005645751953125,-0.0397186279296875,0.028472900390625
1772895892891369200,5.348369140625,-1.001068115234375,-0.041168212890625,0.02813720703125
1772895892901337300,5.35833740234375,-0.9969940185546875,-0.0406036376953125,0.0290069580078125
1772895892911306500,5.368306396484375,-0.995819091796875,-0.0404205322265625,0.028900146484375
1772895892921274400,5.3782744140625,-0.99859619140625,-0.0396881103515625,0.02899169921875
1772895892931242500,5.388242431640625,-1.000823974609375,-0.039215087890625,0.0297393798828125
1772895892941211400,5.39821142578125,-0.9983673095703125,-0.03955078125,0.02978515625
1772895892951181300,5.408181396484375,-0.9980926513671875,-0.03955078125,0.03033447265625
1772895892961149400,5.4181494140625,-0.9974822998046875,-0.039154052734375,0.0297088623046875
1772895892971117600,5.42811767578125,-0.9993133544921875,-0.039703369140625,0.0301055908203125
1772895892981086500,5.43808642578125,-0.998779296875,-0.04046630859375,0.0302886962890625
1772895892991054600,5.4480546875,-0.998626708984375,-0.041229248046875,0.029571533203125
1772895893001022500,5.4580224609375,-0.999176025390625,-0.040985107421875,0.0290985107421875
1772895893010990300,5.467990234375,-0.999481201171875,-0.0402069091796875,0.02978515625
1772895893020959500,5.47795947265625,-0.9982452392578125,-0.039825439453125,0.0299224853515625
1772895893030927400,5.48792724609375,-0.9991302490234375,-0.039276123046875,0.029144287109375
1772895893040895500,5.4978955078125,-0.996490478515625,-0.0396575927734375,0.0301971435546875
1772895893050863600,5.507863525390625,-0.9976654052734375,-0.0400390625,0.0312347412109375
1772895893060832500,5.51783251953125,-0.9989166259765625,-0.0391845703125,0.0298614501953125
1772895893070800600,5.527800537109375,-0.99859619140625,-0.040130615234375,0.029510498046875
1772895893080768500,5.5377685546875,-1.0005340576171875,-0.0395355224609375,0.0296630859375
1772895893090736400,5.547736328125,-0.9994354248046875,-0.040069580078125,0.030120849609375
1772895893100705300,5.557705322265625,-1.001495361328125,-0.0397491455078125,0.02911376953125
1772895893110673400,5.56767333984375,-0.9965362548828125,-0.04119873046875,0.0289306640625
1772895893120641500,5.5776416015625,-0.999267578125,-0.0410003662109375,0.0286407470703125
1772895893130609400,5.587609375,-0.99969482421875,-0.0399169921875,0.0296478271484375
1772895893140578600,5.59757861328125,-0.998779296875,-0.0388641357421875,0.0283050537109375
1772895893150546400,5.60754638671875,-1.0014190673828125,-0.0388336181640625,0.0291748046875
1772895893160514600,5.6175146484375,-1.0013580322265625,-0.038604736328125,0.02874755859375
1772895893170482400,5.627482421875,-0.9986114501953125,-0.0399169921875,0.0286712646484375
1772895893180451300,5.637451416015625,-0.9920501708984375,-0.0402374267578125,0.0286407470703125
1772895893190419500,5.64741943359375,-0.994354248046875,-0.04144287109375,0.029022216796875
1772895893200387600,5.6573876953125,-1.0008392333984375,-0.0409698486328125,0.0295562744140625
1772895893210355500,5.66735546875,-1.00018310546875,-0.0413970947265625,0.0296173095703125
1772895893220324600,5.67732470703125,-0.9989776611328125,-0.0392913818359375,0.02911376953125
1772895893230292500,5.68729248046875,-0.9958038330078125,-0.039459228515625,0.030120849609375
1772895893240260600,5.697260498046875,-0.9963531494140625,-0.0404510498046875,0.030426025390625
1772895893250228500,5.707228515625,-0.9992523193359375,-0.041046142578125,0.0305633544921875
1772895893260197400,5.717197265625,-0.9994049072265625,-0.0402984619140625,0.030670166015625
1772895893270165500,5.72716552734375,-0.99835205078125,-0.0388031005859375,0.0303955078125
1772895893280133400,5.73713330078125,-0.995086669921875,-0.0393829345703125,0.031097412109375
1772895893290101500,5.7471015625,-0.9983367919921875,-0.0397186279296875,0.0302581787109375
1772895893300070400,5.7570703125,-0.9977264404296875,-0.0412139892578125,0.03173828125
1772895893310038500,5.76703857421875,-0.999267578125,-0.0425262451171875,0.0318145751953125
1772895893320006700,5.777006591796875,-0.9987945556640625,-0.04193115234375,0.03082275390625
1772895893329975600,5.7869755859375,-0.997955322265625,-0.040618896484375,0.03021240234375
1772895893339943400,5.796943359375,-0.998199462890625,-0.0396270751953125,0.028564453125
1772895893349911600,5.80691162109375,-1.0002593994140625,-0.0393829345703125,0.0303192138671875
1772895893359879400,5.81687939453125,-0.9993896484375,-0.0395660400390625,0.029876708984375
1772895893369848600,5.8268486328125,-0.9967193603515625,-0.0398101806640625,0.02984619140625
1772895893379816400,5.83681640625,-0.9962005615234375,-0.03924560546875,0.0292816162109375
1772895893389784600,5.84678466796875,-0.9991302490234375,-0.0392608642578125,0.028350830078125
1772895893399752700,5.856752685546875,-0.998748779296875,-0.0396881103515625,0.0277252197265625
1772895893409721600,5.8667216796875,-1.0010528564453125,-0.0413970947265625,0.0279083251953125
1772895893419689500,5.876689453125,-0.9977874755859375,-0.0424957275390625,0.028167724609375
1772895893429657300,5.8866572265625,-0.9982147216796875,-0.041412353515625,0.02886962890625
1772895893439625500,5.89662548828125,-0.999176025390625,-0.040374755859375,0.0293731689453125
1772895893449594600,5.9065947265625,-1.00006103515625,-0.039459228515625,0.02886962890625
1772895893459562500,5.9165625,-0.998626708984375,-0.038177490234375,0.02947998046875
1772895893469530600,5.926530517578125,-0.9983367919921875,-0.0384674072265625,0.029571533203125
1772895893479498500,5.93649853515625,-0.9971160888671875,-0.0399169921875,0.03082275390625
1772895893489467400,5.94646728515625,-0.9991607666015625,-0.0407562255859375,0.0305633544921875
1772895893499435500,5.956435546875,-1.0009307861328125,-0.0401458740234375,0.0305328369140625
1772895893509403400,5.9664033203125,-0.9986724853515625,-0.0396575927734375,0.0297393798828125
1772895893519371500,5.97637158203125,-0.9977264404296875,-0.0415802001953125,0.0304412841796875
1772895893529340400,5.98634033203125,-0.9977264404296875,-0.0414581298828125,0.0304107666015625
1772895893539308500,5.99630859375,-0.9983978271484375,-0.0427703857421875,0.0311431884765625
1772895893549276700,6.006276611328125,-0.998565673828125,-0.041107177734375,0.0318450927734375
1772895893559244300,6.016244384765625,-0.9970855712890625,-0.0397186279296875,0.030731201171875
1772895893569213400,6.02621337890625,-0.9967041015625,-0.03900146484375,0.030181884765625
1772895893579181300,6.036181396484375,-0.997955322265625,-0.039581298828125,0.030517578125
1772895893589149400,6.0461494140625,-0.998779296875,-0.040313720703125,0.0308074951171875
1772895893599117600,6.05611767578125,-0.9990081787109375,-0.04010009765625,0.0301055908203125
1772895893609086500,6.06608642578125,-0.997344970703125,-0.040618896484375,0.0294952392578125
1772895893619054600,6.0760546875,-0.9986419677734375,-0.0407562255859375,0.02911376953125
1772895893629022700,6.086022705078125,-0.99761962890625,-0.039764404296875,0.0287017822265625
1772895893638991600,6.09599169921875,-1.0002899169921875,-0.039703369140625,0.029022216796875
1772895893648959500,6.10595947265625,-0.9980316162109375,-0.0401763916015625,0.029083251953125
1772895893658927400,6.11592724609375,-0.99835205078125,-0.0399169921875,0.0297088623046875
1772895893668895500,6.1258955078125,-0.9965667724609375,-0.0394439697265625,0.02923583984375
1772895893678864400,6.135864501953125,-0.99871826171875,-0.038177490234375,0.0290985107421875
1772895893688832500,6.14583251953125,-0.99853515625,-0.038970947265625,0.0283355712890625
1772895893698800600,6.155800537109375,-1.0000152587890625,-0.040130615234375,0.0293426513671875
1772895893708768500,6.1657685546875,-0.998504638671875,-0.04132080078125,0.02960205078125
1772895893718737700,6.175737548828125,-0.998748779296875,-0.0420989990234375,0.0302886962890625
1772895893728705300,6.185705322265625,-0.9988861083984375,-0.0411529541015625,0.030548095703125
1772895893738673400,6.19567333984375,-1.000091552734375,-0.04010009765625,0.0304107666015625
1772895893748641500,6.2056416015625,-0.99761962890625,-0.0397186279296875,0.0304107666015625
1772895893758610400,6.2156103515625,-0.997344970703125,-0.03955078125,0.0306396484375
1772895893768578600,6.22557861328125,-0.9970245361328125,-0.0396881103515625,0.0319061279296875
1772895893778546700,6.235546630859375,-0.9986724853515625,-0.0395355224609375,0.03125
1772895893788514600,6.2455146484375,-0.999053955078125,-0.0401611328125,0.031646728515625
1772895893798483700,6.255483642578125,-0.998260498046875,-0.0400848388671875,0.0316619873046875
1772895893808451300,6.265451416015625,-0.9976348876953125,-0.0411376953125,0.030181884765625
1772895893818419500,6.27541943359375,-0.998687744140625,-0.04168701171875,0.0298919677734375
1772895893828387600,6.2853876953125,-0.9987030029296875,-0.0426788330078125,0.0308837890625
1772895893838356500,6.2953564453125,-0.998443603515625,-0.0420074462890625,0.0297088623046875
1772895893848324600,6.30532470703125,-0.998199462890625,-0.040252685546875,0.0303497314453125
1772895893858292500,6.31529248046875,-0.998138427734375,-0.038421630859375,0.02911376953125
1772895893868260400,6.32526025390625,-0.9979400634765625,-0.0384674072265625,0.02880859375
1772895893878229500,6.3352294921875,-0.9981689453125,-0.039398193359375,0.0295562744140625
1772895893888197400,6.345197265625,-0.99847412109375,-0.039947509765625,0.029693603515625
1772895893898165500,6.35516552734375,-0.9968109130859375,-0.0393829345703125,0.02923583984375
1772895893908133600,6.365133544921875,-0.99847412109375,-0.039520263671875,0.02838134765625
1772895893918102500,6.3751025390625,-0.99859619140625,-0.0399627685546875,0.0290679931640625
1772895893928070700,6.385070556640625,-0.99981689453125,-0.0397491455078125,0.029571533203125
1772895893938038500,6.39503857421875,-0.9983062744140625,-0.0412750244140625,0.028533935546875
1772895893948006400,6.40500634765625,-0.999176025390625,-0.0414276123046875,0.0293121337890625
1772895893957975300,6.414975341796875,-0.9978179931640625,-0.04071044921875,0.029876708984375
1772895893967943400,6.424943359375,-0.9989776611328125,-0.0399932861328125,0.02972412109375
1772895893977911600,6.43491162109375,-0.9972991943359375,-0.039947509765625,0.030029296875
1772895893987880400,6.44488037109375,-0.9987945556640625,-0.0397491455078125,0.030609130859375
1772895893997848600,6.4548486328125,-0.998077392578125,-0.0416107177734375,0.030364990234375
1772895894007816400,6.46481640625,-0.99847412109375,-0.041595458984375,0.031524658203125
1772895894017784600,6.47478466796875,-0.9985809326171875,-0.041595458984375,0.029876708984375
1772895894027753500,6.48475341796875,-0.999114990234375,-0.040435791015625,0.0299835205078125
1772895894037721300,6.494721435546875,-0.9990692138671875,-0.04071044921875,0.031402587890625
1772895894047689500,6.504689453125,-0.998046875,-0.0405731201171875,0.03045654296875
1772895894057657600,6.51465771484375,-0.998382568359375,-0.03985595703125,0.031158447265625
1772895894067626500,6.52462646484375,-0.9980010986328125,-0.040008544921875,0.02947998046875
1772895894077594600,6.5345947265625,-0.99871826171875,-0.0400390625,0.0295257568359375
1772895894087562500,6.5445625,-0.998443603515625,-0.0392913818359375,0.029266357421875
1772895894097530600,6.554530517578125,-0.9990997314453125,-0.0397491455078125,0.0296630859375
1772895894107499500,6.56449951171875,-0.998077392578125,-0.0398101806640625,0.0299224853515625
1772895894117467400,6.57446728515625,-0.9992828369140625,-0.0415802001953125,0.0291595458984375
1772895894127435500,6.584435546875,-0.9988250732421875,-0.0419464111328125,0.029449462890625
1772895894137403400,6.5944033203125,-0.9988555908203125,-0.0412445068359375,0.0290069580078125
1772895894147372500,6.60437255859375,-0.9974822998046875,-0.0413665771484375,0.0286865234375
1772895894157340400,6.61434033203125,-1.0000762939453125,-0.0394439697265625,0.0287933349609375
1772895894167308500,6.62430859375,-0.9965972900390625,-0.0400238037109375,0.0292510986328125
1772895894177277400,6.63427734375,-0.999969482421875,-0.0392913818359375,0.029541015625
1772895894187245600,6.64424560546875,-0.9979248046875,-0.0391387939453125,0.0306549072265625
1772895894197213400,6.65421337890625,-0.9989166259765625,-0.0388946533203125,0.03106689453125
1772895894207181600,6.664181640625,-0.998291015625,-0.0398406982421875,0.030303955078125
1772895894217150500,6.674150390625,-0.9979705810546875,-0.0406951904296875,0.030548095703125
1772895894227118600,6.68411865234375,-0.998565673828125,-0.0410308837890625,0.030670166015625
1772895894237086500,6.69408642578125,-0.9990386962890625,-0.04229736328125,0.0303192138671875
1772895894247054600,6.7040546875,-0.9997711181640625,-0.0411224365234375,0.0303955078125
1772895894257023500,6.7140234375,-0.9985504150390625,-0.040679931640625,0.0301971435546875
1772895894266991600,6.72399169921875,-0.9988555908203125,-0.0398712158203125,0.0302581787109375
1772895894276959500,6.73395947265625,-0.9979400634765625,-0.0396270751953125,0.030548095703125
1772895894286927400,6.74392724609375,-0.9987640380859375,-0.039703369140625,0.03131103515625
1772895894296896500,6.753896484375,-0.997833251953125,-0.0401611328125,0.0311737060546875
1772895894306864400,6.763864501953125,-0.999176025390625,-0.04095458984375,0.0299835205078125
1772895894316832500,6.77383251953125,-0.998504638671875,-0.0408477783203125,0.029449462890625
1772895894326800600,6.783800537109375,-0.9987945556640625,-0.0406494140625,0.0305938720703125
1772895894336769500,6.79376953125,-0.999114990234375,-0.0399932861328125,0.030120849609375
1772895894346737400,6.8037373046875,-0.999053955078125,-0.04034423828125,0.0295867919921875
1772895894356705500,6.81370556640625,-0.9974365234375,-0.0409698486328125,0.02978515625
1772895894366673400,6.82367333984375,-0.999237060546875,-0.040313720703125,0.029083251953125
1772895894376642600,6.833642578125,-0.997833251953125,-0.039154052734375,0.029693603515625
1772895894386610400,6.8436103515625,-1.00042724609375,-0.039337158203125,0.029388427734375
1772895894396578600,6.85357861328125,-0.9983673095703125,-0.040283203125,0.0284576416015625
1772895894406546700,6.863546630859375,-0.9994964599609375,-0.040924072265625,0.028839111328125
1772895894416515600,6.873515625,-0.998321533203125,-0.0408477783203125,0.0285797119140625
1772895894426483500,6.8834833984375,-0.9998626708984375,-0.040802001953125,0.029541015625
1772895894436451300,6.893451416015625,-0.9990997314453125,-0.040679931640625,0.0292816162109375
1772895894446420500,6.90342041015625,-0.9993133544921875,-0.04010009765625,0.02911376953125
1772895894456388400,6.913388427734375,-0.998565673828125,-0.0398101806640625,0.0294342041015625
1772895894466356500,6.9233564453125,-0.9984893798828125,-0.0406036376953125,0.029937744140625
1772895894476324600,6.93332470703125,-0.9980926513671875,-0.03887939453125,0.030303955078125
1772895894486293500,6.94329345703125,-0.9996490478515625,-0.039276123046875,0.03076171875
1772895894496261600,6.95326171875,-0.998931884765625,-0.0395050048828125,0.0311431884765625
1772895894506229500,6.9632294921875,-0.9987945556640625,-0.03863525390625,0.02996826171875
1772895894516197400,6.973197265625,-0.9982452392578125,-0.041259765625,0.030181884765625
1772895894526166500,6.98316650390625,-0.99884033203125,-0.040924072265625,0.03125
1772895894536134400,6.993134521484375,-0.9994049072265625,-0.0413665771484375,0.03094482421875
1772895894546102500,7.0031025390625,-0.998260498046875,-0.0413665771484375,0.0297088623046875
1772895894556070700,7.013070556640625,-0.998260498046875,-0.0401763916015625,0.03155517578125
1772895894566039600,7.02303955078125,-0.997100830078125,-0.0391845703125,0.0298309326171875
1772895894576007700,7.033007568359375,-0.9990386962890625,-0.038970947265625,0.0304718017578125
1772895894585975300,7.042975341796875,-0.9969940185546875,-0.039703369140625,0.0294952392578125
1772895894595943400,7.052943359375,-0.998077392578125,-0.039276123046875,0.0299835205078125
1772895894605912300,7.062912353515625,-0.9981689453125,-0.0394287109375,0.029632568359375
1772895894615880400,7.07288037109375,-0.9986724853515625,-0.03973388671875,0.02935791015625
1772895894625848600,7.0828486328125,-0.999481201171875,-0.040008544921875,0.028778076171875
1772895894635816400,7.09281640625,-1.00006103515625,-0.0404510498046875,0.029541015625
1772895894645785600,7.10278564453125,-0.99798583984375,-0.0403900146484375,0.0294342041015625
1772895894655753700,7.112753662109375,-0.999603271484375,-0.04022216796875,0.02960205078125
1772895894665721300,7.122721435546875,-0.9993438720703125,-0.0406494140625,0.0294342041015625
1772895894675690500,7.1326904296875,-0.9998626708984375,-0.0393829345703125,0.029296875
1772895894685658400,7.142658447265625,-0.9985809326171875,-0.0397796630859375,0.0290374755859375
1772895894695626500,7.15262646484375,-0.9990081787109375,-0.039947509765625,0.02923583984375
1772895894705594600,7.1625947265625,-0.997772216796875,-0.04022216796875,0.030242919921875
1772895894715563500,7.1725634765625,-0.9982452392578125,-0.0390167236328125,0.030029296875
1772895894725531600,7.18253173828125,-0.9985504150390625,-0.04046630859375,0.030181884765625
1772895894735499300,7.192499267578125,-0.999847412109375,-0.042022705078125,0.0304107666015625
1772895894745467400,7.20246728515625,-0.9979095458984375,-0.041290283203125,0.0305328369140625
1772895894755436500,7.2124365234375,-0.99945068359375,-0.0399017333984375,0.0307769775390625
1772895894765404400,7.222404296875,-0.9992828369140625,-0.04022216796875,0.030303955078125
1772895894775372500,7.23237255859375,-0.9983062744140625,-0.0397491455078125,0.030517578125
1772895894785340700,7.242340576171875,-0.99981689453125,-0.040618896484375,0.0303802490234375
1772895894795309600,7.2523095703125,-0.9989471435546875,-0.040740966796875,0.0299530029296875
1772895894805277700,7.262277587890625,-0.9993896484375,-0.0402984619140625,0.0300140380859375
1772895894815245300,7.272245361328125,-0.998748779296875,-0.0396270751953125,0.0304412841796875
1772895894825213400,7.28221337890625,-0.9989013671875,-0.040863037109375,0.0294952392578125
1772895894835182300,7.292182373046875,-0.9984893798828125,-0.04107666015625,0.02978515625
1772895894845150500,7.302150390625,-0.9990386962890625,-0.0416412353515625,0.029296875
1772895894855118600,7.31211865234375,-0.9983673095703125,-0.0405731201171875,0.0300445556640625
1772895894865087500,7.32208740234375,-0.9991607666015625,-0.0400848388671875,0.0294189453125
1772895894875055600,7.3320556640625,-0.998687744140625,-0.0398101806640625,0.02947998046875
1772895894885023500,7.3420234375,-0.9989013671875,-0.0399017333984375,0.0295257568359375
1772895894894991400,7.351991455078125,-0.99737548828125,-0.0385589599609375,0.028900146484375
1772895894904960500,7.36196044921875,-0.99859619140625,-0.039581298828125,0.0296630859375
1772895894914928400,7.371928466796875,-0.997283935546875,-0.04052734375,0.0297698974609375
1772895894924896500,7.381896484375,-0.9993743896484375,-0.040435791015625,0.029022216796875
1772895894934864600,7.39186474609375,-0.9982757568359375,-0.041351318359375,0.0295867919921875
1772895894944833500,7.40183349609375,-0.9988555908203125,-0.03997802734375,0.029296875
1772895894954801700,7.4118017578125,-0.998748779296875,-0.0398712158203125,0.029693603515625
1772895894964769500,7.42176953125,-0.9987335205078125,-0.0409698486328125,0.030364990234375
1772895894974736600,7.431736572265625,-0.9980010986328125,-0.04034423828125,0.0299224853515625
1772895894984705800,7.441705810546875,-0.999267578125,-0.039581298828125,0.0297393798828125
1772895894994673700,7.451673583984375,-0.997772216796875,-0.0396575927734375,0.03009033203125
1772895895004641500,7.4616416015625,-0.997894287109375,-0.039306640625,0.03070068359375
1772895895014610400,7.4716103515625,-0.99810791015625,-0.039886474609375,0.0302276611328125
1772895895024578600,7.48157861328125,-0.99993896484375,-0.0399169921875,0.03076171875
1772895895034546700,7.491546630859375,-0.9984588623046875,-0.040618896484375,0.0308837890625
1772895895044514600,7.5015146484375,-0.99920654296875,-0.040771484375,0.030120849609375
1772895895054483700,7.511483642578125,-0.9986572265625,-0.04071044921875,0.0303802490234375
1772895895064451600,7.52145166015625,-0.9989776611328125,-0.040435791015625,0.029998779296875
1772895895074419700,7.531419677734375,-0.998291015625,-0.0396575927734375,0.0294952392578125
1772895895084387600,7.5413876953125,-0.9980621337890625,-0.0401458740234375,0.0294952392578125
1772895895094356500,7.5513564453125,-0.9975433349609375,-0.03985595703125,0.029388427734375
1772895895104324600,7.56132470703125,-0.9978790283203125,-0.0399627685546875,0.029022216796875
1772895895114292700,7.571292724609375,-0.999359130859375,-0.0399169921875,0.02947998046875
1772895895124260600,7.581260498046875,-0.9974365234375,-0.0392913818359375,0.0301361083984375
1772895895134229800,7.591229736328125,-1.0006561279296875,-0.040740966796875,0.030059814453125
1772895895144197600,7.60119775390625,-0.9983673095703125,-0.040924072265625,0.029144287109375
1772895895154165500,7.61116552734375,-0.9980621337890625,-0.0413360595703125,0.0297393798828125
1772895895164133600,7.621133544921875,-0.9995574951171875,-0.040069580078125,0.030181884765625
1772895895174102500,7.6311025390625,-0.9978790283203125,-0.040252685546875,0.0299835205078125
1772895895184070700,7.641070556640625,-0.998687744140625,-0.0391082763671875,0.029052734375
1772895895194038500,7.65103857421875,-0.9992828369140625,-0.0401611328125,0.02984619140625
1772895895204007700,7.661007568359375,-0.9963226318359375,-0.0397796630859375,0.0296478271484375
1772895895213975600,7.6709755859375,-0.99908447265625,-0.039947509765625,0.0294952392578125
1772895895223943700,7.680943603515625,-0.9972991943359375,-0.039581298828125,0.0299530029296875
1772895895233911600,7.69091162109375,-1.0000152587890625,-0.039337158203125,0.030303955078125
1772895895243880400,7.70088037109375,-0.99639892578125,-0.0407257080078125,0.0303497314453125
1772895895253848600,7.7108486328125,-0.9998779296875,-0.0410614013671875,0.0303192138671875
1772895895263816700,7.720816650390625,-0.9975738525390625,-0.0415496826171875,0.0304107666015625
1772895895273784600,7.73078466796875,-0.999664306640625,-0.0414581298828125,0.030853271484375
1772895895283753700,7.740753662109375,-0.998779296875,-0.03997802734375,0.029937744140625
1772895895293721600,7.7507216796875,-0.9967193603515625,-0.0390472412109375,0.029510498046875
1772895895303689700,7.760689697265625,-0.99749755859375,-0.038909912109375,0.0301666259765625
1772895895313657600,7.77065771484375,-1.00030517578125,-0.0399627685546875,0.02960205078125
1772895895323626500,7.78062646484375,-0.99749755859375,-0.0403289794921875,0.029510498046875
1772895895333594600,7.7905947265625,-0.9999237060546875,-0.04083251953125,0.0303497314453125
1772895895343562500,7.8005625,-0.998504638671875,-0.0409088134765625,0.0290069580078125
1772895895353531600,7.81053173828125,-0.998138427734375,-0.04022216796875,0.0293426513671875
1772895895363499500,7.82049951171875,-0.997802734375,-0.0401763916015625,0.0293731689453125
1772895895373467600,7.830467529296875,-0.9992828369140625,-0.0408935546875,0.030609130859375
1772895895383435800,7.840435791015625,-0.9967498779296875,-0.0407257080078125,0.0294952392578125
1772895895393404700,7.85040478515625,-0.9991912841796875,-0.0396270751953125,0.0296630859375
1772895895403372500,7.86037255859375,-0.9972991943359375,-0.0396728515625,0.0290679931640625
1772895895413340700,7.870340576171875,-0.999114990234375,-0.0387420654296875,0.029296875
1772895895423308500,7.88030859375,-0.9998779296875,-0.0404052734375,0.02960205078125
1772895895433277700,7.890277587890625,-0.9983062744140625,-0.0410614013671875,0.0302734375
1772895895443245600,7.90024560546875,-0.99725341796875,-0.0406341552734375,0.029632568359375
1772895895453213700,7.910213623046875,-0.9993896484375,-0.0400848388671875,0.0295867919921875
1772895895463181800,7.920181884765625,-0.999237060546875,-0.04022216796875,0.0296173095703125
1772895895473150700,7.930150634765625,-0.9982452392578125,-0.040008544921875,0.0308074951171875
1772895895483118600,7.94011865234375,-0.9994964599609375,-0.0406494140625,0.0306396484375
1772895895493086500,7.95008642578125,-0.9987030029296875,-0.0400543212890625,0.03057861328125
1772895895503055600,7.9600556640625,-0.9980926513671875,-0.0396270751953125,0.029815673828125
1772895895513023500,7.9700234375,-0.9988555908203125,-0.039703369140625,0.0295562744140625
1772895895522991600,7.97999169921875,-0.998809814453125,-0.040252685546875,0.0295867919921875
1772895895532959700,7.989959716796875,-0.9978790283203125,-0.0400238037109375,0.0296783447265625
1772895895542928600,7.9999287109375,-0.999176025390625,-0.04119873046875,0.0303955078125
1772895895552896800,8.009896728515624,-0.9978790283203125,-0.0410614013671875,0.02960205078125
1772895895562864600,8.01986474609375,-0.9997100830078125,-0.0407867431640625,0.02978515625
1772895895572832500,8.02983251953125,-0.99761962890625,-0.04052734375,0.0303497314453125
1772895895582801700,8.0398017578125,-0.998687744140625,-0.0399322509765625,0.0294036865234375
1772895895592769500,8.04976953125,-0.9973602294921875,-0.03973388671875,0.0293731689453125
1772895895602737700,8.059737548828124,-0.999542236328125,-0.0395965576171875,0.029144287109375
1772895895612705800,8.069705810546875,-0.9983062744140625,-0.0404052734375,0.0298919677734375
1772895895622674700,8.0796748046875,-0.999725341796875,-0.04071044921875,0.0295257568359375
1772895895632642600,8.089642578125,-0.997314453125,-0.03973388671875,0.0300140380859375
1772895895642610400,8.0996103515625,-0.998779296875,-0.040557861328125,0.029449462890625
1772895895652579600,8.10957958984375,-0.998565673828125,-0.04052734375,0.0292510986328125
1772895895662547700,8.119547607421875,-1.0004119873046875,-0.041229248046875,0.03033447265625
1772895895672515600,8.129515625,-0.997039794921875,-0.0403594970703125,0.029693603515625
1772895895682483700,8.139483642578124,-0.99908447265625,-0.0396881103515625,0.02960205078125
1772895895692452600,8.14945263671875,-0.997894287109375,-0.0405731201171875,0.0304412841796875
1772895895702420700,8.159420654296875,-0.9999542236328125,-0.03961181640625,0.0292510986328125
1772895895712388600,8.169388671875,-0.998138427734375,-0.039642333984375,0.02978515625
1772895895722356500,8.1793564453125,-0.99774169921875,-0.0404815673828125,0.02972412109375
1772895895732325600,8.18932568359375,-0.99761962890625,-0.0403900146484375,0.02972412109375
1772895895742293500,8.19929345703125,-0.99847412109375,-0.04083251953125,0.0300445556640625
1772895895752261600,8.20926171875,-1,-0.041168212890625,0.0307769775390625
1772895895762230500,8.21923046875,-0.9986724853515625,-0.0408782958984375,0.0299530029296875
1772895895772198700,8.22919873046875,-0.9971771240234375,-0.040679931640625,0.0301971435546875
1772895895782166800,8.239166748046875,-0.999267578125,-0.0398712158203125,0.0292510986328125
1772895895792134400,8.249134521484375,-0.9989013671875,-0.040313720703125,0.0299835205078125
1772895895802103600,8.259103515625,-0.9999237060546875,-0.0396270751953125,0.0305938720703125
1772895895812071700,8.26907177734375,-0.9993743896484375,-0.03924560546875,0.02972412109375
1772895895822039600,8.27903955078125,-0.995697021484375,-0.0395965576171875,0.0298309326171875
1772895895832007700,8.289007568359375,-0.9992828369140625,-0.03900146484375,0.0290069580078125
1772895895841976600,8.2989765625,-0.9990692138671875,-0.0398712158203125,0.0295562744140625
1772895895851944700,8.30894482421875,-0.9982147216796875,-0.0416107177734375,0.029754638671875
1772895895861912800,8.318912841796875,-0.9986724853515625,-0.041595458984375,0.03057861328125
1772895895871880400,8.32888037109375,-0.9987945556640625,-0.0408172607421875,0.02899169921875
1772895895881849600,8.338849609375,-0.9971771240234375,-0.03985595703125,0.029052734375
1772895895891817500,8.3488173828125,-1.0008087158203125,-0.0386505126953125,0.029388427734375
1772895895901785600,8.35878564453125,-0.9987945556640625,-0.0396575927734375,0.02886962890625
1772895895911754500,8.36875439453125,-0.9973602294921875,-0.0405120849609375,0.029754638671875
1772895895921722600,8.37872265625,-0.99884033203125,-0.0405731201171875,0.0296173095703125
1772895895931690800,8.388690673828124,-1.0000152587890625,-0.04095458984375,0.029510498046875
1772895895941658600,8.39865869140625,-0.997802734375,-0.040283203125,0.0297088623046875
1772895895951627800,8.408627685546875,-1.000274658203125,-0.0403900146484375,0.029296875
1772895895961595600,8.418595703125,-0.9967803955078125,-0.040771484375,0.029296875
1772895895971563800,8.428563720703124,-0.998199462890625,-0.04034423828125,0.0291900634765625
1772895895981532000,8.438531982421875,-0.99774169921875,-0.039947509765625,0.03033447265625
1772895895991500800,8.448500732421875,-0.9997711181640625,-0.040252685546875,0.030120849609375
1772895896001469000,8.458468994140626,-0.9976959228515625,-0.03985595703125,0.0293121337890625
1772895896011436800,8.468436767578124,-1,-0.0410919189453125,0.03021240234375
1772895896021405700,8.47840576171875,-0.9971466064453125,-0.0415496826171875,0.030670166015625
1772895896031373800,8.488373779296875,-0.999755859375,-0.0399169921875,0.0306243896484375
1772895896041341700,8.498341796875,-0.9991455078125,-0.04071044921875,0.0292816162109375
1772895896051309800,8.508309814453124,-0.99945068359375,-0.0409088134765625,0.0294342041015625
1772895896061278700,8.51827880859375,-0.9983062744140625,-0.0400848388671875,0.0301666259765625
1772895896071246800,8.528246826171875,-0.99859619140625,-0.0405120849609375,0.0308074951171875
1772895896081215000,8.538215087890626,-0.998565673828125,-0.04071044921875,0.03045654296875
1772895896091182600,8.5481826171875,-0.99822998046875,-0.039764404296875,0.030487060546875
1772895896101151700,8.55815185546875,-0.998992919921875,-0.0395050048828125,0.0306549072265625
1772895896111120000,8.568119873046875,-0.9967498779296875,-0.0392913818359375,0.030120849609375
1772895896121087700,8.578087646484375,-0.997802734375,-0.03961181640625,0.02911376953125
1772895896131057000,8.588056884765624,-0.9988861083984375,-0.0400238037109375,0.0294036865234375
1772895896141024800,8.598024658203125,-0.9983062744140625,-0.041748046875,0.029388427734375
1772895896150993000,8.607992919921875,-0.9977874755859375,-0.040374755859375,0.0289764404296875
1772895896160960800,8.617960693359375,-0.998382568359375,-0.04022216796875,0.031158447265625
1772895896170930000,8.627929931640624,-0.998748779296875,-0.040130615234375,0.02960205078125
1772895896180897800,8.637897705078124,-0.9990386962890625,-0.04058837890625,0.029998779296875
1772895896190865700,8.64786572265625,-0.99755859375,-0.0396881103515625,0.03021240234375
1772895896200833800,8.657833740234375,-0.9984283447265625,-0.0405120849609375,0.0298919677734375
1772895896210802700,8.667802734375,-0.9978485107421875,-0.040985107421875,0.0304107666015625
1772895896220770800,8.677770751953124,-1.000244140625,-0.0400238037109375,0.0294189453125
1772895896230739000,8.687739013671875,-0.9989776611328125,-0.0401611328125,0.02984619140625
1772895896240706600,8.69770654296875,-0.9993896484375,-0.0396575927734375,0.030181884765625
1772895896250675700,8.70767578125,-0.9969024658203125,-0.0401763916015625,0.0307464599609375
1772895896260643800,8.717643798828124,-0.9993743896484375,-0.040557861328125,0.0302276611328125
1772895896270611700,8.72761181640625,-0.9985504150390625,-0.0406341552734375,0.02996826171875
1772895896280580900,8.737580810546875,-0.999481201171875,-0.039215087890625,0.0293731689453125
1772895896290548700,8.747548828125,-0.99737548828125,-0.0400543212890625,0.0302276611328125
1772895896300516900,8.757516845703124,-0.998382568359375,-0.0399932861328125,0.029815673828125
1772895896310485000,8.767485107421875,-0.9981231689453125,-0.040069580078125,0.0306243896484375
1772895896320454000,8.777453857421875,-0.9989166259765625,-0.0406494140625,0.030548095703125
1772895896330421800,8.787421875,-0.997100830078125,-0.041107177734375,0.0299530029296875
1772895896340389600,8.7973896484375,-0.99908447265625,-0.0405731201171875,0.029541015625
1772895896350357800,8.807357666015625,-0.9992218017578125,-0.0392608642578125,0.02960205078125
1772895896360326700,8.81732666015625,-0.9989471435546875,-0.0398406982421875,0.028839111328125
1772895896370294800,8.827294677734375,-0.9983062744140625,-0.0408477783203125,0.029449462890625
1772895896380263000,8.837262939453124,-0.9990081787109375,-0.03985595703125,0.03009033203125
1772895896390231800,8.847231689453125,-0.99749755859375,-0.039947509765625,0.0303192138671875
1772895896400200000,8.857199951171875,-0.9995269775390625,-0.0396881103515625,0.0296478271484375
1772895896410167800,8.867167724609375,-0.9981536865234375,-0.0395355224609375,0.030120849609375
1772895896420135700,8.8771357421875,-0.9977569580078125,-0.0396270751953125,0.0299530029296875
1772895896430104800,8.887104736328125,-0.998687744140625,-0.0406341552734375,0.030609130859375
1772895896440072700,8.89707275390625,-0.9977264404296875,-0.0414886474609375,0.029815673828125
1772895896450040800,8.907040771484375,-0.999298095703125,-0.04095458984375,0.0304107666015625
1772895896460009000,8.917009033203126,-0.998077392578125,-0.0408477783203125,0.0297393798828125
1772895896469977900,8.926977783203125,-0.999420166015625,-0.0404815673828125,0.0302276611328125
1772895896479946000,8.936946044921875,-0.9994659423828125,-0.0406341552734375,0.02978515625
1772895896489913600,8.94691357421875,-0.998779296875,-0.04022216796875,0.030059814453125
1772895896499881700,8.9568818359375,-0.9979400634765625,-0.0410308837890625,0.03021240234375
1772895896509850600,8.9668505859375,-0.9991607666015625,-0.0404052734375,0.0300445556640625
1772895896519818800,8.97681884765625,-0.998870849609375,-0.0393524169921875,0.0298309326171875
1772895896529787000,8.986786865234375,-0.9993133544921875,-0.040008544921875,0.030029296875
1772895896539755800,8.996755859375,-0.9976654052734375,-0.0404205322265625,0.0297698974609375
1772895896549724000,9.006723876953124,-0.999542236328125,-0.041290283203125,0.0304412841796875
1772895896559692000,9.016692138671875,-0.999267578125,-0.0406951904296875,0.0296478271484375
1772895896569659600,9.02665966796875,-1.00006103515625,-0.0412750244140625,0.0299072265625
1772895896579628800,9.03662890625,-0.99761962890625,-0.039794921875,0.029876708984375
1772895896589596700,9.0465966796875,-0.9983367919921875,-0.03900146484375,0.02880859375
1772895896599564800,9.056564697265625,-0.997711181640625,-0.0399627685546875,0.029205322265625
1772895896609533700,9.06653369140625,-0.99920654296875,-0.0411224365234375,0.0304718017578125
1772895896619501800,9.076501708984376,-0.9987030029296875,-0.0402679443359375,0.0299530029296875
1772895896629470000,9.086469970703124,-0.9981842041015625,-0.0396270751953125,0.0299835205078125
1772895896639437600,9.0964375,-0.99853515625,-0.040283203125,0.0292510986328125
1772895896649407000,9.106406982421875,-0.999603271484375,-0.0402984619140625,0.0295867919921875
1772895896659374600,9.11637451171875,-0.9983367919921875,-0.0403594970703125,0.0301361083984375
1772895896669342700,9.1263427734375,-0.9990081787109375,-0.04119873046875,0.030181884765625
1772895896679310800,9.136310791015624,-0.9976654052734375,-0.0404052734375,0.0300445556640625
1772895896689279700,9.14627978515625,-0.997955322265625,-0.0392913818359375,0.0299224853515625
1772895896699247900,9.156247802734375,-0.998382568359375,-0.038818359375,0.029296875
1772895896709216000,9.166216064453126,-0.99822998046875,-0.038970947265625,0.029571533203125
1772895896719185000,9.176184814453125,-0.999176025390625,-0.04034423828125,0.0303955078125
1772895896729152800,9.18615283203125,-0.9986419677734375,-0.0406036376953125,0.030426025390625
1772895896739120600,9.19612060546875,-1.000640869140625,-0.0413055419921875,0.0304718017578125
1772895896749088800,9.2060888671875,-0.9967193603515625,-0.0408172607421875,0.0299835205078125
1772895896759057700,9.2160576171875,-1.0003204345703125,-0.040191650390625,0.0295867919921875
1772895896769025800,9.22602587890625,-0.997467041015625,-0.04034423828125,0.0294342041015625
1772895896778994000,9.235993896484375,-0.99908447265625,-0.0414886474609375,0.0306243896484375
1772895896788961800,9.2459619140625,-0.998687744140625,-0.0409698486328125,0.0300445556640625
1772895896798931000,9.255930908203124,-0.999481201171875,-0.03973388671875,0.0300140380859375
1772895896808898600,9.265898681640625,-0.9964599609375,-0.0394287109375,0.0297698974609375
1772895896818866700,9.27586669921875,-1.00054931640625,-0.03802490234375,0.02978515625
1772895896828835800,9.2858359375,-0.9971160888671875,-0.0391387939453125,0.030364990234375
1772895896838803700,9.2958037109375,-0.99713134765625,-0.04150390625,0.0303192138671875
1772895896848771800,9.305771728515625,-0.998779296875,-0.0416259765625,0.0301055908203125
1772895896858740000,9.315739990234375,-0.998870849609375,-0.041107177734375,0.03009033203125
1772895896868708900,9.325708984375,-0.9972686767578125,-0.041015625,0.03021240234375
1772895896878677000,9.335677001953124,-0.99957275390625,-0.039825439453125,0.029510498046875
1772895896888644600,9.34564453125,-0.997100830078125,-0.0400390625,0.029571533203125
1772895896898612700,9.35561279296875,-0.9989013671875,-0.04083251953125,0.0298919677734375
1772895896908581600,9.36558154296875,-0.9986419677734375,-0.040374755859375,0.029876708984375
1772895896918549800,9.3755498046875,-0.99835205078125,-0.0386962890625,0.0293426513671875
1772895896928518000,9.385517822265625,-0.9974517822265625,-0.0392608642578125,0.028656005859375
1772895896938485800,9.39548583984375,-0.9996490478515625,-0.0394439697265625,0.0292816162109375
1772895896948455000,9.405454833984376,-0.9987030029296875,-0.04058837890625,0.029022216796875
1772895896958422800,9.4154228515625,-0.998779296875,-0.041107177734375,0.0305938720703125
1772895896968390700,9.425390625,-0.999053955078125,-0.041351318359375,0.029632568359375
1772895896978359800,9.43535986328125,-0.99713134765625,-0.039947509765625,0.0304107666015625
1772895896988327700,9.44532763671875,-0.9984283447265625,-0.0398406982421875,0.0295867919921875
1772895896998295800,9.4552958984375,-0.9978790283203125,-0.039794921875,0.0293731689453125
1772895897008264000,9.465263916015624,-0.997344970703125,-0.0400543212890625,0.0303192138671875
1772895897018232800,9.47523291015625,-0.996826171875,-0.0400390625,0.030609130859375
1772895897028201000,9.485200927734375,-1,-0.0397186279296875,0.0303955078125
1772895897038168600,9.49516845703125,-0.9984283447265625,-0.0401153564453125,0.0297393798828125
1772895897048137700,9.5051376953125,-0.9977874755859375,-0.0398712158203125,0.029754638671875
1772895897058105600,9.515105712890625,-0.99835205078125,-0.0404205322265625,0.0299224853515625
1772895897068073700,9.52507373046875,-0.9987335205078125,-0.041168212890625,0.0298919677734375
1772895897078041900,9.535041748046876,-0.997711181640625,-0.0405731201171875,0.0298309326171875
1772895897088010800,9.5450107421875,-0.999542236328125,-0.04052734375,0.0306396484375
1772895897097979000,9.554978759765625,-0.998382568359375,-0.0394287109375,0.0294647216796875
1772895897107946800,9.56494677734375,-0.9996490478515625,-0.03900146484375,0.0290374755859375
1772895897117914600,9.57491455078125,-0.99786376953125,-0.0389404296875,0.0295257568359375
1772895897127883800,9.5848837890625,-0.9994049072265625,-0.0398406982421875,0.0301971435546875
1772895897137851600,9.5948515625,-0.99810791015625,-0.040679931640625,0.0302581787109375
1772895897147819800,9.60481982421875,-0.9981231689453125,-0.0408172607421875,0.029327392578125
1772895897157788700,9.61478857421875,-0.998779296875,-0.040985107421875,0.0298309326171875
1772895897167756800,9.6247568359375,-1.0003814697265625,-0.03985595703125,0.0296783447265625
1772895897177725000,9.634724853515625,-0.9986114501953125,-0.0405731201171875,0.0301666259765625
1772895897187692500,9.644692626953125,-0.999359130859375,-0.0411834716796875,0.0297088623046875
1772895897197661700,9.65466162109375,-0.998291015625,-0.0403289794921875,0.030181884765625
1772895897207627800,9.664627685546876,-0.9996337890625,-0.039276123046875,0.02996826171875
1772895897217596000,9.674595947265624,-0.9982757568359375,-0.0387420654296875,0.0299835205078125
1772895897227563800,9.684563720703125,-0.998443603515625,-0.0391693115234375,0.0296783447265625
1772895897237533000,9.694532958984375,-0.9989776611328125,-0.0403289794921875,0.02972412109375
1772895897247500500,9.70450048828125,-0.9975433349609375,-0.0414581298828125,0.0302734375
1772895897257468700,9.71446875,-0.99835205078125,-0.0405426025390625,0.030792236328125
1772895897267437800,9.724437744140625,-0.999176025390625,-0.040557861328125,0.0305023193359375
1772895897277405700,9.73440576171875,-0.9984283447265625,-0.0402069091796875,0.02923583984375
1772895897287373800,9.744373779296875,-0.998321533203125,-0.040374755859375,0.0298919677734375
1772895897297341700,9.754341796875,-1.000213623046875,-0.04083251953125,0.0299224853515625
1772895897307310800,9.764310791015625,-0.9979400634765625,-0.04046630859375,0.0294189453125
1772895897317279000,9.774279052734375,-0.9989166259765625,-0.040283203125,0.029388427734375
1772895897327246600,9.78424658203125,-0.998260498046875,-0.0401458740234375,0.029296875
1772895897337214700,9.794214599609376,-0.9992523193359375,-0.0390625,0.0294342041015625
1772895897347183600,9.80418359375,-0.9986724853515625,-0.0395660400390625,0.029266357421875
1772895897357151700,9.81415185546875,-0.9994659423828125,-0.040191650390625,0.0302734375
1772895897367120000,9.824119873046875,-0.998504638671875,-0.0408935546875,0.0301971435546875
1772895897377088800,9.8340888671875,-1.000152587890625,-0.0403594970703125,0.0294342041015625
1772895897387057000,9.844056884765624,-0.998260498046875,-0.0400848388671875,0.02899169921875
1772895897397024500,9.8540244140625,-0.9987945556640625,-0.0402679443359375,0.0289764404296875
1772895897406992600,9.86399267578125,-0.997589111328125,-0.0403289794921875,0.0289306640625
1772895897416961800,9.8739619140625,-0.9989776611328125,-0.040496826171875,0.0299530029296875
1772895897426929700,9.8839296875,-0.9975128173828125,-0.040283203125,0.030303955078125
1772895897436897800,9.893897705078125,-0.9982147216796875,-0.0401153564453125,0.0294647216796875
1772895897446866000,9.903865966796875,-0.99774169921875,-0.039947509765625,0.0298919677734375
1772895897456834800,9.913834716796876,-0.99945068359375,-0.039581298828125,0.0296478271484375
1772895897466803000,9.923802978515624,-0.9977569580078125,-0.0410614013671875,0.029388427734375
1772895897476770600,9.9337705078125,-0.999725341796875,-0.04034423828125,0.03009033203125
1772895897486739700,9.94373974609375,-0.9980316162109375,-0.0411224365234375,0.0305023193359375
1772895897496707600,9.95370751953125,-0.999053955078125,-0.039764404296875,0.02960205078125
1772895897506675700,9.96367578125,-0.998321533203125,-0.0395965576171875,0.030181884765625
1772895897516643800,9.973643798828125,-0.9990081787109375,-0.039031982421875,0.0307464599609375
1772895897526612700,9.98361279296875,-0.997894287109375,-0.0399932861328125,0.0294342041015625
1772895897536580900,9.993580810546876,-0.9977569580078125,-0.0401611328125,0.0296478271484375
1772895897546548700,10.003548828125,-0.9990234375,-0.0407562255859375,0.0305328369140625
1772895897556518000,10.013517822265625,-0.99884033203125,-0.0398712158203125,0.0305633544921875
1772895897566485800,10.02348583984375,-0.9986724853515625,-0.0406494140625,0.0298004150390625
1772895897576453600,10.03345361328125,-0.997589111328125,-0.0410003662109375,0.02880859375
1772895897586421800,10.043421875,-0.9988861083984375,-0.041046142578125,0.0304107666015625
1772895897596390700,10.053390625,-0.99774169921875,-0.03924560546875,0.0297698974609375
1772895897606358800,10.06335888671875,-0.9982147216796875,-0.0406951904296875,0.0301971435546875
1772895897616327000,10.073326904296875,-0.9986572265625,-0.040496826171875,0.031005859375
1772895897626294800,10.083294677734376,-0.9988555908203125,-0.0396728515625,0.029998779296875
1772895897636264700,10.0932646484375,-0.9971160888671875,-0.039154052734375,0.0295867919921875
1772895897646232800,10.10323291015625,-0.9998321533203125,-0.0398406982421875,0.0308990478515625
1772895897656200700,10.11320068359375,-0.9989013671875,-0.0401763916015625,0.0301971435546875
1772895897666169600,10.123169677734374,-1.00079345703125,-0.040283203125,0.029754638671875
1772895897676137700,10.1331376953125,-0.9983367919921875,-0.0405120849609375,0.029876708984375
1772895897686105900,10.14310595703125,-0.9981842041015625,-0.04107666015625,0.03009033203125
1772895897696073700,10.15307373046875,-0.997955322265625,-0.0401611328125,0.03106689453125
1772895897706043000,10.16304296875,-0.9993133544921875,-0.0396270751953125,0.030303955078125
1772895897716010800,10.1730107421875,-0.99749755859375,-0.0399627685546875,0.03082275390625
1772895897725979000,10.182978759765625,-0.9994659423828125,-0.0405120849609375,0.02984619140625
1772895897735947800,10.19294775390625,-0.9985504150390625,-0.0401611328125,0.0295562744140625
1772895897745915600,10.20291552734375,-0.998138427734375,-0.0399169921875,0.02960205078125
1772895897755883800,10.2128837890625,-0.99774169921875,-0.0405731201171875,0.0305633544921875
1772895897765851600,10.2228515625,-0.998687744140625,-0.04095458984375,0.0302734375
1772895897775820800,10.23282080078125,-0.998260498046875,-0.0409698486328125,0.0297698974609375
1772895897785788700,10.24278857421875,-0.9986114501953125,-0.04022216796875,0.02978515625
1772895897795756800,10.2527568359375,-0.9986572265625,-0.0400238037109375,0.0301513671875
1772895897805725000,10.262724853515625,-0.998992919921875,-0.0392608642578125,0.029937744140625
1772895897815693800,10.27269384765625,-0.998260498046875,-0.039764404296875,0.02984619140625
1772895897825661700,10.28266162109375,-0.998809814453125,-0.0398712158203125,0.029693603515625
1772895897835629800,10.2926298828125,-0.9984893798828125,-0.0397796630859375,0.0293731689453125
1772895897845598700,10.3025986328125,-0.9992523193359375,-0.04022216796875,0.0301971435546875
1772895897855566800,10.31256689453125,-0.998779296875,-0.039794921875,0.029571533203125
1772895897865534700,10.32253466796875,-0.998779296875,-0.03997802734375,0.0301513671875
1772895897875502800,10.3325029296875,-0.998992919921875,-0.0411224365234375,0.02947998046875
1772895897885471700,10.3424716796875,-0.9984588623046875,-0.0408782958984375,0.0304412841796875
1772895897895440000,10.35243994140625,-0.9991302490234375,-0.04022216796875,0.0307769775390625
1772895897905407700,10.36240771484375,-0.997894287109375,-0.0399932861328125,0.0297088623046875
1772895897915376600,10.372376708984374,-0.9985198974609375,-0.0400848388671875,0.030242919921875
1772895897925344800,10.3823447265625,-0.997406005859375,-0.0395660400390625,0.0298614501953125
1772895897935312600,10.392312744140625,-0.9985504150390625,-0.0404205322265625,0.0300750732421875
1772895897945280800,10.40228076171875,-0.9977264404296875,-0.0412445068359375,0.030120849609375
1772895897955249700,10.412249755859374,-0.998748779296875,-0.0406646728515625,0.0298919677734375
1772895897965217800,10.4222177734375,-0.998291015625,-0.039703369140625,0.03009033203125
1772895897975186200,10.432186279296875,-0.9983978271484375,-0.03997802734375,0.030242919921875
1772895897985155000,10.442155029296876,-0.9974365234375,-0.0409393310546875,0.0298614501953125
1772895897995123200,10.452123291015624,-0.999267578125,-0.040863037109375,0.0295867919921875
1772895898005091000,10.462091064453125,-0.998046875,-0.040557861328125,0.02984619140625
1772895898015059200,10.47205908203125,-0.9988861083984375,-0.0401763916015625,0.0301361083984375
1772895898025028400,10.4820283203125,-0.9976806640625,-0.039703369140625,0.0291900634765625
1772895898034996000,10.491995849609374,-0.998382568359375,-0.039825439453125,0.02923583984375
1772895898044964000,10.501964111328125,-0.99786376953125,-0.04022216796875,0.0288543701171875
1772895898054932200,10.51193212890625,-0.9996337890625,-0.040435791015625,0.029754638671875
1772895898064901000,10.521901123046876,-0.99822998046875,-0.0407257080078125,0.030181884765625
1772895898074869200,10.531869140625,-0.9986419677734375,-0.040191650390625,0.030029296875
1772895898084837000,10.541837158203125,-0.997650146484375,-0.0397491455078125,0.0302581787109375
1772895898094806300,10.55180615234375,-0.9991912841796875,-0.04046630859375,0.0296173095703125
1772895898104774100,10.561774169921875,-0.9987640380859375,-0.0404205322265625,0.03009033203125
1772895898114742000,10.571741943359376,-0.99810791015625,-0.040374755859375,0.030242919921875
1772895898124710100,10.581710205078124,-0.9982757568359375,-0.0404510498046875,0.029754638671875
1772895898134679000,10.591678955078125,-0.9986114501953125,-0.03985595703125,0.030181884765625
1772895898144647200,10.601647216796875,-0.9983978271484375,-0.040283203125,0.0304718017578125
1772895898154615000,10.611614990234376,-0.9983978271484375,-0.0400543212890625,0.0301513671875
1772895898164584200,10.621584228515625,-0.9992218017578125,-0.04150390625,0.030609130859375
1772895898174552300,10.63155224609375,-0.9984893798828125,-0.0412750244140625,0.0294647216796875
1772895898184520000,10.64152001953125,-0.99847412109375,-0.041046142578125,0.030364990234375
1772895898194488000,10.651488037109376,-0.9980316162109375,-0.040191650390625,0.0299072265625
1772895898204457000,10.66145703125,-0.9987640380859375,-0.040130615234375,0.0299835205078125
1772895898214425000,10.671425048828125,-0.9973297119140625,-0.0397491455078125,0.0296478271484375
1772895898224393200,10.681393310546875,-0.999755859375,-0.0396881103515625,0.0303497314453125
1772895898234362000,10.691362060546876,-0.997314453125,-0.040191650390625,0.0289459228515625
1772895898244330200,10.701330322265624,-0.9979248046875,-0.0399169921875,0.02935791015625
1772895898254298000,10.711298095703125,-0.9981689453125,-0.04034423828125,0.029571533203125
1772895898264266000,10.721265869140625,-0.9983673095703125,-0.0404052734375,0.0294342041015625
1772895898274235100,10.731235107421876,-0.9983062744140625,-0.0406036376953125,0.0297393798828125
1772895898284203000,10.741203125,-0.9990081787109375,-0.0406646728515625,0.029296875
1772895898294171100,10.751171142578125,-0.9982147216796875,-0.039947509765625,0.0294036865234375
1772895898304140000,10.76114013671875,-0.9996185302734375,-0.0404510498046875,0.0299530029296875
1772895898314108200,10.771108154296876,-0.9984283447265625,-0.0402374267578125,0.029693603515625
1772895898324076300,10.781076171875,-0.9994354248046875,-0.0399322509765625,0.0294647216796875
1772895898334044200,10.791044189453125,-0.997894287109375,-0.0401458740234375,0.0301513671875
1772895898344013300,10.801013427734375,-1.000030517578125,-0.040008544921875,0.030059814453125
1772895898353981000,10.81098095703125,-0.9983978271484375,-0.0405120849609375,0.0300750732421875
1772895898363949000,10.820948974609376,-0.99969482421875,-0.039703369140625,0.0301666259765625
1772895898373917200,10.830917236328125,-0.9977874755859375,-0.04022216796875,0.0298919677734375
1772895898383886000,10.840885986328125,-0.9996337890625,-0.0401611328125,0.0302581787109375
1772895898393854200,10.850854248046875,-0.9978790283203125,-0.0407867431640625,0.0301055908203125
1772895898403822000,10.860822021484376,-0.997772216796875,-0.0413360595703125,0.0305938720703125
1772895898413791200,10.870791259765625,-0.99810791015625,-0.0410614013671875,0.0310211181640625
1772895898423759000,10.880759033203125,-0.998321533203125,-0.03955078125,0.0305023193359375
1772895898433727000,10.89072705078125,-0.998077392578125,-0.0401763916015625,0.03009033203125
1772895898443695000,10.900695068359376,-0.9975433349609375,-0.0399932861328125,0.02972412109375
1772895898453664000,10.9106640625,-0.9988861083984375,-0.0400238037109375,0.0300750732421875
1772895898463632100,10.920632080078125,-0.9977874755859375,-0.039581298828125,0.030364990234375
1772895898473600300,10.930600341796875,-0.9998321533203125,-0.0401458740234375,0.0300750732421875
1772895898483569200,10.940569091796876,-0.99951171875,-0.0402069091796875,0.0302276611328125
1772895898493537300,10.950537353515625,-0.9991912841796875,-0.039581298828125,0.030120849609375
1772895898503505200,10.960505126953125,-0.998626708984375,-0.0400848388671875,0.0292816162109375
1772895898513473000,10.97047314453125,-0.998565673828125,-0.039581298828125,0.02996826171875
1772895898523442000,10.98044189453125,-0.9980316162109375,-0.040008544921875,0.030487060546875
1772895898533410000,10.99041015625,-0.9998016357421875,-0.0397186279296875,0.0302734375
1772895898543378200,11.000378173828125,-0.9987335205078125,-0.0401611328125,0.029876708984375
1772895898553347000,11.01034716796875,-0.9992218017578125,-0.0399322509765625,0.02960205078125
1772895898563315200,11.020315185546876,-0.9979248046875,-0.04052734375,0.029052734375
1772895898573283000,11.030282958984374,-0.9996795654296875,-0.0406036376953125,0.0297393798828125
1772895898583251200,11.040251220703125,-0.99822998046875,-0.0408477783203125,0.0299224853515625
1772895898593220400,11.050220458984375,-0.9990386962890625,-0.03900146484375,0.0299224853515625
1772895898603188000,11.06018798828125,-0.9977569580078125,-0.0400238037109375,0.0297698974609375
1772895898613156000,11.070156005859374,-1.000030517578125,-0.0399017333984375,0.0302276611328125
1772895898623124200,11.080124267578125,-0.9979705810546875,-0.040313720703125,0.0308074951171875
1772895898633093000,11.090093017578125,-0.998992919921875,-0.039764404296875,0.0299224853515625
1772895898643061200,11.100061279296876,-0.9980316162109375,-0.0396575927734375,0.029632568359375
1772895898653029000,11.110029052734374,-0.9987335205078125,-0.0399932861328125,0.03070068359375
1772895898662998300,11.119998291015625,-0.9976654052734375,-0.0399322509765625,0.0305023193359375
1772895898672966100,11.129966064453125,-0.9999237060546875,-0.0393524169921875,0.0305633544921875
1772895898682934000,11.13993408203125,-0.99945068359375,-0.04046630859375,0.0302734375
1772895898692902100,11.149902099609376,-0.9988555908203125,-0.041015625,0.030792236328125
1772895898702871000,11.15987109375,-0.999114990234375,-0.0408172607421875,0.0294342041015625
1772895898712839200,11.169839111328125,-0.9986724853515625,-0.04083251953125,0.0296173095703125
1772895898722807300,11.179807373046875,-0.998443603515625,-0.0412139892578125,0.029571533203125
1772895898732776200,11.189776123046874,-0.9982452392578125,-0.0399322509765625,0.03021240234375
1772895898742744300,11.199744384765625,-0.99847412109375,-0.0397186279296875,0.030517578125
1772895898752712000,11.2097119140625,-0.999603271484375,-0.039886474609375,0.0298004150390625
1772895898762680000,11.21968017578125,-0.99871826171875,-0.040618896484375,0.029571533203125
1772895898772649000,11.22964892578125,-0.998016357421875,-0.0404205322265625,0.0303802490234375
1772895898782617000,11.2396171875,-0.9987335205078125,-0.039642333984375,0.0298004150390625
1772895898792585200,11.249585205078125,-0.998382568359375,-0.0402984619140625,0.0302581787109375
1772895898802554000,11.25955419921875,-0.9987640380859375,-0.04034423828125,0.0297698974609375
1772895898812522200,11.269522216796876,-0.997650146484375,-0.0405120849609375,0.0302276611328125
1772895898822490000,11.279489990234374,-0.998870849609375,-0.041229248046875,0.029266357421875
1772895898832458000,11.2894580078125,-0.9973297119140625,-0.0408935546875,0.0289306640625
1772895898842427100,11.29942724609375,-0.999237060546875,-0.0404815673828125,0.0302276611328125
1772895898852395000,11.30939501953125,-0.9984588623046875,-0.040771484375,0.0311279296875
1772895898862363100,11.319363037109374,-0.9990692138671875,-0.0404815673828125,0.0305633544921875
1772895898872332000,11.32933203125,-0.998138427734375,-0.0399932861328125,0.02947998046875
1772895898882300200,11.339300048828125,-1.0001678466796875,-0.040008544921875,0.029327392578125
1772895898892268300,11.349268310546876,-0.9974365234375,-0.0397491455078125,0.02996826171875
1772895898902236200,11.359236083984374,-0.99920654296875,-0.040374755859375,0.0302581787109375
1772895898912205300,11.369205322265625,-0.9970245361328125,-0.041015625,0.0299835205078125
1772895898922173000,11.3791728515625,-0.99993896484375,-0.040435791015625,0.02923583984375
1772895898932141000,11.38914111328125,-0.9986724853515625,-0.0406036376953125,0.0290069580078125
1772895898942110000,11.39910986328125,-0.9996337890625,-0.039703369140625,0.029876708984375
1772895898952078000,11.409078125,-0.999267578125,-0.0402374267578125,0.0304412841796875
1772895898962046200,11.419046142578125,-1.00018310546875,-0.0399322509765625,0.030059814453125
1772895898972014300,11.429014404296876,-0.998046875,-0.040313720703125,0.029632568359375
1772895898981983500,11.4389833984375,-0.998748779296875,-0.0401763916015625,0.0295562744140625
1772895898991951400,11.448951416015625,-0.998046875,-0.04046630859375,0.0301971435546875
1772895899001919200,11.458919189453125,-0.998809814453125,-0.040008544921875,0.030181884765625
1772895899011887400,11.468887451171875,-0.9996337890625,-0.040252685546875,0.030059814453125
1772895899021856300,11.478856201171874,-0.9992218017578125,-0.0400390625,0.029388427734375
1772895899031824400,11.488824462890625,-0.998291015625,-0.04052734375,0.02960205078125
1772895899041792500,11.49879248046875,-0.997039794921875,-0.0399017333984375,0.0295867919921875
1772895899051761400,11.508761474609376,-0.9987030029296875,-0.040008544921875,0.0303802490234375
1772895899061729500,11.5187294921875,-0.99761962890625,-0.03973388671875,0.0296630859375
1772895899071697400,11.528697509765625,-0.9985198974609375,-0.040374755859375,0.0300750732421875
1772895899081665300,11.538665283203125,-0.99810791015625,-0.04046630859375,0.030364990234375
1772895899091634200,11.54863427734375,-0.9996185302734375,-0.0401458740234375,0.02978515625
1772895899101602300,11.558602294921876,-0.9989471435546875,-0.0398406982421875,0.02947998046875
1772895899111570400,11.5685703125,-0.9993133544921875,-0.0403289794921875,0.0292510986328125
1772895899121539300,11.578539306640625,-0.9974517822265625,-0.0405426025390625,0.0301361083984375
1772895899131507500,11.588507568359375,-0.9994354248046875,-0.0403289794921875,0.0293426513671875
1772895899141475300,11.598475341796876,-0.9979705810546875,-0.0398406982421875,0.029541015625
1772895899151443500,11.608443359375,-0.99993896484375,-0.0399322509765625,0.030029296875
1772895899161412400,11.618412353515625,-0.997894287109375,-0.04046630859375,0.0301666259765625
1772895899171380200,11.628380126953125,-0.9984283447265625,-0.03955078125,0.0301055908203125
1772895899181348400,11.638348388671876,-0.998779296875,-0.040313720703125,0.02960205078125
1772895899191317200,11.648317138671874,-0.9993743896484375,-0.0413970947265625,0.0304718017578125
1772895899201285400,11.658285400390625,-0.9974517822265625,-0.0407257080078125,0.029632568359375
1772895899211253500,11.66825341796875,-0.9983367919921875,-0.03985595703125,0.0298614501953125
1772895899221221400,11.678221435546876,-0.998046875,-0.040863037109375,0.029449462890625
1772895899231190500,11.6881904296875,-1.0001983642578125,-0.04052734375,0.030029296875
1772895899241158400,11.698158447265625,-0.9984283447265625,-0.040252685546875,0.02984619140625
1772895899251126300,11.708126220703125,-0.998504638671875,-0.040679931640625,0.030364990234375
1772895899261095200,11.71809521484375,-0.998687744140625,-0.04010009765625,0.030364990234375
1772895899271063300,11.728063232421874,-0.9984893798828125,-0.0404205322265625,0.0301055908203125
1772895899281031400,11.738031494140625,-0.9984588623046875,-0.040069580078125,0.0296173095703125
1772895899290999300,11.747999267578125,-1.000244140625,-0.03912353515625,0.0292205810546875
1772895899300968400,11.757968505859376,-0.998992919921875,-0.0402984619140625,0.0300140380859375
1772895899310936600,11.7679365234375,-0.9983062744140625,-0.0403900146484375,0.0296783447265625
1772895899320904400,11.777904541015625,-0.998291015625,-0.0396575927734375,0.0295867919921875
1772895899330873600,11.78787353515625,-0.9985504150390625,-0.041259765625,0.0290374755859375
1772895899340841200,11.79784130859375,-0.998931884765625,-0.0411376953125,0.029998779296875
1772895899350809300,11.807809326171874,-0.998870849609375,-0.040130615234375,0.029571533203125
1772895899360777500,11.817777587890625,-0.9991455078125,-0.0407562255859375,0.0301055908203125
1772895899370746400,11.827746337890625,-0.9984588623046875,-0.0401763916015625,0.02984619140625
1772895899380714500,11.837714599609376,-0.9993133544921875,-0.0405731201171875,0.0294647216796875
1772895899390682400,11.847682373046876,-0.9985809326171875,-0.0406036376953125,0.0303192138671875
1772895899400651500,11.857651611328125,-0.9990997314453125,-0.0406646728515625,0.029632568359375
1772895899410619100,11.867619140625,-0.9978485107421875,-0.04022216796875,0.0298004150390625
1772895899420587300,11.877587158203125,-0.9990386962890625,-0.0401763916015625,0.0301666259765625
1772895899430555400,11.887555419921876,-0.9984893798828125,-0.0412445068359375,0.0299530029296875
1772895899440524300,11.897524169921875,-0.9994659423828125,-0.0404205322265625,0.0295867919921875
1772895899450492400,11.907492431640625,-0.9968414306640625,-0.040313720703125,0.0296173095703125
1772895899460460500,11.91746044921875,-0.9987335205078125,-0.040863037109375,0.029510498046875
1772895899470429400,11.927429443359374,-0.9984893798828125,-0.041107177734375,0.0303192138671875
1772895899480397600,11.9373974609375,-0.999420166015625,-0.0395965576171875,0.0299072265625
1772895899490365200,11.947365234375,-0.9968719482421875,-0.0396575927734375,0.0305023193359375
1772895899500333300,11.957333251953125,-0.9993743896484375,-0.0404205322265625,0.0297088623046875
1772895899510302200,11.96730224609375,-0.9982757568359375,-0.0399169921875,0.0300445556640625
1772895899520270300,11.977270263671874,-0.9986114501953125,-0.04052734375,0.0300445556640625
1772895899530238500,11.987238525390625,-0.9985504150390625,-0.0408935546875,0.029510498046875
1772895899540206300,11.997206298828125,-0.999786376953125,-0.0402069091796875,0.0299224853515625
1772895899550175500,12.007175537109376,-0.99871826171875,-0.04046630859375,0.029815673828125
1772895899560143400,12.017143310546874,-0.9990234375,-0.0400848388671875,0.029632568359375
1772895899570111200,12.027111328125,-0.9984893798828125,-0.040130615234375,0.029632568359375
1772895899580080400,12.037080322265625,-0.99798583984375,-0.040771484375,0.0301361083984375
1772895899590048300,12.04704833984375,-0.9981689453125,-0.0399627685546875,0.0303955078125
1772895899600016400,12.057016357421874,-0.9981231689453125,-0.0406494140625,0.0298919677734375
1772895899609985300,12.0669853515625,-0.9982757568359375,-0.040374755859375,0.029144287109375
1772895899619953400,12.076953369140625,-0.997955322265625,-0.0400848388671875,0.029449462890625
1772895899629921500,12.086921630859376,-0.9986572265625,-0.039764404296875,0.030242919921875
1772895899639889400,12.096889404296874,-0.9985809326171875,-0.0399322509765625,0.030059814453125
1772895899649858600,12.106858642578125,-0.9998779296875,-0.0409698486328125,0.0302886962890625
1772895899659826200,12.116826171875,-0.997467041015625,-0.039947509765625,0.029998779296875
1772895899669794300,12.126794189453125,-0.9987640380859375,-0.0406036376953125,0.0299835205078125
1772895899679762400,12.136762451171874,-0.9977874755859375,-0.040252685546875,0.0301361083984375
1772895899689731300,12.1467314453125,-0.9989471435546875,-0.040374755859375,0.0296630859375
1772895899699699500,12.156699462890625,-0.9984588623046875,-0.0403900146484375,0.029937744140625
1772895899709667300,12.166667236328125,-0.999755859375,-0.0410308837890625,0.0297393798828125
1772895899719636500,12.176636474609374,-0.99786376953125,-0.040771484375,0.0300445556640625
1772895899729604600,12.1866044921875,-0.9991455078125,-0.0411224365234375,0.030670166015625
1772895899739572200,12.196572265625,-0.99810791015625,-0.0402374267578125,0.0301361083984375
1772895899749540400,12.206540283203125,-0.9994354248046875,-0.0396881103515625,0.0306243896484375
1772895899759509200,12.21650927734375,-0.997894287109375,-0.0401763916015625,0.029571533203125
1772895899769477400,12.226477294921875,-0.9984283447265625,-0.0401763916015625,0.02935791015625
1772895899779445500,12.236445556640625,-0.99798583984375,-0.04034423828125,0.029754638671875
1772895899789414400,12.246414306640625,-0.99908447265625,-0.039703369140625,0.029815673828125
1772895899799382500,12.256382568359374,-0.998138427734375,-0.0403900146484375,0.029510498046875
1772895899809350400,12.266350341796874,-0.998443603515625,-0.0401611328125,0.030120849609375
1772895899819318300,12.276318359375,-0.998321533203125,-0.0402374267578125,0.0298919677734375
1772895899829287200,12.286287109375,-0.9981689453125,-0.0408935546875,0.030059814453125
1772895899839255300,12.29625537109375,-0.9986572265625,-0.0409393310546875,0.0297393798828125
1772895899849223400,12.306223388671874,-0.9991455078125,-0.0406036376953125,0.0292205810546875
1772895899859192300,12.3161923828125,-0.998626708984375,-0.04010009765625,0.0298614501953125
1772895899869160400,12.326160400390625,-0.9984893798828125,-0.0406036376953125,0.0303192138671875
1772895899879128600,12.336128662109376,-0.9976043701171875,-0.0402069091796875,0.029876708984375
1772895899889096200,12.34609619140625,-0.99774169921875,-0.040008544921875,0.029022216796875
1772895899899065300,12.3560654296875,-0.9994659423828125,-0.0400848388671875,0.0299835205078125
1772895899909033200,12.366033203125,-0.998321533203125,-0.04071044921875,0.0298919677734375
1772895899919001300,12.37600146484375,-0.9981842041015625,-0.040557861328125,0.0298309326171875
1772895899928970200,12.38597021484375,-0.9986114501953125,-0.0389404296875,0.0292816162109375
1772895899938938400,12.3959384765625,-0.9987030029296875,-0.0401763916015625,0.02935791015625
1772895899948906500,12.405906494140625,-0.99761962890625,-0.04052734375,0.02984619140625
1772895899958874400,12.415874267578126,-0.9996490478515625,-0.0403594970703125,0.02972412109375
1772895899968843500,12.425843505859374,-0.998138427734375,-0.0402069091796875,0.0300750732421875
1772895899978811600,12.435811767578125,-1.000274658203125,-0.040435791015625,0.0296783447265625
1772895899988779800,12.44577978515625,-0.99761962890625,-0.0399627685546875,0.0297393798828125
1772895899998748700,12.455748779296876,-0.9994354248046875,-0.0406951904296875,0.029541015625
1772895900008716800,12.465716796875,-0.9978790283203125,-0.0405731201171875,0.0300750732421875
1772895900018685000,12.475684814453125,-0.9983367919921875,-0.0394744873046875,0.0297393798828125
1772895900028652500,12.485652587890625,-0.998779296875,-0.0402069091796875,0.0299835205078125
1772895900038621700,12.49562158203125,-0.9994354248046875,-0.039947509765625,0.030029296875
1772895900048589800,12.50558984375,-0.9974365234375,-0.0399322509765625,0.0299530029296875
1772895900058557700,12.5155576171875,-0.9985809326171875,-0.0402984619140625,0.0301513671875
1772895900068526800,12.52552685546875,-0.9976959228515625,-0.0403900146484375,0.0293121337890625
1772895900078494700,12.53549462890625,-0.99853515625,-0.0398101806640625,0.0297393798828125
1772895900088462800,12.545462890625,-0.9987030029296875,-0.040008544921875,0.0295257568359375
1772895900098430700,12.5554306640625,-0.9996795654296875,-0.0399169921875,0.0301361083984375
1772895900108399900,12.56539990234375,-0.99871826171875,-0.0404052734375,0.0300445556640625
1772895900118367700,12.57536767578125,-0.998016357421875,-0.0406036376953125,0.02972412109375
1772895900128335600,12.585335693359376,-0.99859619140625,-0.041046142578125,0.029998779296875
1772895900138304800,12.5953046875,-0.999053955078125,-0.0406646728515625,0.0294342041015625
1772895900148272600,12.605272705078125,-0.9993438720703125,-0.040283203125,0.03021240234375
1772895900158240800,12.61524072265625,-0.9992523193359375,-0.040283203125,0.0297698974609375
1772895900168209000,12.625208984375,-0.99920654296875,-0.040374755859375,0.0292510986328125
1772895900178177800,12.635177734375,-0.9985504150390625,-0.0401458740234375,0.029937744140625
1772895900188145700,12.645145751953125,-0.9981231689453125,-0.0404815673828125,0.0301971435546875
1772895900198113800,12.65511376953125,-0.9986724853515625,-0.0406494140625,0.0299072265625
1772895900208082700,12.665082763671874,-0.999725341796875,-0.0403900146484375,0.03033447265625
1772895900218050800,12.67505078125,-0.9978790283203125,-0.040374755859375,0.030029296875
1772895900228018700,12.685018798828125,-0.9986419677734375,-0.040283203125,0.0297698974609375
1772895900237986800,12.69498681640625,-0.998748779296875,-0.0400543212890625,0.029571533203125
1772895900247955700,12.704955810546876,-0.9993743896484375,-0.0403594970703125,0.02978515625
1772895900257923800,12.714923828125,-0.9975738525390625,-0.040374755859375,0.0294647216796875
1772895900267891700,12.7248916015625,-0.999298095703125,-0.0403289794921875,0.0297088623046875
1772895900277860600,12.734860595703125,-0.9980010986328125,-0.0401763916015625,0.02978515625
1772895900287828700,12.744828857421876,-0.9989013671875,-0.0400848388671875,0.029205322265625
1772895900297796600,12.754796630859374,-0.99822998046875,-0.0405120849609375,0.029541015625
1772895900307764700,12.7647646484375,-0.998626708984375,-0.0399627685546875,0.0296173095703125
1772895900317734000,12.77473388671875,-0.997161865234375,-0.0395965576171875,0.0300445556640625
1772895900327701800,12.78470166015625,-0.999267578125,-0.039520263671875,0.0293121337890625
1772895900337670000,12.794669921875,-0.9983367919921875,-0.040374755859375,0.0297393798828125
1772895900347638800,12.804638671875,-0.9998016357421875,-0.039825439453125,0.03045654296875
1772895900357606700,12.814606689453125,-0.998321533203125,-0.0403900146484375,0.0293121337890625
1772895900367574800,12.82457470703125,-0.999053955078125,-0.041015625,0.0301055908203125
1772895900377543700,12.834543701171874,-0.9970855712890625,-0.0411224365234375,0.0307464599609375
