time,seconds_elapsed,z,y,x
1772895887575812600,0.0328125,-0.0006245188415050507,-0.0010408256202936172,-0.0022577946074306965
1772895887585780700,0.04278076171875,-0.0009295530617237091,-0.0014464370906352997,-0.0019012799020856619
1772895887595748600,0.05274853515625,-0.0004816092550754547,-0.00028636399656534195,-0.0019950231071561575
1772895887605716700,0.062716796875,-0.0005069747567176819,0.0008651800453662872,-0.0009432691149413586
1772895887615684900,0.072684814453125,0.001352177932858467,0.0014396235346794128,-0.0015635192394256592
1772895887625653800,0.08265380859375,0.0029381336644291878,0.0000329483300447464,-0.003150568576529622
1772895887635621600,0.09262158203125,0.0007506133988499641,-0.001786789856851101,-0.0022834432311356068
1772895887645589500,0.102589599609375,-0.0027330126613378525,0.0007509449496865273,-0.0006421711295843124
1772895887655557600,0.1125576171875,0.0005477350205183029,-0.0008360324427485466,-0.0008602840825915337
1772895887665526500,0.122526611328125,0.00006751343607902527,0.0006010038778185844,0.0024722404778003693
1772895887675494700,0.13249462890625,0.0015338500961661339,0.0020148754119873047,0.0010554390028119087
1772895887685462800,0.142462890625,-0.0015894090756773949,-0.0021034246310591698,0.0009322171099483967
1772895887695430700,0.1524306640625,-0.0001712758094072342,0.0004161922261118889,0.0017697811126708984
1772895887705398500,0.1623984375,-0.0020885663107037544,0.0007030041888356209,-0.002026559552177787
1772895887715367700,0.17236767578125,-0.00013220775872468948,0.0014433637261390686,-0.000015872996300458908
1772895887725335600,0.18233544921875,0.0014381399378180504,0.0017842678353190422,-0.0007785942871123552
1772895887735303700,0.1923037109375,0.000725477933883667,-0.00002774689346551895,0.0017492780461907387
1772895887745271800,0.202271728515625,-0.0022105909883975983,0.0005741026252508163,-0.004011035896837711
1772895887755239700,0.21223974609375,-0.0006726151332259178,0.0003248313441872597,-0.00022561894729733467
1772895887765208800,0.222208740234375,-0.002025728113949299,0.000500870868563652,-0.0005322599317878485
1772895887775176700,0.2321767578125,-0.0011538099497556686,-0.0026323385536670685,0.0017572594806551933
1772895887785144600,0.24214453125,-0.00015508383512496948,-0.0010373648256063461,0.004282357636839151
1772895887795112700,0.25211279296875,0.0010667741298675537,-0.001343362033367157,0.0011534099467098713
1772895887805080600,0.26208056640625,0.0006919223815202713,-0.0013652173802256584,-0.0014282306656241417
1772895887815049700,0.2720498046875,-0.00027800071984529495,-0.00098438560962677,-0.0005776169709861279
1772895887825017600,0.282017578125,-0.003407335840165615,0.0010529514402151108,-0.002381098922342062
1772895887834985700,0.29198583984375,-0.0018078405410051346,-0.0008131256327033043,0.00031242193654179573
1772895887844953900,0.301953857421875,-0.00028563104569911957,0.0006337640807032585,0.0013602208346128464
1772895887854921500,0.31192138671875,0.002454495057463646,-0.0009865034371614456,-0.0013921558856964111
1772895887864890600,0.321890625,-0.000036903657019138336,0.0031118355691432953,-0.002238242421299219
1772895887874858500,0.3318583984375,-0.0011948468163609505,-0.00001657940447330475,-0.0009900187142193317
1772895887884826600,0.34182666015625,0.0018434273079037666,-0.002131642773747444,0.0009748688898980618
1772895887894794800,0.351794677734375,0.001540360040962696,-0.001577172428369522,-0.0011039944365620613
1772895887904762600,0.3617626953125,0.0005864817649126053,-0.001767612062394619,0.0010248124599456787
1772895887914731800,0.371731689453125,-0.0001626657322049141,0.0007714461535215378,-0.0002196826972067356
1772895887924700000,0.381699951171875,-0.0009724590927362442,-0.0008472120389342308,0.0008171298541128635
1772895887934667500,0.39166748046875,-0.00006938166916370392,-0.00036517996340990067,-0.002201829571276903
1772895887944635600,0.4016357421875,0.0004695402458310127,-0.0007925946265459061,-0.0012760323006659746
1772895887954604500,0.4116044921875,0.00002079736441373825,0.0010854657739400864,0.0027655810117721558
1772895887964572400,0.421572509765625,-0.001551637426018715,0.00038234516978263855,0.0005109659396111965
1772895887974540500,0.43154052734375,-0.00033111032098531723,-0.0007321881130337715,0.0018076589331030846
1772895887984508400,0.44150830078125,0.0005188174545764923,0.0009943535551428795,0.0006117955781519413
1772895887994476500,0.4514765625,0.0005624936893582344,0.0003610532730817795,0.0011918316595256329
1772895888004445400,0.461445556640625,0.0005724495276808739,0.0018821675330400467,0.0007784031331539154
1772895888014413600,0.47141357421875,0.0007849698886275291,-0.0016792770475149155,-0.0019396189600229263
1772895888024381400,0.48138134765625,0.0029224129393696785,0.0003684377297759056,-0.0019147228449583054
1772895888034349600,0.491349609375,0.002731197513639927,-0.00045767519623041153,-0.0015349560417234898
1772895888044317400,0.5013173828125,-0.00019140541553497314,0.0012063877657055855,-0.0029084421694278717
1772895888054286600,0.51128662109375,0.0005460241809487343,0.0020623281598091125,0.0007467465475201607
1772895888064254500,0.52125439453125,-0.0007488522678613663,0.00020530633628368378,-0.003404554445296526
1772895888074222600,0.53122265625,0.0016304152086377144,0.0002218177542090416,0.00141523452475667
1772895888084190700,0.541190673828125,0.003159179352223873,-0.00042318273335695267,-0.0007835642900317907
1772895888094158300,0.551158447265625,0.001021992415189743,-0.001166471280157566,0.001563479658216238
1772895888104127500,0.56112744140625,0.0006071347743272781,0.0018798932433128357,0.00009421771392226219
1772895888114095400,0.571095458984375,0.0003245733678340912,0.00033259764313697815,0.0005831741727888584
1772895888124063500,0.5810634765625,0.00013391952961683273,-0.0009254151955246925,0.0007874518632888794
1772895888134031600,0.591031494140625,0.0020809564739465714,-0.00099998340010643,0.001708372961729765
1772895888144000500,0.60100048828125,-0.00018265284597873688,-0.0006656069308519363,-0.00045990198850631714
1772895888153968600,0.61096875,0.000918031670153141,-0.00017292238771915436,-0.00447967741638422
1772895888163936500,0.6209365234375,-0.0017703399062156677,-0.0006084693595767021,-0.0003662982489913702
1772895888173904400,0.630904296875,-0.0016797920688986778,-0.00015466660261154175,-0.0010331538505852222
1772895888183872500,0.64087255859375,0.001494055613875389,0.0007374295964837074,0.001711381133645773
1772895888193841400,0.65084130859375,0.0011555682867765427,0.0009371666237711906,0.0020155138336122036
1772895888203809500,0.6608095703125,0.002026911824941635,-0.0003524208441376686,-0.0005315281450748444
1772895888213777700,0.670777587890625,0.0008737631142139435,0.001475573517382145,0.0018844916485249996
1772895888223745500,0.68074560546875,-0.0011959746479988098,-0.001872350461781025,0.0013375603593885899
1772895888233713400,0.69071337890625,0.0029210057109594345,-0.0009237322956323624,0.001786835491657257
1772895888243682300,0.700682373046875,-0.00013176072388887405,0.001555372029542923,0.0008931746706366539
1772895888253650400,0.710650390625,0.0018991660326719284,-0.00015837233513593674,0.0008745328523218632
1772895888263618600,0.72061865234375,-0.0011868569999933243,0.0013812733814120293,-0.0012037840206176043
1772895888273586400,0.73058642578125,-0.0010752705857157707,-0.0005279472097754478,0.0008537741377949715
1772895888283555600,0.7405556640625,-0.0016041984781622887,-0.0009921062737703323,0.0017916285432875156
1772895888293523500,0.7505234375,-0.00023373588919639587,-0.0010512284934520721,-0.002976495074108243
1772895888303491600,0.76049169921875,0.001559363678097725,-0.002833922393620014,0.002222067676484585
1772895888313459500,0.77045947265625,-0.00004465784877538681,-0.0010032663121819496,0.0007219091057777405
1772895888323427300,0.78042724609375,-0.0008340412750840187,-0.001563074067234993,0.0006727045401930809
1772895888333396500,0.790396484375,-0.0033051883801817894,0.002057492733001709,0.0006031962111592293
1772895888343364400,0.8003642578125,-0.00017434265464544296,-0.0010510021820664406,0.001272028312087059
1772895888353332500,0.81033251953125,0.0022898800671100616,0.0010142792016267776,0.0006339349783957005
1772895888363300600,0.820300537109375,0.0013972902670502663,-0.0010925326496362686,0.0006497446447610855
1772895888373269500,0.83026953125,0.0010910267010331154,-0.002039286307990551,0.003449259325861931
1772895888383237600,0.840237548828125,-0.001100347377359867,-0.0017997557297348976,0.0026261815801262856
1772895888393205500,0.85020556640625,0.0003334982320666313,0.0018064314499497414,-0.002987495856359601
1772895888403173400,0.86017333984375,-0.0018550772219896317,0.0007611196488142014,0.0027089491486549377
1772895888413141500,0.8701416015625,-0.00020125415176153183,-0.0020021768286824226,-0.00024023512378335
1772895888423110400,0.8801103515625,0.00020719319581985474,0.0012091714888811111,-0.0003820376005023718
1772895888433078500,0.89007861328125,-0.0008101342245936394,0.0003226054832339287,-0.0007410317193716764
1772895888443046700,0.900046630859375,0.0006447592750191689,-0.0014105038717389107,-0.0019221075344830751
1772895888453014500,0.9100146484375,-0.0009861607104539871,0.0018452098593115807,-0.00038120243698358536
1772895888462982400,0.919982421875,0.0016161426901817322,0.0019953763112425804,0.001056951005011797
1772895888472951300,0.929951416015625,-0.0010355673730373383,-0.0002672458067536354,-0.000558256171643734
1772895888482919400,0.93991943359375,-0.0011657625436782837,-0.0020066462457180023,-0.0007029161788523197
1772895888492887600,0.949887451171875,-0.000651240348815918,0.0004919311031699181,0.002262247260659933
1772895888502855400,0.95985546875,0.0004939660429954529,0.002083791419863701,0.00120219262316823
1772895888512824600,0.969824462890625,0.0019019786268472672,-0.0002866871654987335,0.0014235014095902443
1772895888522792700,0.979792724609375,-0.0018346486613154411,0.0011803396046161652,0.0024334988556802273
1772895888532760300,0.98976025390625,0.00020906142890453339,-0.010227310471236706,-0.015629924833774567
1772895888542728400,0.999728515625,0.00012348778545856476,0.008823368698358536,0.01449505239725113
1772895888552696600,1.009696533203125,0.00047289393842220306,-0.00207348819822073,-0.0076240976341068745
1772895888562665500,1.01966552734375,0.00037468504160642624,0.004431522451341152,0.009948039427399635
1772895888572633600,1.029633544921875,0.0017669852823019028,-0.003830402158200741,-0.00945841521024704
1772895888582601500,1.0396015625,0.001103866845369339,0.004683460108935833,0.008968567475676537
1772895888592569600,1.049569580078125,-0.0011595534160733223,-0.0051534585654735565,-0.01002323254942894
1772895888602537500,1.059537353515625,-0.00108366459608078,0.006007581017911434,0.008030562661588192
1772895888612506400,1.06950634765625,0.0017661834135651588,-0.0013502007350325584,-0.006222142372280359
1772895888622474500,1.079474609375,0.0018704747781157494,0.0029580174013972282,0.005145644769072533
1772895888632442400,1.0894423828125,0.0018896497786045074,-0.00386260449886322,-0.0018201195634901524
1772895888642410500,1.099410400390625,-0.00037519820034503937,0.0018871501088142395,0.0033091260120272636
1772895888652379400,1.10937939453125,-0.0016567111015319824,-0.0006170198321342468,-0.005125904455780983
1772895888662347500,1.119347412109375,-0.0032165367156267166,0.003165464848279953,0.004887276794761419
1772895888672315600,1.129315673828125,0.0005148183554410934,-0.002844756469130516,-0.0011794045567512512
1772895888682283500,1.139283447265625,0.001371690072119236,-0.0037195859476923943,-0.0012282119132578373
1772895888692251400,1.14925146484375,0.0004909820854663849,-0.002943274565041065,-0.00001567462459206581
1772895888702220500,1.159220458984375,-0.0018129842355847359,0.002496488392353058,0.0003438885323703289
1772895888712188400,1.1691884765625,-0.0020404187962412834,0.0024048760533332825,-0.0017869067378342152
1772895888722156500,1.179156494140625,0.0005756709724664688,0.0019060764461755753,-0.00001221243292093277
1772895888732124700,1.189124755859375,-0.0007628342136740685,-0.001959502696990967,0.0005052397027611732
1772895888742093600,1.199093505859375,-0.0010578585788607597,-0.0008894363418221474,-0.0012498206924647093
1772895888752061700,1.209061767578125,-0.0001574438065290451,0.00037636421620845795,-0.00093077402561903
1772895888762029300,1.219029296875,0.0004756515845656395,0.0015806183218955994,0.0015181112103164196
1772895888771997400,1.22899755859375,0.002217625267803669,-0.000333394855260849,-0.0032239132560789585
1772895888781965600,1.238965576171875,-0.0009073251858353615,-0.0017158398404717445,0.0008603492751717567
1772895888791934500,1.2489345703125,0.0008943034335970879,-0.0006985124200582504,-0.0023514230269938707
1772895888801902600,1.258902587890625,-0.000052842311561107635,-0.0006854431703686714,-0.0006267561111599207
1772895888811870500,1.268870361328125,-0.0009279577061533928,-0.0013874517753720284,-0.0015514055266976357
1772895888821838600,1.278838623046875,0.0020108846947550774,-0.0004753461107611656,-0.003342843847349286
1772895888831807500,1.288807373046875,-0.003213171847164631,-0.0017560608685016632,-0.0037162189837545156
1772895888841775400,1.298775390625,-0.0006548650562763214,0.0021952828392386436,0.0028951195999979973
1772895888851743500,1.308743408203125,0.00044874846935272217,0.0009835446253418922,-0.00019867438822984695
1772895888861711600,1.318711669921875,0.000057083554565906525,-0.0019696559756994247,-0.002959619741886854
1772895888871679500,1.328679443359375,-0.000052372924983501434,0.00007884763181209564,-0.0015856949612498283
1772895888881648600,1.338648681640625,-0.0001700306311249733,-0.0005485834553837776,-0.003381459740921855
1772895888891616500,1.348616455078125,-0.00014792568981647491,0.0010999133810400963,-0.0028152717277407646
1772895888901584400,1.35858447265625,0.00019863713532686234,-0.000684923492372036,0.002878418657928705
1772895888911552500,1.368552490234375,-0.0011867396533489227,0.00019391998648643494,0.00033403467386960983
1772895888921520400,1.378520263671875,0.0016722753643989563,-0.0010127751156687737,-0.0020054816268384457
1772895888931489500,1.388489501953125,0.0007497565820813179,-0.0007555140182375908,0.0019253441132605076
1772895888941457400,1.39845751953125,-0.00022956635802984238,-0.0025752587243914604,0.0007443046197295189
1772895888951425500,1.408425537109375,-0.0005078669637441635,-0.00022555235773324966,0.0008633481338620186
1772895888961393400,1.418393310546875,0.0003133872523903847,-0.00022259168326854706,0.0010750791989266872
1772895888971362300,1.4283623046875,0.000008988194167613983,0.0008786255493760109,-0.002855213824659586
1772895888981330400,1.438330322265625,0.002252403646707535,-0.0017421934753656387,-0.0013601533137261868
1772895888991298300,1.44829833984375,0.00020123645663261414,0.0010045906528830528,-0.0011327194515615702
1772895889001266200,1.45826611328125,0.00046886783093214035,-0.0001922333613038063,0.0002286885865032673
1772895889011234300,1.468234375,0.0018350696191191673,0.0003065764904022217,-0.0018009066116064787
1772895889021203200,1.478203125,0.0018417350947856903,0.0012583928182721138,-0.0017451697494834661
1772895889031171300,1.48817138671875,0.002718714065849781,0.002795835956931114,-0.0012309132143855095
1772895889041139500,1.498139404296875,0.0016041817143559456,0.0016139261424541473,-0.0014705595094710588
1772895889051107300,1.508107421875,0.00024783331900835037,-0.002063099294900894,0.0018203086219727993
1772895889061076500,1.518076416015625,-0.0006641224026679993,0.0007068431004881859,-0.0007882595527917147
1772895889071044000,1.528044189453125,-0.00041751284152269363,-0.0009488444775342941,0.00021335529163479805
1772895889081012200,1.53801220703125,0.0014028660953044891,0.0013092318549752235,0.002208094112575054
1772895889090980400,1.54798046875,-0.0010152840986847878,-0.0019214488565921783,-0.0007530748844146729
1772895889100948200,1.5579482421875,-0.0017957696691155434,-0.0008622957393527031,0.0011064638383686543
1772895889110917400,1.56791748046875,-0.0008745826780796051,-0.00021567940711975098,0.00010378379374742508
1772895889120885200,1.57788525390625,-0.0012441733852028847,-0.0010918499901890755,0.0000750240869820118
1772895889130853000,1.58785302734375,0.00022962037473917007,0.0017630597576498985,-0.003557794028893113
1772895889140821200,1.5978212890625,-0.00007982924580574036,-0.0011256439611315727,-0.003116621170192957
1772895889150789400,1.607789306640625,0.001714874990284443,0.0018741413950920105,-0.0015711889136582613
1772895889160758300,1.61775830078125,-0.00117513258010149,-0.000049037858843803406,-0.0018386519514024258
1772895889170726400,1.627726318359375,-0.001071002334356308,-0.0015686368569731712,-0.0002809688448905945
1772895889180694300,1.6376943359375,0.00045327283442020416,-0.0005127536132931709,0.0004132082685828209
1772895889190662400,1.647662353515625,0.0015153409913182259,0.00021029449999332428,-0.0004656347446143627
1772895889200631300,1.65763134765625,-0.000026782043278217316,-0.0008250512182712555,-0.0004497868940234184
1772895889210599200,1.66759912109375,0.0019194558262825012,0.0015717940405011177,0.0007995017804205418
1772895889220567300,1.6775673828125,0.0009343251585960388,-0.000918341800570488,-0.0009642464574426413
1772895889230535200,1.68753515625,0.0017186254262924194,0.0038748150691390038,0.0006219320930540562
1772895889240503300,1.69750341796875,-0.00218348391354084,-0.0014505377039313316,0.0031917872838675976
1772895889250472200,1.70747216796875,0.0005989866331219673,0.0007542930543422699,0.0013792398385703564
1772895889260440300,1.7174404296875,0.001581878401339054,-0.0030891429632902145,-0.000588318333029747
1772895889270408400,1.727408447265625,-0.0004269443452358246,-0.002483007498085499,-0.00045462767593562603
1772895889280376300,1.737376220703125,0.000012075528502464294,0.000800279900431633,-0.0017990157939493656
1772895889290345200,1.74734521484375,0.0008107582107186317,-0.0012221252545714378,0.00011393288150429726
1772895889300313300,1.757313232421875,-0.0020210687071084976,-0.000375860370695591,-0.00286711473017931
1772895889310281200,1.76728125,-0.0006612585857510567,-0.0008733393624424934,-0.000510483281686902
1772895889320249300,1.777249267578125,-0.0014476105570793152,0.0010235663503408432,0.0014525176957249641
1772895889330217500,1.787217529296875,0.0014033028855919838,0.001185487024486065,0.001234937459230423
1772895889340186400,1.797186279296875,-0.0011325348168611526,-0.001992427743971348,-0.0005390248261392117
1772895889350154500,1.807154541015625,-0.001230006106197834,-0.00041450560092926025,-0.000998153816908598
1772895889360122000,1.8171220703125,0.0009739324450492859,-0.00183914415538311,0.0030060564167797565
1772895889370090200,1.82709033203125,0.0005480926483869553,-0.0012162309139966965,0.001066476572304964
1772895889380059100,1.83705908203125,-0.00039604678750038147,0.0012821750715374947,0.0002211085520684719
1772895889390027300,1.84702734375,-0.0012423992156982422,-0.0010150671005249023,0.0009731855243444443
1772895889399995400,1.856995361328125,-0.0009952252730727196,0.0003408510237932205,0.0008813587483018637
1772895889409963300,1.86696337890625,-0.0007896283641457558,0.0016519250348210335,-0.001714424230158329
1772895889419931100,1.87693115234375,0.0005715843290090561,0.0009105708450078964,0.0005967547185719013
1772895889429900300,1.886900390625,0.0014211330562829971,-0.0018021250143647194,-0.0012469517532736063
1772895889439868200,1.8968681640625,-0.0003093890845775604,-0.00003218743950128555,-0.0010085988324135542
1772895889449836300,1.906836181640625,-0.0008310619741678238,0.0011860039085149765,-0.002778930589556694
1772895889459804400,1.916804443359375,-0.001178777776658535,-0.00006335042417049408,0.0012632636353373528
1772895889469773300,1.926773193359375,0.0006979517638683319,-0.0010524485260248184,0.0004504667595028877
1772895889479741400,1.936741455078125,-0.001496102660894394,-0.0004285350441932678,-0.003148175310343504
1772895889489709300,1.946709228515625,0.0019481638446450233,0.0003584297373890877,0.002066560322418809
1772895889499677200,1.95667724609375,-0.000731627456843853,0.0002338811755180359,0.0009780870750546455
1772895889509645300,1.966645263671875,-0.0015361690893769264,-0.0009405734017491341,-0.0014259484596550465
1772895889519614200,1.9766142578125,0.00024846382439136505,0.002105305902659893,-0.00011804490350186825
1772895889529582300,1.986582275390625,-0.0006985561922192574,-0.0007820939645171165,0.0009221856016665697
1772895889539550200,1.99655029296875,-0.00013044383376836777,-0.0009659584611654282,-0.00038671214133501053
1772895889549518300,2.006518310546875,0.0021231230348348618,-0.00043732114136219025,0.0005608405917882919
1772895889559487200,2.0164873046875,0.00017612893134355545,-0.00015913508832454681,0.002924913540482521
1772895889569455400,2.026455322265625,0.0005423137918114662,0.00046990346163511276,-0.0010671650525182486
1772895889579423200,2.03642333984375,0.0013675317168235779,-0.0001250840723514557,-0.0026011262089014053
1772895889589391000,2.04639111328125,-0.001014932058751583,-0.002433512359857559,-0.0016639598179608583
1772895889599359200,2.056359130859375,-0.000667954795062542,0.0008080834522843361,-0.002092044334858656
1772895889609328400,2.066328369140625,0.00036455225199460983,-0.0007037930190563202,0.0025857980363070965
1772895889619296300,2.076296142578125,-0.001170906238257885,-0.0008563762530684471,0.0012562340125441551
1772895889629264400,2.086264404296875,-0.00011096801608800888,-0.0017615845426917076,0.0051274048164486885
1772895889639232500,2.096232421875,-0.0012457948178052902,-0.0003807432949542999,0.0005772043950855732
1772895889649201400,2.106201416015625,-0.0022370237857103348,0.000051754526793956757,0.002203596755862236
1772895889659169300,2.116169189453125,-0.0007045520469546318,0.001261373981833458,0.0011737900786101818
1772895889669137200,2.12613720703125,0.0003322167322039604,0.00037880241870880127,-0.00016764411702752113
1772895889679105300,2.136105224609375,0.000507064163684845,-0.0008963355794548988,0.0014117248356342316
1772895889689073400,2.146073486328125,0.0010479521006345749,-0.0018643951043486595,-0.000669002765789628
1772895889699042300,2.156042236328125,0.00020425114780664444,0.0016067670658230782,-0.0006490678060799837
1772895889709010400,2.166010498046875,-0.002311103977262974,-0.001971455290913582,-0.00046451063826680183
1772895889718978300,2.175978271484375,0.0011216988787055016,-0.0011735735461115837,0.0005671600811183453
1772895889728946200,2.1859462890625,0.00005403812974691391,-0.0005479967221617699,0.0018707774579524994
1772895889738915300,2.195915283203125,-0.00025627389550209045,-0.000604730099439621,-0.0018338707741349936
1772895889748883200,2.20588330078125,-0.0011732010170817375,-0.0005719726905226707,-0.0011774017475545406
1772895889758851300,2.215851318359375,0.0003860360011458397,0.0009833071380853653,0.0009809373877942562
1772895889768819500,2.2258193359375,-0.001181500032544136,0.0003095269203186035,-0.000341588631272316
1772895889778788400,2.235788330078125,-0.0008906973525881767,-0.0012811440974473953,0.0007748864591121674
1772895889788756500,2.245756591796875,-0.0018398482352495193,-0.002048133872449398,0.004360300488770008
1772895889798724000,2.25572412109375,-0.00034199561923742294,0.00215217936784029,0.0022619194351136684
1772895889808692200,2.265692138671875,0.0004899762570858002,0.0008347136899828911,0.001889343373477459
1772895889818660400,2.275660400390625,-0.0011049704626202583,-0.00011386536061763763,0.0002423655241727829
1772895889828629200,2.285629150390625,-0.001006966456770897,0.0012528691440820694,-0.0008727000094950199
1772895889838597400,2.295597412109375,-0.00020626559853553772,0.0018451409414410591,0.00034505221992731094
1772895889848565200,2.305565185546875,-0.0005215834826231003,0.00007919874042272568,-0.00003498094156384468
1772895889858533400,2.315533447265625,-0.0020278673619031906,-0.0005349256098270416,-0.0018632409628480673
1772895889868502300,2.325502197265625,0.0004922812804579735,-0.001229744404554367,-0.00004563364200294018
1772895889878470100,2.33547021484375,-0.002265564166009426,0.00031756889075040817,0.00040964968502521515
1772895889888438300,2.345438232421875,0.0007539279758930206,0.0019365036860108376,-0.001670545432716608
1772895889898406100,2.35540625,0.0012852288782596588,-0.0017644912004470825,-0.0004167291335761547
1772895889908374300,2.365374267578125,-0.0007331809028983116,-0.0008717989549040794,0.00012389244511723518
1772895889918343400,2.375343505859375,-0.0009312722831964493,-0.0008292533457279205,0.0007099751383066177
1772895889928311300,2.385311279296875,-0.001007971353828907,-0.0009387098252773285,-0.000857561593875289
1772895889938279400,2.395279541015625,0.0007114959880709648,-0.0002654455602169037,0.0008473233319818974
1772895889948247300,2.405247314453125,-0.000031791627407073975,-0.002759229391813278,-0.000048297690227627754
1772895889958216200,2.41521630859375,0.0019447263330221176,0.00022353604435920715,-0.0003230203874409199
1772895889968183800,2.425183837890625,0.0005183368921279907,-0.0006715524941682816,-0.0027251916471868753
1772895889978151700,2.435151611328125,-0.0011176252737641335,0.0015705227851867676,-0.0023246072232723236
1772895889988119800,2.445119873046875,0.0024582017213106155,-0.001058550551533699,0.0006251097656786442
1772895889998088000,2.455087890625,-0.0003353133797645569,0.0013676928356289864,-0.0011198651045560837
1772895890008056800,2.465056884765625,0.0022301096469163895,0.0003335876390337944,0.0029507766012102365
1772895890018025000,2.47502490234375,0.00001567509025335312,0.0009260280057787895,0.003259816439822316
1772895890027993000,2.4849931640625,0.0010005123913288116,-0.00028650928288698196,0.0009764221031218767
1772895890037960700,2.494960693359375,0.0012151217088103294,0.0010659536346793175,0.0009627244435250759
1772895890047929900,2.504929931640625,-0.0006885062903165817,-0.00030770525336265564,-0.0008173326496034861
1772895890057897700,2.514897705078125,0.0004930654540657997,0.0011161798611283302,0.0017396253533661366
1772895890067865900,2.524865966796875,0.000009169802069664001,0.00038114748895168304,-0.0018788116285577416
1772895890077834000,2.534833984375,0.0016026999801397324,0.0016799317672848701,0.0006858990527689457
1772895890087801900,2.5448017578125,-0.00043089035898447037,-0.0002894764766097069,0.0005514095537364483
1772895890097771000,2.55477099609375,0.0015410808846354485,0.0031901784241199493,-0.001424912130460143
1772895890107739000,2.56473876953125,0.0002300068736076355,-0.00019416678696870804,0.0006113406270742416
1772895890117706800,2.574706787109375,0.0006632348522543907,0.0010559475049376488,-0.0012749363668262959
1772895890127675000,2.5846748046875,-0.0001780577003955841,-0.0015638042241334915,0.0015213824808597565
1772895890137643800,2.594643798828125,0.0008177878335118294,-0.000046255066990852356,-0.0007382042240351439
1772895890147612000,2.60461181640625,0.0007895585149526596,-0.00075545534491539,-0.000022080261260271072
1772895890157579800,2.614579833984375,-0.0004841051995754242,0.0011074421927332878,0.001401220913976431
1772895890167548000,2.6245478515625,-0.0012055551633238792,0.0002682805061340332,0.001857952680438757
1772895890177517000,2.63451708984375,0.0004511578008532524,0.0006422568112611771,-0.0030820004176348448
1772895890187485000,2.64448486328125,-0.0004133051261305809,0.00009550992399454117,-0.000357586657628417
1772895890197452800,2.654452880859375,-0.003267234191298485,0.0013972949236631393,-0.000874578719958663
1772895890207421000,2.6644208984375,0.000516585074365139,0.0008201878517866135,0.001531853573396802
1772895890217388800,2.674388916015625,0.00140343327075243,-0.0011284975335001945,0.0017722919583320618
1772895890227358000,2.68435791015625,0.0008838502690196037,-0.0004581799730658531,0.0016180952079594135
1772895890237325800,2.694325927734375,-0.0012151403352618217,-0.002008628100156784,0.0008738464675843716
1772895890247294000,2.7042939453125,0.0007960787042975426,-0.0004309713840484619,-0.0020737401209771633
1772895890257262000,2.714261962890625,-0.00040195882320404053,-0.0007295198738574982,-0.0007890257984399796
1772895890267231000,2.72423095703125,0.00020444300025701523,-0.0005265865474939346,0.0018054256215691566
1772895890277198800,2.73419873046875,0.0007291529327630997,0.001357426866889,0.001877455273643136
1772895890287166700,2.744166748046875,-0.00030468590557575226,-0.00031956564635038376,-0.0021058348938822746
1772895890297134800,2.754134765625,-0.0033043837174773216,0.00220696534961462,0.0017947242595255375
1772895890307104000,2.76410400390625,0.00006371643394231796,0.0007611354812979698,-0.0009227651171386242
1772895890317072000,2.77407177734375,-0.0005735624581575394,0.0020027579739689827,0.0010090211872011423
1772895890327040000,2.7840400390625,0.0004118075594305992,0.001330575905740261,-0.0002807476557791233
1772895890337007900,2.7940078125,-0.0007430361583828926,0.0007004262879490852,-0.0011732322163879871
1772895890346975700,2.803975830078125,-0.0007797880098223686,-0.001790960319340229,0.0015999171882867813
1772895890356945000,2.81394482421875,-0.00023974571377038956,0.002727051265537739,0.0009155103471130133
1772895890366912800,2.823912841796875,0.00010433513671159744,-0.0022610481828451157,0.003342182608321309
1772895890376881000,2.833880859375,-0.00036943797022104263,-0.0017334353178739548,0.001777465222403407
1772895890386849000,2.84384912109375,0.001283053308725357,0.002222423441708088,-0.0015554807614535093
1772895890396818000,2.85381787109375,-0.0010334905236959457,0.00011166278272867203,0.0010291894432157278
1772895890406786000,2.8637861328125,0.0013420488685369492,0.0001012757420539856,0.0037352272775024176
1772895890416753700,2.873753662109375,0.0016240999102592468,0.0001014266163110733,0.0018871806096285582
1772895890426721800,2.8837216796875,0.00024404935538768768,-0.001246131956577301,-0.0009789131581783295
1772895890436690000,2.89368994140625,0.0003494834527373314,-0.0014764945954084396,-0.0005609192885458469
1772895890446658800,2.903658935546875,0.0006554806604981422,-0.0002154875546693802,-0.0014176582917571068
1772895890456627000,2.913626953125,0.0016345996409654617,0.0008196765556931496,0.000606463523581624
1772895890466594800,2.9235947265625,-0.0011247014626860619,0.0002987617626786232,0.001491432311013341
1772895890476563000,2.93356298828125,-0.0004698401317000389,-0.00023891031742095947,0.0016254496295005083
1772895890486532000,2.943531982421875,-0.0011145910248160362,0.0011086491867899895,0.0004219671245664358
1772895890496499700,2.953499755859375,-0.00026303157210350037,-0.002038668841123581,-0.0002777986228466034
1772895890506467800,2.9634677734375,0.002012639306485653,0.00014139432460069656,-0.0010748826898634434
1772895890516436000,2.97343603515625,-0.00046013668179512024,-0.0003666440024971962,-0.0012774653732776642
1772895890526404900,2.98340478515625,-0.0002622632309794426,0.0009689312428236008,-0.0020452546887099743
1772895890536373000,2.993373046875,0.0016844496130943298,-0.0002599107101559639,0.0009443263988941908
1772895890546340900,3.0033408203125,0.0013954965397715569,0.00044635962694883347,-0.0010045748203992844
1772895890556309000,3.01330908203125,0.00012804754078388214,-0.0007306830957531929,0.000624882522970438
1772895890566278000,3.02327783203125,0.00018929969519376755,-0.001002059318125248,0.0008214241825044155
1772895890576245800,3.033245849609375,0.0001575341448187828,-0.0011601578444242477,0.0015822646673768759
1772895890586214000,3.0432138671875,-0.0001692362129688263,-0.0017276778817176819,-0.0011051311157643795
1772895890596181800,3.053181640625,0.00100027397274971,0.000701582059264183,0.0018050698563456535
1772895890606150000,3.06314990234375,-0.0013795262202620506,0.0006485851481556892,0.0009901425801217556
1772895890616118800,3.073118896484375,0.0006614532321691513,-0.0007288260385394096,-0.0006111017428338528
1772895890626087000,3.0830869140625,0.00001723412424325943,-0.0007594525814056396,0.00022007105872035027
1772895890636055000,3.093054931640625,-0.00172457005828619,0.0024740593507885933,0.0005436777137219906
1772895890646023000,3.10302294921875,0.00032313447445631027,-0.0001781834289431572,-0.0007170627359300852
1772895890655991800,3.11299169921875,-0.0005338257178664207,0.0005689468234777451,0.0004115677438676357
1772895890665960000,3.1229599609375,-0.002059018239378929,-0.0016452055424451828,-0.0006811271887272596
1772895890675927800,3.132927734375,-0.0009651593863964081,-0.0037949727848172188,0.0009174826554954052
1772895890685896000,3.14289599609375,0.001111307181417942,-0.00009877141565084457,0.00033052172511816025
1772895890695864800,3.15286474609375,0.00012901891022920609,-0.0016921134665608406,0.0017380109056830406
1772895890705833000,3.1628330078125,0.0024414416402578354,-0.0016787974163889885,0.00015928875654935837
1772895890715800800,3.17280078125,-0.0017465567216277122,0.0001393994316458702,0.0007338905707001686
1772895890725768700,3.182768798828125,0.0007797172293066978,0.00027122534811496735,-0.0005103384610265493
1772895890735736800,3.19273681640625,-0.0005280012264847755,0.0011347904801368713,-0.001356316264718771
1772895890745705700,3.202705810546875,-0.00037220679223537445,0.0009414451196789742,-0.0006937216967344284
1772895890755673900,3.212673828125,-0.00029064249247312546,-0.0009784819558262825,0.0003746307920664549
1772895890765642000,3.22264208984375,0.0003892621025443077,0.00003272015601396561,-0.006070218980312347
1772895890775609900,3.23260986328125,-0.0014415876939892769,0.0007222751155495644,-0.00013435352593660355
1772895890785579000,3.2425791015625,0.00027055852115154266,-0.0009552501142024994,0.0023959160316735506
1772895890795547000,3.252546875,0.00007153768092393875,-0.0013866927474737167,0.0012427826877683401
1772895890805514800,3.2625146484375,0.0006747441366314888,0.0012141503393650055,0.0007711367215961218
1772895890815483000,3.27248291015625,-0.001837942749261856,0.0003600800409913063,0.0009294967167079449
1772895890825451800,3.28245166015625,0.00039724819362163544,-0.001921449787914753,-0.0001016794703900814
1772895890835420000,3.292419921875,-0.0015266509726643562,0.0007697073742747307,0.0005027679726481438
1772895890845388000,3.302387939453125,0.0016329232603311539,-0.0003866367042064667,-0.0018192422576248646
1772895890855356000,3.31235595703125,0.0001030992716550827,-0.0006702188402414322,0.0008579737041145563
1772895890865325000,3.322324951171875,0.0005555702373385429,-0.00023212935775518417,0.002318185055628419
1772895890875292700,3.332292724609375,0.00032393261790275574,0.0007057962939143181,0.00006353785283863544
1772895890885260800,3.3422607421875,-0.0004454543814063072,0.0018509551882743835,0.002112307818606496
1772895890895229000,3.35222900390625,-0.000036261044442653656,-0.0002553146332502365,0.0005302468780428171
1772895890905196800,3.36219677734375,-0.0007233573123812675,0.0010307254269719124,0.0006410346832126379
1772895890915166000,3.372166015625,-0.0008453624323010445,-0.00014863908290863037,-0.0009102572221308947
1772895890925133800,3.3821337890625,0.0018425658345222473,0.0013113059103488922,0.0009590154513716698
1772895890935102000,3.39210205078125,-0.00026613008230924606,-0.0006304029375314713,-0.0002910913899540901
1772895890945069800,3.40206982421875,-0.0015353923663496971,-0.0008075032383203506,-0.000003203749656677246
1772895890955038700,3.412038818359375,-0.0031862612813711166,-0.0007725059986114502,-0.0007546818815171719
1772895890965006800,3.4220068359375,0.0013152798637747765,-0.00004572886973619461,0.0004988680593669415
1772895890974975000,3.43197509765625,0.0015901317819952965,-0.00011705607175827026,0.0011375988833606243
1772895890984942600,3.441942626953125,-0.0014179088175296783,-0.0018917862325906754,0.0017570499330759048
1772895890994912000,3.451912109375,0.0014207782223820686,-0.000566655769944191,-0.00046614184975624084
1772895891004879600,3.461879638671875,-0.001217881217598915,0.002105027437210083,0.0009685028344392776
1772895891014847700,3.47184765625,-0.000012126751244068146,0.000002382323145866394,0.0010034632869064808
1772895891024815900,3.48181591796875,-0.00010507088154554367,-0.001319611445069313,0.0018657948821783066
1772895891034784800,3.49178466796875,0.0006814468652009964,0.0016471194103360176,-0.0020394083112478256
1772895891044753000,3.5017529296875,-0.0020493585616350174,0.0007480354979634285,-0.0009224785026162863
1772895891054720800,3.511720703125,-0.003269004635512829,-0.0008449619635939598,0.0009652888402342796
1772895891064688600,3.521688720703125,-0.0018993401899933815,0.0030800048261880875,0.0003090859390795231
1772895891074656800,3.53165673828125,0.00017030909657478333,-0.0006136465817689896,0.0040792361833155155
1772895891084625700,3.541625732421875,-0.002037983387708664,0.00015547405928373337,0.0007833079434931278
1772895891094593800,3.55159375,0.0016302913427352905,-0.0013082940131425858,-0.0001877439208328724
1772895891104562000,3.56156201171875,0.0001903204247355461,-0.0011636847630143166,0.002587802242487669
1772895891114529800,3.57152978515625,-0.00037211552262306213,-0.00009832624346017838,0.0008103447034955025
1772895891124499000,3.5814990234375,-0.0005577374249696732,-0.0005185725167393684,0.003001060802489519
1772895891134466800,3.591466796875,-0.00003434624522924423,0.0002058669924736023,0.00014393962919712067
1772895891144434700,3.6014345703125,-0.0008077286183834076,0.001082579605281353,0.0004728403873741627
1772895891154402800,3.61140283203125,-0.002186933532357216,-0.0002669822424650192,-0.0012701100204139948
1772895891164371700,3.621371826171875,0.0012618601322174072,0.002249704673886299,-0.0003920658491551876
1772895891174339800,3.63133984375,0.0014077955856919289,0.00007340218871831894,-0.0038278354331851006
1772895891184307700,3.6413076171875,-0.00025801174342632294,-0.0010182270780205727,0.0016777173150330782
1772895891194275800,3.65127587890625,-0.0006384775042533875,-0.0002691224217414856,-0.0010615272913128138
1772895891204244700,3.66124462890625,0.0007658079266548157,-0.0006070779636502266,0.0015358536038547754
1772895891214212900,3.671212890625,-0.00042053498327732086,0.00013265758752822876,0.0020760539919137955
1772895891224180700,3.6811806640625,0.00007214955985546112,0.0026911571621894836,-0.0014278669841587543
1772895891234148900,3.69114892578125,-0.0005696089938282967,-0.001150691881775856,-0.0005605800542980433
1772895891244117800,3.70111767578125,-0.0013475175946950912,-0.001679861918091774,-0.0012412839569151402
1772895891254086000,3.7110859375,-0.0007477840408682823,0.00035866815596818924,-0.0008999770507216454
1772895891264053800,3.7210537109375,0.0012855399399995804,0.001415676437318325,-0.0013974555768072605
1772895891274022000,3.73102197265625,-0.0013075917959213257,0.0008221454918384552,0.000019085826352238655
1772895891283990000,3.740989990234375,-0.001514785923063755,-0.001967781223356724,-0.0002227292861789465
1772895891293959000,3.750958984375,0.002036444842815399,-0.0002873344346880913,0.00043205288238823414
1772895891303926800,3.7609267578125,0.0009847627952694893,0.001279137097299099,-0.0011887471191585064
1772895891313894700,3.770894775390625,-0.002348517067730427,0.0006331717595458031,-0.000693784561008215
1772895891323862800,3.78086279296875,0.0003386121243238449,-0.002800974063575268,0.0007621652912348509
1772895891333831700,3.790831787109375,0.00006779003888368607,0.0006999345496296883,-0.0007381171453744173
1772895891343799800,3.8007998046875,-0.0011479435488581657,-0.0027584461495280266,-0.0009024341125041246
1772895891353768000,3.810767822265625,0.0007772902026772499,-0.000010173767805099487,0.001251257723197341
1772895891363735600,3.820735595703125,0.000017490237951278687,0.0022087721154093742,0.0010794841218739748
1772895891373705000,3.830705078125,0.0011145751923322678,0.00042005255818367004,-0.0010161502286791801
1772895891383672800,3.8406728515625,-0.0010527055710554123,-0.0020889118313789368,0.0003332733176648617
1772895891393640700,3.850640625,0.00032274238765239716,0.0005150483921170235,0.0002664129715412855
1772895891403608800,3.86060888671875,0.0012236898764967918,-0.0006948253139853477,0.0007143567781895399
1772895891413577700,3.87057763671875,0.0019057495519518852,-0.0001545669510960579,-0.0005625816993415356
1772895891423545900,3.8805458984375,-0.0012434376403689384,0.002292078919708729,-0.0010624569840729237
1772895891433514000,3.890513916015625,0.001862277276813984,0.0007976507768034935,0.0000882619060575962
1772895891443481600,3.900481689453125,-0.0010834448039531708,-0.000625276006758213,0.003095769789069891
1772895891453450800,3.91045068359375,-0.0001692427322268486,-0.00008399877697229385,-0.002934857504442334
1772895891463418600,3.920418701171875,0.0010598059743642807,-0.0006469907239079475,-0.0020818468183279037
1772895891473386800,3.93038671875,0.0002990802749991417,0.00031466688960790634,-0.002076988574117422
1772895891483355000,3.94035498046875,0.00012730620801448822,0.0014760717749595642,-0.0008269008249044418
1772895891493323800,3.95032373046875,-0.001168668270111084,0.0006025722250342369,0.0017090134788304567
1772895891503292000,3.9602919921875,0.0022455044090747833,0.00017673242837190628,-0.0004247112665325403
1772895891513259800,3.970259765625,-0.0010933605954051018,-0.00043978914618492126,0.00026502693071961403
1772895891523227600,3.9802275390625,-0.00023369211703538895,-0.00007839873433113098,0.0012786262668669224
1772895891533196800,3.99019677734375,0.00157142523676157,0.0000028852373361587524,-0.0013776978012174368
1772895891543164700,4.00016455078125,0.00031894072890281677,0.0020931996405124664,-0.0018655890598893166
1772895891553132800,4.0101328125,-0.0037885094061493874,0.00012404751032590866,-0.002146858721971512
1772895891563101000,4.020100830078125,0.0008051767945289612,-0.0013265758752822876,-0.00042006513103842735
1772895891573068800,4.03006884765625,-0.0005119098350405693,0.001611456274986267,0.0009946536738425493
1772895891583038000,4.040037841796875,-0.0000802110880613327,-0.00015848036855459213,0.0009017090778797865
1772895891593005800,4.050005859375,0.002143631689250469,0.002189471386373043,-0.00020500575192272663
1772895891602973700,4.0599736328125,0.0006061885505914688,0.0001737251877784729,0.0008538668043911457
1772895891612941800,4.06994189453125,-0.0008139954879879951,-0.0009585637599229813,0.0035540403332561255
1772895891622910700,4.07991064453125,0.0009807087481021881,-0.00016787182539701462,-0.0002681287005543709
1772895891632878800,4.08987890625,0.0036212624981999397,0.0011687157675623894,-0.0008479799143970013
1772895891642846700,4.0998466796875,-0.001203319989144802,0.0017482200637459755,-0.00131429941393435
1772895891652814800,4.10981494140625,-0.0006997929885983467,0.00209910050034523,-0.0010604073759168386
1772895891662783700,4.11978369140625,-0.0009621148928999901,-0.00031052716076374054,-0.002030863193795085
1772895891672751900,4.129751953125,-0.00017053447663784027,-0.0005942005664110184,-0.00019042356871068478
1772895891682719700,4.1397197265625,-0.0005353875458240509,-0.0007412070408463478,-0.0031736965756863356
1772895891692688000,4.14968798828125,0.0007721129804849625,-0.0012466022744774818,-0.0018604486249387264
1772895891702656800,4.15965673828125,0.0016882410272955894,-0.0010889433324337006,0.00040723313577473164
1772895891712625000,4.169625,-0.0008252672851085663,-0.0008629150688648224,0.0018940034788101912
1772895891722592800,4.1795927734375,-0.0016385968774557114,-0.0003680996596813202,-0.001809920882806182
1772895891732561000,4.189560791015625,-0.0013760309666395187,0.002096140757203102,0.0006467339117079973
1772895891742529800,4.19952978515625,0.002659989520907402,0.0010095704346895218,0.0000813447404652834
1772895891752497700,4.20949755859375,-0.0006979210302233696,0.0013433760032057762,0.0027527299243956804
1772895891762465800,4.2194658203125,-0.00217517651617527,0.0014688102528452873,-0.0008209659717977047
1772895891772433700,4.22943359375,-0.0018807100132107735,0.0010432275012135506,-0.000029768096283078194
1772895891782402800,4.23940283203125,-0.000025285407900810242,-0.0008209859952330589,0.0012189883273094893
1772895891792370700,4.24937060546875,-0.0008706012740731239,0.0005367221310734749,-0.000566770089790225
1772895891802338800,4.2593388671875,0.0014042705297470093,-0.0006033768877387047,0.0013975773472338915
1772895891812307000,4.269306884765625,0.0015341071411967278,0.0025610020384192467,-0.0012538647279143333
1772895891822275800,4.27927587890625,0.00021744053810834885,-0.0004068240523338318,0.001725147245451808
1772895891832243700,4.28924365234375,-0.0009391326457262039,-0.0006903978064656258,-0.0013544128742069006
1772895891842211800,4.2992119140625,-0.0015194350853562355,0.0012057730928063393,0.0017279298044741154
1772895891852179700,4.3091796875,0.001470908522605896,0.0032576052471995354,-0.0011858618818223476
1772895891862148900,4.31914892578125,0.0007622409611940384,0.0000628763809800148,0.00033799861557781696
1772895891872116700,4.32911669921875,-0.000005007721483707428,-0.0004111872985959053,-0.0008601383306086063
1772895891882084900,4.3390849609375,-0.0013847919180989265,0.00009854137897491455,-0.0007110012229532003
1772895891892053000,4.349052978515625,-0.0006939070299267769,0.0007495908066630363,0.000017042038962244987
1772895891902022000,4.35902197265625,-0.0003354456275701523,0.0007706303149461746,0.0012373023200780153
1772895891911989800,4.36898974609375,0.0007931329309940338,0.0020318888127803802,0.00026153656654059887
1772895891921957600,4.37895751953125,-0.00047133583575487137,-0.0015290239825844765,-0.00044952728785574436
1772895891931925800,4.38892578125,0.00017322320491075516,0.0006715180352330208,0.003735488513484597
1772895891941894700,4.398894775390625,0.00023740530014038086,0.000698150135576725,0.0004270437639206648
1772895891951862800,4.40886279296875,-0.0005502467975020409,0.0009608427062630653,0.000631838571280241
1772895891961831000,4.418830810546875,-0.003511682152748108,-0.0018386729061603546,-0.00013382034376263618
1772895891971799300,4.42879931640625,-0.0023758644238114357,-0.00013258587568998337,0.0009750123135745525
1772895891981768400,4.4387685546875,0.00020793452858924866,0.0014911433681845665,0.0009483806788921356
1772895891991736300,4.448736328125,-0.0014115339145064354,-0.0013389978557825089,0.0017681014724075794
1772895892001704400,4.458704345703125,-0.002131846733391285,-0.000681084580719471,-0.0032366306986659765
1772895892011672300,4.46867236328125,0.0017979005351662636,0.0004795938730239868,0.000027781818062067032
1772895892021641500,4.478641357421875,-0.0018365159630775452,-0.0005558431148529053,-0.0006116428412497044
1772895892031609300,4.488609375,0.00011175405234098434,0.0043174149468541145,-0.003001253819093108
1772895892041577200,4.4985771484375,0.0015993965789675713,0.00003478582948446274,0.00007389811798930168
1772895892051545300,4.50854541015625,-0.00035884883254766464,0.0011419476941227913,0.001856009941548109
1772895892061514500,4.518514404296875,0.0003077397122979164,-0.0030117854475975037,-0.0025880071334540844
1772895892071482400,4.528482421875,0.0004283348098397255,-0.0009711813181638718,0.0016126739792525768
1772895892081450500,4.538450439453125,0.0008826693519949913,-0.001828453503549099,0.0010076039470732212
1772895892091418400,4.54841845703125,-0.002078370191156864,0.0007223961874842644,-0.0006115681026130915
1772895892101386200,4.55838623046875,0.00024097692221403122,0.0007263915613293648,-0.0003055708948522806
1772895892111355400,4.56835546875,-0.0016545262187719345,0.0007802201434969902,-0.0006232440937310457
1772895892121323300,4.5783232421875,0.00007466413080692291,0.0008281571790575981,0.00010726088657975197
1772895892131291400,4.58829150390625,0.00015265308320522308,0.0025006867945194244,0.003126848489046097
1772895892141260300,4.59826025390625,0.0011018039658665657,-0.0005816565826535225,0.0013153664767742157
1772895892151228400,4.608228515625,0.0016330257058143616,-0.0021166428923606873,0.001486397348344326
1772895892161196500,4.618196533203125,0.0005027810111641884,-0.000531529076397419,-0.0012286955025047064
1772895892171164200,4.6281640625,-0.001451302319765091,-0.0026374338194727898,0.0003630267456173897
1772895892181132300,4.63813232421875,0.0000632377341389656,-0.0002999771386384964,0.0012927362695336342
1772895892191101400,4.648101318359375,0.0018522562459111214,0.003475058823823929,-0.0028282231651246548
1772895892201069300,4.6580693359375,0.0004431772977113724,0.00003345683217048645,-0.0006755900103598833
1772895892211037400,4.668037353515625,0.0029482226818799973,0.0011295881122350693,-0.0024335612542927265
1772895892221005300,4.67800537109375,0.00112981628626585,0.0011921720579266548,0.0005553043447434902
1772895892230974500,4.687974365234375,-0.0023840442299842834,-0.0019017113372683525,0.0006672223098576069
1772895892240942600,4.697942626953125,0.0019001830369234085,0.00076331477612257,-0.0009322722908109426
1772895892250910200,4.70791015625,0.001981958746910095,-0.0014510871842503548,0.00048767775297164917
1772895892260878300,4.71787841796875,0.0018509309738874435,0.0006783762946724892,0.0019449596293270588
1772895892270847200,4.72784716796875,0.00004705321043729782,0.00025115348398685455,0.0009393449872732162
1772895892280815400,4.7378154296875,-0.00012818258255720139,0.0011084256693720818,0.0010868841782212257
1772895892290783500,4.747783447265625,-0.00021810177713632584,-0.0010247919708490372,-0.0007033629808574915
1772895892300751400,4.75775146484375,-0.0013446193188428879,-0.0005616685375571251,0.0000332673080265522
1772895892310720500,4.767720458984375,0.0011098915711045265,0.002093651331961155,-0.0017843905370682478
1772895892320688400,4.7776884765625,0.0013106940314173698,0.0018265368416905403,0.00033042579889297485
1772895892330656300,4.78765625,0.00028392113745212555,-0.0022468334063887596,-0.0022465577349066734
1772895892340624400,4.797624267578125,-0.0025073373690247536,-0.0005354862660169601,-0.0012369533069431782
1772895892350593300,4.80759326171875,0.0011520124971866608,-0.0007366351783275604,0.0010330392979085445
1772895892360561400,4.8175615234375,-0.0019271345809102058,0.00009773299098014832,-0.002122540259733796
1772895892370529500,4.827529541015625,0.0009341193363070488,0.0015382198616862297,-0.0006866466719657183
1772895892380498400,4.83749853515625,-0.00006456580013036728,0.0005552470684051514,-0.000395030714571476
1772895892390466600,4.847466552734375,-0.0003805868327617645,-0.0013646045699715614,-0.0009880466386675835
1772895892400434200,4.85743408203125,0.0007565831765532494,-0.0005872277542948723,0.0002263546921312809
1772895892410402300,4.86740234375,-0.00022827088832855225,0.000021107494831085205,0.0009818114340305328
1772895892420370400,4.877370361328125,-0.00043280143290758133,0.00036279112100601196,-0.0008219475857913494
1772895892430339300,4.88733935546875,0.0019011590629816055,-0.000030278228223323822,0.0007235202938318253
1772895892440307500,4.897307373046875,0.00222846120595932,0.0012967754155397415,-0.004181489814072847
1772895892450275300,4.907275390625,0.001137714833021164,-0.0003256453201174736,0.00040318025276064873
1772895892460243500,4.917243408203125,-0.0009528659284114838,0.002118603326380253,0.0005653668195009232
1772895892470212400,4.92721240234375,-0.0007163286209106445,-0.0011336645111441612,-0.0016138313803821802
1772895892480180200,4.93718017578125,0.0013721222057938576,-0.00022765714675188065,0.001334554050117731
1772895892490148400,4.9471484375,0.0003471383824944496,-0.001530519686639309,-0.001038899878039956
1772895892500116200,4.9571162109375,-0.0010606087744235992,0.00012170523405075073,0.00046791648492217064
1772895892510085400,4.96708544921875,-0.00022363197058439255,-0.0006247377023100853,-0.0005217993166297674
1772895892520053500,4.977053466796875,-0.0007184473797678947,0.0028283176943659782,-0.0014477802906185389
1772895892530021400,4.987021484375,0.0007822271436452866,-0.0010290471836924553,0.0030710636638104916
1772895892539989500,4.996989501953125,-0.00112219899892807,-0.00008229352533817291,0.0005842037498950958
1772895892549958400,5.00695849609375,0.00014716479927301407,0.0006551705300807953,-0.00029778853058815
1772895892559926300,5.01692626953125,0.0011085662990808487,-0.0014740265905857086,0.0009355214424431324
1772895892569894400,5.026894287109375,0.001490606926381588,-0.0015040328726172447,0.0002830387093126774
1772895892579862300,5.0368623046875,0.00032121315598487854,-0.0015900535508990288,-0.0002296196762472391
1772895892589831400,5.04683154296875,0.0004717884585261345,-0.00016549602150917053,-0.0001905541867017746
1772895892599798500,5.056798583984375,0.0002395613119006157,0.0021455949172377586,-0.0030609089881181717
1772895892609766400,5.066766357421875,0.0006887344643473625,0.00109898392111063,-0.0023320033214986324
1772895892619734300,5.076734375,-0.0009957142174243927,0.0010449215769767761,0.0018116086721420288
1772895892629703200,5.086703125,0.0003865472972393036,-0.001478380523622036,0.0012419326230883598
1772895892639671300,5.09667138671875,0.0017069429159164429,0.0008422974497079849,0.0009164945222437382
1772895892649639400,5.106639404296875,0.0012145815417170525,-0.002506345510482788,-0.00022238027304410934
1772895892659607300,5.116607177734375,0.0019147265702486038,-0.0021273773163557053,-0.0031060511246323586
1772895892669576400,5.126576416015625,0.00044882483780384064,-0.0027060452848672867,-0.00041848444379866123
1772895892679544600,5.136544677734375,-0.0007429393008351326,-0.0010977629572153091,0.0027067349292337894
1772895892689512400,5.146512451171875,0.0016152868047356606,-0.0009509492665529251,0.0016522258520126343
1772895892699480300,5.156480224609375,-0.000361577607691288,-0.004071108065545559,-0.004902079701423645
1772895892709449200,5.16644921875,0.0030658217146992683,0.000034409575164318085,0.0015918794088065624
1772895892719417300,5.176417236328125,-0.0008024200797080994,-0.003932102583348751,-0.0025037957821041346
1772895892729385500,5.186385498046875,0.0007155472412705421,-0.0011379886418581009,-0.0021906308829784393
1772895892739353300,5.196353271484375,0.001527012325823307,-0.0030107228085398674,-0.000005773734301328659
1772895892749322500,5.206322509765625,-0.0019634785130620003,-0.0009088600054383278,-0.0013677275273948908
1772895892759290400,5.216290283203125,0.000613928772509098,-0.001872924156486988,-0.0031989170238375664
1772895892769258200,5.22625830078125,0.00007577985525131226,-0.0017659300938248634,0.000819056760519743
1772895892779226400,5.236226318359375,-0.000623832456767559,-0.00011317245662212372,-0.0016962988302111626
1772895892789195300,5.2461953125,0.0013103727251291275,-0.003807682543992996,-0.002781298477202654
1772895892799163400,5.256163330078125,0.00005362648516893387,0.00007121078670024872,-0.0016819455195218325
1772895892809131300,5.26613134765625,-0.001024753786623478,0.00032083597034215927,0.0005921414121985435
1772895892819099400,5.276099365234375,0.0017894087359309196,-0.0034219706431031227,-0.0038622620049864054
1772895892829068500,5.286068603515625,-0.0003376798704266548,-0.0014012744650244713,-0.0005435165949165821
1772895892839036400,5.296036376953125,0.00004315190017223358,-0.0004475964233279228,-0.002390951383858919
1772895892849004300,5.30600439453125,-0.00006413273513317108,-0.0030853739008307457,-0.00037527643144130707
1772895892858972400,5.315972412109375,0.001524709165096283,-0.0015852153301239014,-0.0001174823846668005
1772895892868941300,5.32594140625,0.00013531092554330826,0.001118045300245285,-0.0010166100692003965
1772895892878909400,5.335909423828125,-0.002675388939678669,0.0014205798506736755,-0.0010251321364194155
1772895892888877300,5.345877197265625,-0.0018898937851190567,0.000639764592051506,0.0005432330071926117
1772895892898845400,5.355845458984375,0.0013133566826581955,-0.0003261640667915344,-0.0016594675835222006
1772895892908814300,5.365814453125,0.00041237659752368927,-0.0009805597364902496,-0.0014009876176714897
1772895892918782500,5.375782470703125,0.00007042661309242249,-0.0013043992221355438,-0.00019537471234798431
1772895892928750300,5.385750244140625,-0.0017940457910299301,-0.0017426293343305588,-0.003796336939558387
1772895892938718200,5.39571826171875,-0.0004070708528161049,-0.00006883218884468079,-0.003269829787313938
1772895892948687400,5.405687255859375,-0.0020336201414465904,-0.0025085359811782837,0.00008996808901429176
1772895892958655200,5.4156552734375,0.0014348812401294708,0.0010678237304091454,-0.0021135315764695406
1772895892968623400,5.425623291015625,0.0009775878861546516,-0.0009287865832448006,0.0014872555620968342
1772895892978591500,5.435591552734375,0.00019595026969909668,-0.002471555955708027,-0.003727479837834835
1772895892988560400,5.445560302734375,-0.0020762430503964424,-0.0005083410069346428,0.001418817788362503
1772895892998528500,5.455528564453125,0.0025685755535960197,0.0003915410488843918,-0.0012584582436829805
1772895893008496600,5.46549658203125,-0.002070206217467785,-0.0010311668738722801,0.001510642934590578
1772895893018464500,5.475464599609375,-0.0008872300386428833,0.00015846733003854752,-0.0005253434646874666
1772895893028433700,5.48543359375,-0.002856592647731304,-0.0002124262973666191,0.0011113244108855724
1772895893038401500,5.495401611328125,-0.00005814339965581894,-0.0008366713300347328,-0.0018636926542967558
1772895893048369400,5.505369384765625,-0.0001082373782992363,-0.0008782362565398216,-0.0003182217478752136
1772895893058338300,5.51533837890625,0.0017812754958868027,0.0010051513090729713,0.0005528985057026148
1772895893068306400,5.525306396484375,0.0005245041102170944,0.00022644363343715668,0.00023313472047448158
1772895893078274600,5.535274658203125,-0.0005684578791260719,0.0002727825194597244,0.00004298519343137741
1772895893088242400,5.545242431640625,-0.000555732287466526,0.0006624078378081322,0.0012022941373288631
1772895893098211600,5.555211669921875,-0.0009639952331781387,0.0018509766086935997,0.0014118850231170654
1772895893108179500,5.565179443359375,0.00007738173007965088,0.00163191556930542,0.0008914223872125149
1772895893118147600,5.575147705078125,0.0012339930981397629,0.0013389671221375465,0.00469654705375433
1772895893128115500,5.585115478515625,0.0013381950557231903,0.00039992015808820724,-0.0020676124840974808
1772895893138084400,5.59508447265625,0.0006897151470184326,0.004068158566951752,0.0037247631698846817
1772895893148052500,5.605052490234375,-0.0007363501936197281,0.005397617816925049,0.003611497115343809
1772895893158020600,5.6150205078125,-0.0006652437150478363,0.009927654638886452,0.006454154849052429
1772895893167988500,5.624988525390625,0.0018579158931970596,0.009542575106024742,0.009118106216192245
1772895893177957600,5.63495751953125,0.0002520298585295677,-6.426125764846802e-8,0.0024769818410277367
1772895893187925500,5.644925537109375,0.00243211816996336,0.0016396930441260338,0.0037743193097412586
1772895893197893400,5.654893310546875,0.0022182660177350044,-0.0008636778220534325,-0.001216710777953267
1772895893207861500,5.664861572265625,-0.0019248509779572487,0.0030985213816165924,0.0024503138847649097
1772895893217830400,5.674830322265625,-0.0008641136810183525,0.0029525812715291977,-0.0007548006251454353
1772895893227798500,5.684798583984375,-0.0005317516624927521,0.003187738358974457,-0.002163612749427557
1772895893237766400,5.694766357421875,0.0013851923868060112,0.0013967612758278847,-0.0019923713989555836
1772895893247734500,5.704734619140625,0.00041678454726934433,0.0018963813781738281,0.0020518582314252853
1772895893257703400,5.714703369140625,0.0005081314593553543,0.0009243283420801163,-0.000090388348326087
1772895893267671600,5.724671630859375,0.00212886743247509,0.001019907183945179,0.0009860419668257236
1772895893277639400,5.734639404296875,0.0002031354233622551,0.0005711652338504791,-0.0018752580508589745
1772895893287607600,5.744607666015625,-0.0005640480667352676,-0.00030741095542907715,-0.000717811519280076
1772895893297576400,5.754576416015625,-0.0010372921824455261,-0.002682417631149292,0.0008340124040842056
1772895893307544600,5.764544677734375,-0.0006050197407603264,0.00019884202629327774,0.0011881832033395767
1772895893317512400,5.774512451171875,0.0006823530420660973,0.0005445200949907303,-0.0005122453439980745
1772895893327480600,5.78448046875,-0.00021594949066638947,-0.00021393876522779465,-0.00047663995064795017
1772895893337449500,5.794449462890625,0.00043972115963697433,-0.003205200657248497,0.00023042922839522362
1772895893347417600,5.80441748046875,0.00044175703078508377,-0.0018647927790880203,0.0004314715042710304
1772895893357385500,5.814385498046875,0.000745624303817749,0.002217300236225128,0.0028480240143835545
1772895893367353300,5.824353271484375,-0.00039741862565279007,-0.0015804050490260124,-0.00011680973693728447
1772895893377322500,5.834322509765625,-0.0016123531386256218,-0.0019583068788051605,0.0017213039100170135
1772895893387290400,5.844290283203125,-0.00041372328996658325,-0.0008376091718673706,0.0003731842152774334
1772895893397258500,5.854258544921875,0.000041676685214042664,0.0009267348796129227,-0.00012243003584444523
1772895893407226600,5.8642265625,-0.001010829582810402,-0.00047785788774490356,-0.001086237607523799
1772895893417195500,5.874195556640625,-0.0009378585964441299,-0.0031018704175949097,0.0008416245691478252
1772895893427163600,5.88416357421875,-0.0019979262724518776,0.0009552109986543655,-0.00043172272853553295
1772895893437131500,5.894131591796875,-0.0009451787918806076,0.001968810334801674,-0.0019638394005596638
1772895893447099400,5.904099365234375,0.0014741970226168633,0.0028622858226299286,0.0009437715634703636
1772895893457068500,5.914068603515625,0.0008643325418233871,0.00030511897057294846,0.00045321742072701454
1772895893467036400,5.924036376953125,0.0015845941379666328,0.0002800673246383667,0.00003526313230395317
1772895893477004500,5.934004638671875,0.0005587441846728325,-0.001944471150636673,0.0013276953250169754
1772895893486972700,5.94397265625,0.003097139298915863,-0.0010091457515954971,0.0008496064692735672
1772895893496941600,5.953941650390625,0.0004512881860136986,0.0021035578101873398,0.00019659940153360367
1772895893506909700,5.96390966796875,0.00006771087646484375,0.0007973089814186096,-0.002121325582265854
1772895893516877300,5.973877197265625,0.0005042022094130516,-0.0006149653345346451,-0.0009676443878561258
1772895893526846500,5.983846435546875,-0.001713157631456852,-0.0005388427525758743,-0.00014477293007075787
1772895893536814300,5.993814453125,-0.0013254014775156975,0.00027954671531915665,0.0020259697921574116
1772895893546782500,6.003782470703125,0.0009731901809573174,0.001736558973789215,0.0017491932958364487
1772895893556750600,6.01375048828125,-0.00013148970901966095,0.0004627685993909836,0.0015441300347447395
1772895893566719500,6.023719482421875,-0.0008350405842065811,0.00006754696369171143,-0.0011951171327382326
1772895893576687600,6.0336875,0.0011138608679175377,-0.0010563069954514503,0.000947129912674427
1772895893586655700,6.04365576171875,0.0011399276554584503,-0.0022941259667277336,0.0012855969835072756
1772895893596623400,6.053623291015625,-0.0007631666958332062,-0.0002096705138683319,-0.0009147068485617638
1772895893606592500,6.063592529296875,0.001087697222828865,-0.00011725258082151413,-0.002378698904067278
1772895893616560400,6.073560302734375,-0.0006670597940683365,-0.0000975457951426506,0.003702895948663354
1772895893626528500,6.083528564453125,-0.0010075327008962631,-0.001225908286869526,-0.0012764898128807545
1772895893636496600,6.09349658203125,0.0006452249363064766,-0.0019329776987433434,-0.0007632984779775143
1772895893646465500,6.103465576171875,0.0008228449150919914,0.001377541571855545,-0.0015585983637720346
1772895893656433700,6.11343359375,0.0006497399881482124,-0.0001471182331442833,0.0008896456565707922
1772895893666401300,6.1234013671875,-0.0005489625036716461,0.0009344620630145073,0.002469364320859313
1772895893676369400,6.133369384765625,0.0013211099430918694,0.0018639052286744118,0.0010211372282356024
1772895893686338300,6.14333837890625,-0.00029724184423685074,0.0014982055872678757,0.0005157231353223324
1772895893696306400,6.153306396484375,0.0013105077669024467,-0.0006312578916549683,-0.001188167603686452
1772895893706274600,6.163274658203125,-0.0010610586032271385,0.0014971718192100525,0.0009519150480628014
1772895893716242400,6.173242431640625,0.001247103326022625,0.0013712048530578613,-0.0011980549897998571
1772895893726211600,6.183211669921875,-0.0009702462702989578,0.0003480147570371628,-0.0010742915328592062
1772895893736179700,6.1931796875,-0.001213126815855503,-0.00003494787961244583,0.00011987006291747093
1772895893746147300,6.203147216796875,0.00036987103521823883,0.0005584079772233963,-0.00017460226081311703
1772895893756115500,6.213115478515625,-0.0005329400300979614,0.00013762805610895157,0.000523146241903305
1772895893766084400,6.22308447265625,-0.0007670382037758827,-0.0007153348997235298,-0.0002976777032017708
1772895893776052500,6.233052490234375,-0.0010440070182085037,-0.0004908302798867226,0.0012687938287854195
1772895893786020600,6.2430205078125,0.00015398766845464706,-0.0036564450711011887,-0.00009382958523929119
1772895893795988500,6.252988525390625,-0.0017943810671567917,-0.00024440325796604156,0.0016412199474871159
1772895893805957600,6.26295751953125,0.0009736549109220505,-0.00025582779198884964,0.001292988657951355
1772895893815925500,6.272925537109375,0.00020373426377773285,-0.0018462678417563438,-0.004256772343069315
1772895893825893400,6.282893310546875,0.0009902985766530037,0.002229667268693447,-0.000814234372228384
1772895893835862300,6.2928623046875,-0.0011703241616487503,-0.0023160818964242935,-0.002400413155555725
1772895893845830400,6.302830322265625,0.001124282367527485,0.00114514771848917,0.00016602035611867905
1772895893855798500,6.312798583984375,0.0003402475267648697,-0.00010174419730901718,-0.0016808819491416216
1772895893865766400,6.322766357421875,0.00042301323264837265,0.0011959066614508629,0.0015379395335912704
1772895893875735600,6.332735595703125,0.0014776252210140228,-0.0006051892414689064,-0.00007726764306426048
1772895893885703700,6.34270361328125,-0.00033803097903728485,-0.0005413312464952469,0.0011527808383107185
1772895893895671600,6.352671630859375,0.00002868659794330597,-0.0013943416997790337,0.002369046676903963
1772895893905639400,6.362639404296875,0.0022397907450795174,-0.0004154844209551811,-0.0010822589974850416
1772895893915608300,6.3726083984375,0.000005132518708705902,-0.0014836778864264488,0.0016999454237520695
1772895893925576400,6.382576416015625,0.0001678401604294777,0.001491994597017765,0.0013813087716698647
1772895893935544600,6.392544677734375,0.000988626852631569,0.0010994449257850647,0.0008848956786096096
1772895893945512400,6.402512451171875,0.001518971286714077,0.002072625793516636,-0.002106193220242858
1772895893955481600,6.412481689453125,-0.0007279375568032265,0.0013975147157907486,0.0021894853562116623
1772895893965449500,6.422449462890625,-0.0010703643783926964,0.001765144057571888,-0.0020848740823566914
1772895893975417600,6.43241748046875,-0.0006088381633162498,-0.0012913653627038002,0.001809732522815466
1772895893985385500,6.442385498046875,0.0007028691470623016,0.0024950318038463593,-0.0015140532050281763
1772895893995354400,6.452354248046875,0.000941222533583641,-0.0006102127954363823,0.002214638516306877
1772895894005322500,6.462322509765625,0.0003530997782945633,0.00008215103298425674,-0.0011845359113067389
1772895894015290600,6.47229052734375,0.002986699342727661,0.0011239796876907349,0.0014924737624824047
1772895894025258500,6.482258544921875,0.00048729684203863144,0.0011061187833547592,-0.00019106152467429638
1772895894035227600,6.4922275390625,0.000364525243639946,-0.0003306567668914795,0.000643040519207716
1772895894045195500,6.502195556640625,-0.0009748823940753937,-0.000037124380469322205,-0.005244981963187456
1772895894055163400,6.512163330078125,0.0018888143822550774,0.00010775215923786163,0.0022925627417862415
1772895894065132500,6.522132568359375,0.0009853877127170563,0.0016185985878109932,0.0016067512333393097
1772895894075100400,6.532100341796875,0.00026819854974746704,-0.0005987491458654404,0.0016536233015358448
1772895894085068500,6.542068603515625,0.001094454899430275,-0.0022652773186564445,0.002506198827177286
1772895894095036400,6.552036376953125,-0.0014683054760098457,-0.0006090579554438591,-0.00002939673140645027
1772895894105005600,6.562005615234375,0.0019121551886200905,-0.0005251290276646614,-0.0014515779912471771
1772895894114973400,6.571973388671875,0.0012184018269181252,-0.0019451258704066277,0.00037508411332964897
1772895894124941600,6.581941650390625,0.0017181970179080963,-0.0025930870324373245,-0.002222552429884672
1772895894134909400,6.591909423828125,-0.00028343498706817627,-0.0002140859141945839,-0.0020816712640225887
1772895894144878300,6.60187841796875,0.0017459280788898468,0.0010186973959207535,-0.0006178885232657194
1772895894154846500,6.611846435546875,0.0015975898131728172,0.001190471462905407,0.0008175550028681755
1772895894164814600,6.621814697265625,0.0004958771169185638,-0.0015987902879714966,-0.000981578603386879
1772895894174782500,6.631782470703125,0.0008791061118245125,0.0001463787630200386,0.0007912879809737206
1772895894184751600,6.641751708984375,0.001683947630226612,-0.00017092004418373108,0.0007569012232124805
1772895894194719500,6.651719482421875,0.001053578220307827,-0.0008617443963885307,-0.002027167472988367
1772895894204687600,6.6616875,-0.0006669303402304649,0.0008837953209877014,0.001371142454445362
1772895894214655500,6.671655517578125,0.000157051719725132,-0.0011700345203280449,0.00027605053037405014
1772895894224624400,6.681624267578125,-0.00019382406026124954,0.0008612321689724922,-0.0010342462919652462
1772895894234592500,6.691592529296875,-0.00018583517521619797,4.991888999938965e-7,-0.0000014724209904670715
1772895894244560400,6.701560302734375,-0.003914223983883858,-0.0017204629257321358,0.0001652170903980732
1772895894254528500,6.711528564453125,-0.0020550712943077087,-0.0023793289437890053,-0.003037500660866499
1772895894264497400,6.721497314453125,-0.0009273113682866096,0.0029264045879244804,0.0008184676989912987
1772895894274465500,6.731465576171875,-0.00297554861754179,-0.0004302440211176872,0.0005665328353643417
1772895894284433700,6.74143359375,-0.00348490197211504,-0.0009140195325016975,-0.0020587299950420856
1772895894294401300,6.7514013671875,-0.0014079026877880096,-0.0006189411506056786,-0.0018065287731587887
1772895894304370400,6.761370361328125,-0.0006686011329293251,-0.00004981085658073425,-0.0016349917277693748
1772895894314338600,6.771338623046875,0.002023855224251747,-0.0007776534184813499,-0.00036865868605673313
1772895894324306400,6.781306396484375,0.0018484219908714294,-0.0025470424443483353,-0.0001879543997347355
1772895894334275600,6.791275634765625,-0.0003026127815246582,-0.0019001606851816177,-0.0022641548421233892
1772895894344243500,6.801243408203125,0.002982654608786106,-0.0016009295359253883,0.0014126943424344063
1772895894354211600,6.811211669921875,0.0011248337104916573,0.001198052428662777,-0.0021045426838099957
1772895894364179700,6.8211796875,-0.00180152989923954,0.00016645248979330063,-0.0006180501077324152
1772895894374148600,6.831148681640625,-0.00023585744202136993,0.0001997416839003563,-0.0006502743344753981
1772895894384116500,6.841116455078125,0.000018067657947540283,-0.0007442999631166458,-0.0005784982349723577
1772895894394084400,6.85108447265625,0.0014511141926050186,0.0009105885401368141,0.0015909126959741116
1772895894404052500,6.861052490234375,-0.0019377553835511208,-0.00039989594370126724,-0.0006101755425333977
1772895894414021400,6.871021484375,-0.001085544005036354,-0.0019447952508926392,0.0009091580286622047
1772895894423989500,6.880989501953125,0.0013001933693885803,0.0000862516462802887,-0.001077326014637947
1772895894433957600,6.89095751953125,-0.0009866636246442795,-0.0010527819395065308,0.0016225865110754967
1772895894443925500,6.900925537109375,-0.00028817448765039444,-0.0010090135037899017,-0.0032891258597373962
1772895894453894700,6.910894775390625,0.0009523257613182068,0.0008544009178876877,0.002253977581858635
1772895894463862500,6.920862548828125,0.00015669316053390503,-0.0018730610609054565,0.00019401125609874725
1772895894473830400,6.930830322265625,-0.0021338919177651405,-0.0004591885954141617,0.0006105294451117516
1772895894483798500,6.940798583984375,-0.0018883775919675827,-0.0004164641723036766,-0.00210416316986084
1772895894493767400,6.950767333984375,-0.0008470816537737846,-0.0014593573287129402,0.0021880539134144783
1772895894503735600,6.960735595703125,0.0018103132024407387,-0.0017409836873412132,0.0013931654393672943
1772895894513703700,6.97070361328125,-0.001135941594839096,-0.0006893016397953033,0.0003492063842713833
1772895894523672600,6.980672607421875,-0.0006437711417675018,-0.001577313058078289,-0.0008607110939919949
1772895894533640400,6.990640380859375,0.00007448345422744751,-0.00011017732322216034,0.0006005652248859406
1772895894543608300,7.0006083984375,0.00013733375817537308,-0.0007360205054283142,0.0003568860702216625
1772895894553576400,7.010576416015625,0.00028371717780828476,0.0007582791149616241,-0.0028914588037878275
1772895894563545300,7.02054541015625,0.0015766490250825882,0.0009730225428938866,-0.0016578068025410175
1772895894573513500,7.030513427734375,-0.00035627279430627823,-0.0008680205792188644,-0.0008522006683051586
1772895894583481600,7.040481689453125,0.00023091398179531097,-0.0026318905875086784,0.000448430422693491
1772895894593449500,7.050449462890625,-0.0005786865949630737,0.0009212987497448921,0.0006111492402851582
1772895894603418600,7.060418701171875,-0.0006761793047189713,-0.0006065275520086288,-0.0021852655336260796
1772895894613386500,7.070386474609375,0.0012412965297698975,-0.0008635222911834717,0.002987658604979515
1772895894623354400,7.080354248046875,0.00022576656192541122,-0.0004642875865101814,0.00009454647079110146
1772895894633322500,7.090322509765625,0.0009006122127175331,-0.0005915872752666473,-0.0017486272845417261
1772895894643291400,7.10029150390625,0.0007354170083999634,-0.0008713016286492348,0.000983846839517355
1772895894653259500,7.110259521484375,-0.001005757600069046,0.0005638757720589638,-0.0011267084628343582
1772895894663227600,7.1202275390625,-0.0005968715995550156,-0.0008514616638422012,0.0015362161211669445
1772895894673195500,7.130195556640625,0.00028916262090206146,-0.0013683820143342018,-0.001306708436459303
1772895894683164700,7.14016455078125,-0.000830736942589283,0.00017006322741508484,-0.0007698494009673595
1772895894693132300,7.15013232421875,0.001298726536333561,-0.0006334129720926285,-0.0021293931640684605
1772895894703100400,7.160100341796875,0.00011019781231880188,0.001206996850669384,0.002904533874243498
1772895894713068500,7.170068603515625,0.0003402950242161751,-0.0016300687566399574,0.00014736317098140717
1772895894723037400,7.180037353515625,-0.0009624138474464417,0.0020488323643803596,0.0010138535872101784
1772895894733005600,7.190005615234375,-0.000022050924599170685,0.0003388170152902603,0.00032516010105609894
1772895894742973400,7.199973388671875,-0.00025011785328388214,0.0011007804423570633,0.0017770547419786453
1772895894752942600,7.209942626953125,-0.0024903686717152596,-0.0013503925874829292,-0.0007337734568864107
1772895894762910700,7.21991064453125,0.00014196615666151047,0.00011032074689865112,0.0010863072238862514
1772895894772878300,7.22987841796875,0.00025781337171792984,0.00038622505962848663,-0.0020072206389158964
1772895894782846500,7.239846435546875,-0.0006528953090310097,-0.0005568480119109154,0.00007972912862896919
1772895894792815400,7.2498154296875,0.0027327807620167732,-0.0007885433733463287,0.0003087609075009823
1772895894802783500,7.259783447265625,0.0029397020116448402,0.000014015473425388336,0.00398024870082736
1772895894812751600,7.269751708984375,-0.001497124321758747,-0.002118111588060856,-0.003170605283230543
1772895894822719500,7.279719482421875,-0.0023999204859137535,0.0006993934512138367,0.0004682987928390503
1772895894832688600,7.289688720703125,0.000844874419271946,-0.0006753299385309219,-0.0019165617413818836
1772895894842656500,7.299656494140625,0.0014579631388187408,-0.0020248321816325188,0.0021580937318503857
1772895894852624400,7.309624267578125,-0.0001737549901008606,-0.00227383803576231,-0.001699761487543583
1772895894862592500,7.319592529296875,-0.00044493284076452255,-0.0014533307403326035,-0.0007540357764810324
1772895894872561400,7.3295615234375,0.0005196640267968178,0.0014561722055077553,0.0003762096166610718
1772895894882529500,7.339529541015625,0.0019462574273347855,-0.00011601485311985016,-0.0010353275574743748
1772895894892497700,7.34949755859375,0.0006453040987253189,-0.002702477388083935,0.0009596464224159718
1772895894902465500,7.359465576171875,0.000837462954223156,-0.0008834013715386391,-0.00185810262337327
1772895894912434700,7.3694345703125,-0.0009891986846923828,0.0020460747182369232,0.00031849881634116173
1772895894922402300,7.37940234375,-0.0009196018800139427,-0.0007486557587981224,0.0028097410686314106
1772895894932370400,7.389370361328125,-0.002320956438779831,0.0007424484938383102,0.0006118342280387878
1772895894942339300,7.39933935546875,-0.00007883459329605103,0.0006549200043082237,-0.0006754130590707064
1772895894952307500,7.409307373046875,-0.002004832960665226,-0.0010377848520874977,0.0010505816899240017
1772895894962275600,7.419275634765625,0.0013846475630998611,-0.0002965359017252922,0.0003587920218706131
1772895894972242700,7.42924267578125,0.00014787539839744568,-0.0003902791067957878,0.0017143413424491882
1772895894982211600,7.439211669921875,0.0008753938600420952,-0.0008079521358013153,-0.0021399229299277067
1772895894992179700,7.4491796875,-0.0006223674863576889,0.000631486065685749,0.0040551223792135715
1772895895002147600,7.459147705078125,0.0010352376848459244,-0.00027455203235149384,-0.00011725607328116894
1772895895012115700,7.46911572265625,0.0015377756208181381,-0.001859399490058422,-0.0009692010935395956
1772895895022084600,7.479084716796875,-0.002465464174747467,-0.0002806698903441429,0.002807364333420992
1772895895032052500,7.489052490234375,-0.0011392096057534218,0.0007720785215497017,-0.0007167966105043888
1772895895042020600,7.4990205078125,0.0019811689853668213,-0.0006237104535102844,-0.0008254414424300194
1772895895051988500,7.508988525390625,-0.0011155549436807632,0.0002420833334326744,0.00037857377901673317
1772895895061957600,7.51895751953125,-0.0010142764076590538,-0.0010849619284272194,-0.0008426152635365725
1772895895071925800,7.52892578125,-0.0008984291926026344,0.0025009848177433014,-0.0016594065818935633
1772895895081893600,7.5388935546875,-0.000056333839893341064,-0.0020681414753198624,-0.0019746138714253902
1772895895091861800,7.54886181640625,-0.0008957618847489357,0.0004773074761033058,-0.0002800445072352886
1772895895101830700,7.55883056640625,0.0005300408229231834,0.000280892476439476,-0.00021776207722723484
1772895895111798500,7.568798583984375,0.0003928886726498604,-0.001061340793967247,-0.00022095791064202785
1772895895121766700,7.5787666015625,0.0002833837643265724,-0.0018768906593322754,0.0007239519618451595
1772895895131735600,7.588735595703125,-0.0030801882967352867,0.00044218916445970535,-0.0005112220533192158
1772895895141703700,7.59870361328125,-0.0010596038773655891,0.0008911928161978722,-0.0004259014967828989
1772895895151671600,7.608671630859375,-0.001733117736876011,-0.003075852058827877,-0.0010400265455245972
1772895895161639700,7.6186396484375,0.0002400437369942665,-0.0006478698924183846,0.0008099679835140705
1772895895171608600,7.628608642578125,0.0010104961693286896,-0.0008950112387537956,0.0012302147224545479
1772895895181576700,7.63857666015625,0.0004948228597640991,-0.002094017341732979,0.0015552886761724949
1772895895191544600,7.648544677734375,-0.0014474205672740936,0.002336418256163597,0.0011611408554017544
1772895895201512400,7.658512451171875,0.0017326036468148232,0.0009951656684279442,0.000600587110966444
1772895895211481600,7.668481689453125,-0.002047487534582615,0.00013416633009910583,0.0042930603958666325
1772895895221449700,7.67844970703125,-0.0004912996664643288,0.00047599803656339645,-0.0014073080383241177
1772895895231417600,7.68841748046875,-0.0002239178866147995,-0.00039485562592744827,-0.00011301180347800255
1772895895241385700,7.6983857421875,0.00015743914991617203,0.0006930269300937653,-0.0006868743803352118
1772895895251354600,7.708354736328125,-0.001048707403242588,-0.0017677340656518936,-0.0006117732264101505
1772895895261322800,7.71832275390625,0.0006226813420653343,-0.0021113771945238113,-0.0003717588260769844
1772895895271290600,7.72829052734375,0.0009526470676064491,-0.000790182501077652,-0.0007318183779716492
1772895895281259500,7.738259521484375,-0.0009014727547764778,-0.0019113188609480858,0.0013643237762153149
1772895895291227600,7.7482275390625,-0.00036191660910844803,-0.00005642790347337723,-0.00013583479449152946
1772895895301195500,7.758195556640625,-0.0014414908364415169,-0.0001069018617272377,0.00033723097294569016
1772895895311163600,7.76816357421875,0.003961530514061451,-0.0000254092738032341,0.0008315136656165123
1772895895321132500,7.778132568359375,0.0011922568082809448,0.0005139671266078949,0.0016523515805602074
1772895895331100700,7.7881005859375,0.0009299349039793015,0.0008452646434307098,0.0011213175021111965
1772895895341068500,7.798068603515625,0.0027995584532618523,-0.00045666005462408066,0.0002799755893647671
1772895895351036700,7.80803662109375,-0.0005853194743394852,-0.0002811579033732414,0.0012520290911197662
1772895895361005600,7.818005615234375,0.00047171860933303833,0.0013415152207016945,-0.0013956420589238405
1772895895370973700,7.8279736328125,0.0015854528173804283,0.00044243223965168,-0.002263566479086876
1772895895380941600,7.837941650390625,0.0005150111392140388,0.00006863661110401154,-0.00053799943998456
1772895895390910700,7.84791064453125,-0.001447472721338272,-0.0015718704089522362,-0.00022667599841952324
1772895895400878600,7.857878662109375,0.0025878725573420525,-0.00004428904503583908,0.0022664545103907585
1772895895410846700,7.8678466796875,0.0001902291551232338,0.00015651341527700424,-0.0030833035707473755
1772895895420814600,7.877814697265625,-0.0011401809751987457,0.0003752177581191063,0.0003023906610906124
1772895895430783500,7.887783447265625,0.0005559865385293961,-0.0010770047083497047,0.00019613048061728477
1772895895440751600,7.897751708984375,-0.00005028117448091507,-0.0005410108715295792,-0.0005946042947471142
1772895895450719500,7.907719482421875,0.0004669046029448509,-0.000722106546163559,-0.003013553563505411
1772895895460687600,7.9176875,-0.002065126784145832,0.002759721130132675,0.0010704617016017437
1772895895470656500,7.927656494140625,-0.00018733181059360504,-0.0005860086530447006,-0.0007759078871458769
1772895895480624600,7.937624755859375,0.00407708715647459,0.0009428849443793297,-0.0021145653445273638
1772895895490592800,7.9475927734375,-0.0007195314392447472,-0.0009692646563053131,0.0008359509520232677
1772895895500560600,7.957560546875,0.0014525773003697395,0.0012655630707740784,0.0008216653950512409
1772895895510529500,7.967529541015625,0.0010685501620173454,-0.0007416615262627602,-0.0016686562448740005
1772895895520497700,7.97749755859375,0.0014547836035490036,0.0008238982409238815,0.001770928967744112
1772895895530465500,7.987465576171875,-0.0004637576639652252,0.00001562945544719696,0.00034054508432745934
1772895895540433700,7.99743359375,0.00023311376571655273,-0.0012486586347222328,-0.0012373840436339378
1772895895550402600,8.007402587890626,0.00007891654968261719,-0.0019749030470848083,-0.0047551533207297325
1772895895560370700,8.01737060546875,-0.0011815112084150314,0.0008003739640116692,-0.0003670663572847843
1772895895570338800,8.0273388671875,-0.0009873667731881142,0.000391312874853611,0.001127765979617834
1772895895580307700,8.0373076171875,-0.0012575406581163406,0.00011006463319063187,0.00296955369412899
1772895895590275600,8.047275634765626,-0.00012196879833936691,-0.0007099229842424393,-0.0025314718950539827
1772895895600243500,8.057243408203124,0.0004341341555118561,-0.00016196724027395248,-0.001751548144966364
1772895895610211600,8.067211669921875,-0.0015821447595953941,0.0003714635968208313,0.0022045779041945934
1772895895620180500,8.077180419921875,0.0018277689814567566,0.0009496882557868958,0.0038212803192436695
1772895895630148600,8.087148681640626,-0.0004724031314253807,0.0007579410448670387,-0.0023354152217507362
1772895895640116700,8.09711669921875,0.001401662826538086,0.0028802696615457535,0.0010001175105571747
1772895895650084600,8.107084716796875,-0.0009155543521046638,-0.001960291527211666,-0.0007692866493016481
1772895895660053800,8.1170537109375,-0.0014860397204756737,0.00010250601917505264,0.004062276799231768
1772895895670021600,8.127021728515626,-0.0012373002246022224,0.000242588110268116,-0.0006374032236635685
1772895895679989500,8.136989501953124,0.0019317064434289932,0.0005446504801511765,0.00036244001239538193
1772895895689958700,8.146958740234375,0.000918906182050705,-0.000174669548869133,-0.0023904694244265556
1772895895699926500,8.156926513671875,-0.00011290330439805984,-0.0007692007347941399,-0.0019444797653704882
1772895895709894700,8.166894775390626,-0.0011147847399115562,-0.00042591895908117294,-0.001175358658656478
1772895895719862800,8.17686279296875,0.0007045427337288857,-0.0010095173493027687,-0.0018013354856520891
1772895895729831700,8.186831787109375,0.0008624689653515816,0.0008461736142635345,0.002018969040364027
1772895895739799800,8.1967998046875,0.0013642972335219383,-0.0015083514153957367,-0.0015337096992880106
1772895895749767400,8.206767333984375,0.0006553642451763153,0.0012533469125628471,0.001428790856152773
1772895895759735600,8.216735595703126,0.00013948418200016022,-0.0012535648420453072,-0.00023075193166732788
1772895895769704700,8.22670458984375,0.00006438326090574265,0.0008458057418465614,-0.000993481371551752
1772895895779672600,8.236672607421875,-0.0011283699423074722,0.0021452000364661217,-0.0005585071630775928
1772895895789640700,8.246640625,0.000015458092093467712,-0.0007752226665616035,-0.0015542630571871996
1772895895799608800,8.25660888671875,0.00002569332718849182,0.001953248865902424,-0.0018278080970048904
1772895895809577700,8.26657763671875,0.0003820238634943962,0.0007817242294549942,0.0001898026093840599
1772895895819545600,8.276545654296875,0.0007308488711714745,0.0002775471657514572,-0.001927827950567007
1772895895829513500,8.286513427734375,-0.0005618492141366005,-0.000734986737370491,-0.00013418914750218391
1772895895839482600,8.296482666015624,0.000972420908510685,-0.0006078705191612244,-0.0023771554697304964
1772895895849450500,8.306450439453124,0.0007846681401133537,-0.0010821791365742683,0.0026194672100245953
1772895895859418600,8.316418701171875,0.0007317345589399338,-0.0009748535230755806,-0.0020575604867190123
1772895895869386800,8.32638671875,-0.002973787486553192,-0.00004887208342552185,-0.0012277194764465094
1772895895879355600,8.336355712890626,-0.001962987706065178,0.0005161566659808159,-0.00006389198824763298
1772895895889323800,8.34632373046875,0.0013971226289868355,-0.00273902527987957,0.0008325278759002686
1772895895899291400,8.35629150390625,0.0004890188574790955,0.0008022002875804901,-0.0017108230385929346
1772895895909259500,8.366259521484375,-0.00039301998913288116,-0.0007309811189770699,-0.00015367288142442703
1772895895919228700,8.376228759765626,-0.0011429591104388237,0.00183012243360281,-0.0008625672198832035
1772895895929196500,8.386196533203124,-0.0001408122479915619,0.0005651209503412247,-0.0002316643949598074
1772895895939164700,8.39616455078125,-0.001764548011124134,-0.0012713940814137459,-0.004463236313313246
1772895895949132800,8.4061328125,0.0010213851928710938,0.0006032055243849754,0.0008431118912994862
1772895895959101700,8.416101806640626,0.0008202334865927696,-0.0007790364325046539,0.0008453191258013248
1772895895969069800,8.42606982421875,0.0003179609775543213,0.0001693153753876686,-0.00221545179374516
1772895895979037700,8.43603759765625,-0.0020834747701883316,-0.0001934189349412918,-0.0011089949402958155
1772895895989006800,8.4460068359375,0.0013980753719806671,-0.0011191340163350105,0.0025137029588222504
1772895895998974700,8.455974609375,-0.00042081158608198166,-0.0014627240598201752,-0.00022431137040257454
1772895896008942800,8.46594287109375,-0.0007108291611075401,0.0018537109717726707,0.00024094292894005775
1772895896018911000,8.475910888671875,-0.0009499629959464073,0.00009653810411691666,0.0004486669786274433
1772895896028880000,8.4858798828125,-0.0001728525385260582,-0.0009263819083571434,0.0017022169195115566
1772895896038847700,8.49584765625,-0.0017292127013206482,-0.000164681114256382,-0.0009139792528003454
1772895896048815600,8.505815673828126,-0.0003331843763589859,0.00011974480003118515,-0.0020548775792121887
1772895896058783700,8.51578369140625,0.0029973024502396584,0.00003877747803926468,-0.0004884831141680479
1772895896068752600,8.525752685546875,-0.0021947957575321198,0.00010535679757595062,-0.0006557295564562082
1772895896078720800,8.535720703125,0.0003156457096338272,-0.0018934160470962524,0.00021262047812342644
1772895896088689000,8.54568896484375,-0.00020207278430461884,-0.00031922198832035065,0.00038679130375385284
1772895896098657800,8.55565771484375,0.0017371214926242828,0.0023714713752269745,0.0003259582445025444
1772895896108626000,8.5656259765625,0.000021513551473617554,-0.0003430889919400215,-0.002262900583446026
1772895896118593800,8.57559375,0.0006559621542692184,0.0006737522780895233,0.0009178840555250645
1772895896128561700,8.585561767578126,-0.0020649898797273636,-0.0008418522775173187,0.0006422470323741436
1772895896138530800,8.59553076171875,-0.0003639776259660721,-0.0011800024658441544,0.0008481736294925213
1772895896148498700,8.605498779296875,0.0018568327650427818,0.0012040594592690468,-0.0003459877334535122
1772895896158466800,8.615466796875,0.003835674375295639,0.0008331285789608955,0.00025132857263088226
1772895896168435000,8.62543505859375,0.0017943615093827248,0.0006874538958072662,0.00028781360015273094
1772895896178403800,8.63540380859375,-0.0010269908234477043,0.00022334139794111252,-0.0005169007927179337
1772895896188372000,8.6453720703125,0.0007892847061157227,0.0002606259658932686,-0.003796850098297
1772895896198339600,8.655339599609375,-0.00190027616918087,-0.0016718460246920586,0.000961571466177702
1772895896208307700,8.6653076171875,-0.0005814787000417709,-0.0009464006870985031,0.0006015119142830372
1772895896218276900,8.67527685546875,0.0007615033537149429,0.001291755586862564,0.002773656975477934
1772895896228244700,8.68524462890625,0.0006858687847852707,-0.0006294483318924904,0.0014844206161797047
1772895896238212900,8.695212890625,0.0005572168156504631,-0.0002594729885458946,-0.0012285725679248571
1772895896248181800,8.705181640625,-0.0014561330899596214,-0.000609678216278553,-0.0013963517267256975
1772895896258150000,8.71514990234375,0.0008130967617034912,0.0008286237716674805,0.0003891307860612869
1772895896268118000,8.725117919921875,-0.0007413895800709724,-0.0007453039288520813,0.0006487886421382427
1772895896278085600,8.735085693359375,0.0009985603392124176,-0.00017074961215257645,0.0015554921701550484
1772895896288054800,8.7450546875,-0.0003098510205745697,-0.00030497368425130844,0.0013690711930394173
1772895896298022700,8.755022705078124,-0.0005137240514159203,-0.00003221072256565094,0.0024491515941917896
1772895896307990800,8.76499072265625,-0.00041092652827501297,0.0008032228797674179,-0.0006587575189769268
1772895896317959000,8.774958984375,-0.0011712852865457535,-0.0009199092164635658,0.0015867366455495358
1772895896327927800,8.784927734375,0.0013677729293704033,-0.0014743795618414879,0.002569176722317934
1772895896337896000,8.79489599609375,0.000004244968295097351,0.00007619243115186691,-0.001277367351576686
1772895896347863600,8.804863525390624,-0.0017867302522063255,-0.0003017093986272812,0.0012033670209348202
1772895896357833000,8.8148330078125,0.00033201463520526886,-0.0010470161214470863,0.0006604641675949097
1772895896367800800,8.82480078125,0.0017083361744880676,-0.0008366266265511513,-0.0004791023675352335
1772895896377768700,8.834768798828126,-0.0009599560871720314,0.0005062287673354149,-0.0007434878498315811
1772895896387736800,8.84473681640625,0.0016946829855442047,-0.00015689898282289505,-0.0010332397650927305
1772895896397705700,8.854705810546875,0.0000057853758335113525,-0.000867227092385292,0.001538722775876522
1772895896407673900,8.864673828125,-0.0019676173105835915,-0.00016788113862276077,0.000792505219578743
1772895896417642000,8.87464208984375,0.0000026151537895202637,-0.0005082273855805397,0.002533562947064638
1772895896427609600,8.884609619140624,0.0026985332369804382,0.0006007123738527298,-0.002729908563196659
1772895896437578800,8.894578857421875,0.0015191389247775078,-0.00002789776772260666,-0.00006803218275308609
1772895896447546600,8.904546630859375,-0.00015705451369285583,0.0005529383197426796,-0.0010752398520708084
1772895896457514800,8.9145146484375,-0.0005309833213686943,-0.001486150547862053,-0.00029256707057356834
1772895896467483600,8.924483642578124,0.0022653359919786453,-0.0017537986859679222,-0.0003290523309260607
1772895896477451800,8.93445166015625,0.002336866222321987,-0.0009307339787483215,0.00007908651605248451
1772895896487420000,8.944419921875,-0.0005145799368619919,-0.00019357074052095413,-0.003133484860882163
1772895896497387800,8.9543876953125,0.0007603196427226067,0.00010764691978693008,-0.00007642479613423347
1772895896507357000,8.96435693359375,0.00018694158643484116,0.0011824984103441238,-0.0015981551259756088
1772895896517324800,8.97432470703125,-0.00003150384873151779,0.0000946875661611557,0.0001842854544520378
1772895896527292700,8.984292724609375,-0.0019798725843429565,0.0014670146629214287,-0.002064754255115986
1772895896537260800,8.9942607421875,0.003960016183555126,0.0004599541425704956,-0.0013217288069427013
1772895896547229700,9.004229736328124,-0.0005377959460020065,0.0001877797767519951,0.0019294582307338715
1772895896557197800,9.01419775390625,-0.001179455779492855,-0.0014505451545119286,-0.0006123865023255348
1772895896567166000,9.024166015625,0.0005135154351592064,-0.0007892819121479988,0.00033729663118720055
1772895896577134800,9.034134765625,0.00015738047659397125,0.00033844541758298874,-0.0007244730368256569
1772895896587103000,9.04410302734375,-0.0005155997350811958,-0.0019803689792752266,0.0004976517520844936
1772895896597070600,9.054070556640625,-0.0021258145570755005,-0.0011134948581457138,0.002410546876490116
1772895896607038700,9.064038818359375,0.000006844289600849152,0.0030237259343266487,0.0004187687300145626
1772895896617007600,9.074007568359375,0.000439654104411602,-0.0010135145857930183,-0.0011556483805179596
1772895896626975700,9.083975830078124,0.0017906753346323967,-0.0003349408507347107,-0.00016015884466469288
1772895896636944000,9.09394384765625,-0.0016460604965686798,-0.0007259277626872063,-0.00226509477943182
1772895896646911700,9.103911865234375,0.0004221508279442787,-0.00026440247893333435,-0.0009612110443413258
1772895896656881000,9.113880859375,0.00011967308819293976,0.0013495748862624168,0.0026748073287308216
1772895896666849000,9.12384912109375,-0.0022454801946878433,-0.00010424479842185974,0.0004212404601275921
1772895896676816600,9.133816650390624,0.0002834489569067955,-0.0007442636415362358,-0.00013594701886177063
1772895896686785800,9.143785888671875,0.0010602930560708046,-0.0005450593307614326,-0.002168737817555666
1772895896696753700,9.153753662109375,-0.0011218059808015823,-0.00044122710824012756,-0.00015597720630466938
1772895896706721800,9.1637216796875,0.0014665201306343079,0.0005571916699409485,0.0019119675271213055
1772895896716690000,9.17368994140625,0.000650893896818161,-0.0005730660632252693,0.001016892958432436
1772895896726658800,9.183658935546875,0.0018391963094472885,0.0014461427927017212,0.0019162422977387905
1772895896736627000,9.193626953125,0.00046538375318050385,-0.0003355732187628746,0.0013257074169814587
1772895896746594800,9.2035947265625,0.00047443807125091553,0.0010237041860818863,-0.0002708577085286379
1772895896756562700,9.213562744140624,0.0007747439667582512,-0.002080850303173065,0.0007663141004741192
1772895896766531600,9.223531494140625,0.0006106933578848839,-0.0004376797005534172,-0.0005721906200051308
1772895896776499700,9.233499755859375,-0.00029800552874803543,0.00103717390447855,0.0008617378771305084
1772895896786467800,9.2434677734375,0.0017907116562128067,0.0005548754706978798,-0.0016613411717116833
1772895896796436700,9.253436767578124,0.001129508949816227,-0.00009979307651519775,0.00002164999023079872
1772895896806404900,9.26340478515625,-0.00014028605073690414,-0.0015829075127840042,-0.001878515351563692
1772895896816373000,9.273373046875,0.0006464645266532898,0.00026791635900735855,0.001795921940356493
1772895896826340600,9.283340576171875,0.000011567026376724243,0.0007275780662894249,-0.0006637738551944494
1772895896836310000,9.29331005859375,-0.0008834591135382652,0.00007896311581134796,0.0007584430277347565
1772895896846277600,9.303277587890625,0.0007248241454362869,0.00038416124880313873,0.0009749578312039375
1772895896856245800,9.313245849609375,-0.00022108200937509537,-0.0007491987198591232,0.0007987506687641144
1772895896866214000,9.3232138671875,0.0008481768891215324,0.0021350039169192314,-0.001585044665262103
1772895896876182800,9.333182861328124,0.0004345979541540146,0.001081220805644989,0.0005119610577821732
1772895896886151000,9.34315087890625,0.0007403288036584854,-0.000059410929679870605,-0.002160254865884781
1772895896896118800,9.353118896484375,-0.002086374908685684,0.0005979184061288834,-0.0018812550697475672
1772895896906088000,9.363087890625,-0.0020866412669420242,-0.0012891972437500954,0.0014359783381223679
1772895896916055600,9.3730556640625,-0.0010267915204167366,0.0007857000455260277,0.0006142957136034966
1772895896926023700,9.383023681640625,-0.0005255844444036484,0.0032352758571505547,0.0001138877123594284
1772895896935991800,9.39299169921875,0.0010190801694989204,-0.00022181682288646698,-0.000868537463247776
1772895896945960700,9.402960693359375,-0.00010290928184986115,0.0004458371549844742,0.0009083235636353493
1772895896955928800,9.4129287109375,-0.0029176445677876472,-0.0019311672076582909,-0.0003655240871012211
1772895896965897000,9.42289697265625,-0.0006430391222238541,0.0011466480791568756,0.0005500707775354385
1772895896975864600,9.432864501953125,0.0016336850821971893,-0.0005838554352521896,0.0001569506712257862
1772895896985833700,9.442833740234375,0.0017487332224845886,0.0017847595736384392,0.00123206852003932
1772895896995801600,9.452801513671876,-0.0010061915963888168,0.0012820195406675339,-0.0016694320365786552
1772895897005769700,9.462769775390624,0.0013578962534666061,-0.0007640868425369263,0.0013748272322118282
1772895897015738600,9.472738525390625,0.00015307124704122543,0.0009122667834162712,-0.00040472764521837234
1772895897025706800,9.482706787109375,0.0016345875337719917,-0.00009307637810707092,0.0011782553046941757
1772895897035675000,9.4926748046875,0.0008390424773097038,0.0004615234211087227,0.0015710489824414253
1772895897045642800,9.502642822265624,0.0019738152623176575,0.000090012326836586,-0.0008801245130598545
1772895897055612000,9.51261181640625,0.0007879734039306641,0.0002289535477757454,0.0009449124336242676
1772895897065579800,9.522579833984375,-0.0012309690937399864,-0.0012488346546888351,-0.0007637718226760626
1772895897075547600,9.532547607421876,-0.002105715684592724,-0.00038310978561639786,0.0006452570669353008
1772895897085515800,9.542515869140624,-0.0015634959563612938,-0.0006582150235772133,0.0028402344323694706
1772895897095484700,9.552484619140625,-0.001547783613204956,0.0003079799935221672,-0.0028006071224808693
1772895897105452800,9.562452880859375,-0.0006181718781590462,0.0010575763881206512,-0.00040265917778015137
1772895897115421000,9.5724208984375,0.0002438463270664215,-0.0011582709848880768,-0.0021196131128817797
1772895897125389800,9.582389892578124,0.0012393360957503319,0.0024598995223641396,0.000783498864620924
1772895897135358000,9.59235791015625,-0.0008330512791872025,-0.0016033714637160301,0.000025327783077955246
1772895897145325600,9.60232568359375,-0.0004844432696700096,0.0014081308618187904,0.00226504635065794
1772895897155293700,9.612293701171875,0.0012140702456235886,0.000058477744460105896,0.0011135470122098923
1772895897165262600,9.6222626953125,-0.0006038034334778786,0.0016286764293909073,0.00026186835020780563
1772895897175230700,9.632230712890625,-0.001977618783712387,0.0008932799100875854,-0.0022174580954015255
1772895897185198800,9.64219873046875,0.0018922202289104462,-0.0008415030315518379,-0.0008627080824226141
1772895897195167700,9.652167724609376,-0.001170285977423191,-0.0005664285272359848,-0.001492306124418974
1772895897205136000,9.662135986328124,-0.00014390423893928528,0.0006554294377565384,-0.0017434421461075544
1772895897215103700,9.672103759765625,0.0002923468127846718,-0.0005178246647119522,0.0030754413455724716
1772895897225071600,9.682071533203125,0.0012359051033854485,-0.0008448604494333267,0.00419423496350646
1772895897235040800,9.692040771484375,0.0009677037596702576,0.0012418385595083237,-0.002294952515512705
1772895897245008600,9.702008544921876,-0.00029516778886318207,0.001990453340113163,-0.0010920027270913124
1772895897254976800,9.711976806640624,0.0004298761487007141,0.0003431914374232292,0.0007754052057862282
1772895897264945000,9.72194482421875,-0.001376279629766941,-0.0005167433992028236,0.000828402116894722
1772895897274913800,9.731913818359375,0.0007224073633551598,-0.0002741347998380661,0.0006321803666651249
1772895897284882000,9.7418818359375,0.00008671078830957413,-0.0007391227409243584,-0.0016536107286810875
1772895897294849500,9.751849609375,-0.00017931219190359116,0.00000775512307882309,0.0021959422156214714
1772895897304819000,9.76181884765625,-0.0016144895926117897,-0.0028370339423418045,-0.0006855980027467012
1772895897314786600,9.77178662109375,-0.0010811937972903252,-0.0012332238256931305,0.00019490718841552734
1772895897324754700,9.781754638671876,0.000005908310413360596,0.001031794585287571,-0.003060540882870555
1772895897334722800,9.791722900390624,0.0003983406350016594,0.000589277595281601,0.0020577949471771717
1772895897344691700,9.801691650390625,-0.0008157938718795776,-0.001306626945734024,-0.0011177582200616598
1772895897354659800,9.811659912109375,0.000009274110198020935,0.003243241459131241,0.0009588049724698067
1772895897364627700,9.821627685546876,-0.001098867505788803,0.0004162965342402458,0.00035187089815735817
1772895897374595600,9.831595703125,-0.001161768101155758,0.0017224764451384544,-0.0009702276438474655
1772895897384564700,9.841564697265625,-0.001907186582684517,-0.00018834229558706284,-0.0026954233180731535
1772895897394532600,9.85153271484375,-0.000092310830950737,-0.0006789257749915123,-0.0009655216708779335
1772895897404500700,9.861500732421876,0.0014517894014716148,0.0002987207844853401,0.0011961660347878933
1772895897414469600,9.8714697265625,-0.0015040598809719086,0.0004150485619902611,-0.00003823544830083847
1772895897424437800,9.881437744140625,0.0030568698421120644,-0.0017125513404607773,-0.0010166808497160673
1772895897434406000,9.891406005859375,-0.0013592541217803955,0.003332722932100296,0.0009694229811429977
1772895897444373800,9.901373779296875,0.0012304028496146202,0.0009555863216519356,0.0009893965907394886
1772895897454343000,9.911343017578124,0.0019220998510718346,-0.0010161977261304855,-0.0016611977480351925
1772895897464310500,9.921310546875,0.0008706841617822647,0.00038782041519880295,0.0018597673624753952
1772895897474278700,9.931278564453125,0.00046348385512828827,-0.0013656746596097946,0.0005176742561161518
1772895897484247800,9.941247802734376,0.0010283403098583221,-0.0015558237209916115,0.0007104869000613689
1772895897494215700,9.951215576171874,0.0006140256300568581,0.0019461680203676224,-0.0019308940973132849
1772895897504183800,9.961183837890625,0.0003149528056383133,-0.001264273189008236,0.0019370811060070992
1772895897514152000,9.97115185546875,0.0026566525921225548,0.0006050225347280502,-0.003209922695532441
1772895897524120800,9.981120849609376,0.000023851171135902405,0.0003227274864912033,0.0008090538904070854
1772895897534089000,9.9910888671875,-0.00010905507951974869,0.0027076853439211845,0.0011194613762199879
1772895897544056600,10.001056640625,-0.0007532741874456406,0.001951613463461399,-0.00031278678216040134
1772895897554024700,10.011024658203125,0.0010247891768813133,0.0055414168164134026,-0.0016095563769340515
1772895897563993600,10.02099365234375,0.00015580002218484879,0.0007469290867447853,-0.0010255251545459032
1772895897573961700,10.030961669921876,-0.0016936315223574638,-0.00009397882968187332,-0.0021636178717017174
1772895897583929900,10.040929931640624,-0.002974345348775387,0.0009824708104133606,0.0019182092510163784
1772895897593898800,10.050898681640625,0.0010724812746047974,0.00042008329182863235,-0.0017410314176231623
1772895897603867000,10.060866943359375,0.0019167037680745125,-0.00029497500509023666,0.000021182233467698097
1772895897613834800,10.070834716796876,0.0011073360219597816,0.0013839434832334518,0.00024084839969873428
1772895897623802600,10.080802734375,0.00021863915026187897,0.00036368705332279205,-0.0005229462403804064
1772895897633774800,10.09077490234375,0.0012939488515257835,0.0007195025682449341,0.0024612376000732183
1772895897643742700,10.10074267578125,-0.0006562843918800354,0.0011405488476157188,0.00021432875655591488
1772895897653710800,10.1107109375,-0.0020266640931367874,0.0019256863743066788,0.0016926417592912912
1772895897663679700,10.1206796875,0.00016698148101568222,0.0012236768379807472,-0.0016392390243709087
1772895897673647600,10.130647705078125,0.00001124013215303421,0.0018378933891654015,-0.0006733578629791737
1772895897683615700,10.14061572265625,0.0005462691187858582,-0.00043804384768009186,-0.0007710959762334824
1772895897693583600,10.15058349609375,0.0014116233214735985,0.0007026595994830132,-0.0002950509078800678
1772895897703552800,10.160552734375,-0.000896005891263485,-0.0015245415270328522,0.0011734161525964737
1772895897713520600,10.170520751953125,-0.00010984670370817184,0.0008736122399568558,0.0018269962165504694
1772895897723488800,10.18048876953125,0.000749821774661541,0.00022140424698591232,0.0030555122066289186
1772895897733458000,10.1904580078125,0.00089225172996521,0.00007208436727523804,0.00026988680474460125
1772895897743425800,10.20042578125,-0.0002590324729681015,0.0003996528685092926,-0.0014776794705539942
1772895897753393700,10.2103935546875,-0.0016414066776633263,0.0011151740327477455,-0.002149424282833934
1772895897763361800,10.22036181640625,0.0017991308122873306,-0.0009391875937581062,-0.00003753742203116417
1772895897773330700,10.23033056640625,0.0019017774611711502,0.0008747754618525505,0.0019071712158620358
1772895897783298800,10.240298828125,0.002960383892059326,-0.0007327087223529816,-0.0019336397526785731
1772895897793266700,10.2502666015625,0.001591225154697895,-0.00045828428119421005,-0.0007220483385026455
1772895897803234800,10.26023486328125,0.001554739661514759,0.0010416079312562943,-0.00010845600627362728
1772895897813203700,10.27020361328125,-0.0000756625086069107,-0.0014649918302893639,-0.0007993984036147594
1772895897823171800,10.280171875,0.0011422010138630867,-0.0012663202360272408,0.0009500321466475725
1772895897833139700,10.2901396484375,0.0006564455106854439,0.0016914485022425652,0.00022946810349822044
1772895897843108600,10.300108642578126,-0.0009710127487778664,-0.00048568565398454666,-0.002059785183519125
1772895897853076700,10.31007666015625,0.00031534861773252487,0.0022388221696019173,0.0013511902652680874
1772895897863044900,10.320044921875,-0.001321430318057537,-0.0006941165775060654,0.00027367519214749336
1772895897873012700,10.3300126953125,-0.0022682640701532364,0.0010136505588889122,-0.0008874947670847178
1772895897882982000,10.33998193359375,0.00038158148527145386,-0.0007166052237153053,-0.00026271725073456764
1772895897892949800,10.34994970703125,0.0002504410222172737,-0.00048760417848825455,-0.00011717528104782104
1772895897902918000,10.35991796875,-0.0006212117150425911,0.000798436813056469,-0.00044341268949210644
1772895897912886800,10.36988671875,-0.001119839958846569,0.00012021046131849289,0.0030627609230577946
1772895897922854700,10.379854736328125,0.0006154756993055344,-0.0014340104535222054,0.0012227832339704037
1772895897932822800,10.38982275390625,-0.0009691799059510231,0.00046910345554351807,-0.001052905572578311
1772895897942790700,10.399790771484374,-0.001866932027041912,-0.0006046835333108902,0.0011085160076618195
1772895897952759800,10.409759765625,-0.00104550551623106,-0.0015809210017323494,0.0005255138967186213
1772895897962727700,10.419727783203125,-0.0014156848192214966,0.0009773122146725655,0.0007007496897131205
1772895897972696000,10.429696044921876,0.001761096529662609,-0.0020676404237747192,0.0029693820979446173
1772895897982665000,10.4396650390625,-0.0013654548674821854,-0.0010340679436922073,0.00003298069350421429
1772895897992633000,10.449633056640625,-0.0008989851921796799,-0.0009766630828380585,-0.00035342946648597717
1772895898002601200,10.459601318359375,0.001580950804054737,0.0015813028439879417,0.00007693725638091564
1772895898012569000,10.469569091796876,-0.0005911048501729965,-0.0027655092999339104,-0.001750028459355235
1772895898022538200,10.479538330078125,-0.0017402591183781624,-0.00003283936530351639,-0.0004623900167644024
1772895898032506000,10.489506103515625,0.00032378826290369034,0.0030143335461616516,0.0002591784577816725
1772895898042474000,10.499473876953125,0.0006425688043236732,-0.0004467107355594635,0.001459997845813632
1772895898052442000,10.509442138671876,0.0017824145033955574,0.0005965828895568848,0.0018058335408568382
1772895898062411000,10.519410888671874,-0.0012059183791279793,0.0020477399230003357,-0.003239791374653578
1772895898072379100,10.529379150390625,0.0019255178049206734,-0.00039269961416721344,0.0020945919677615166
1772895898082347300,10.53934716796875,-0.001669216901063919,-0.0005394406616687775,-0.0020146656315773726
1772895898092316200,10.549316162109376,0.0018429942429065704,-0.000056694261729717255,-0.0008199617732316256
1772895898102284300,10.5592841796875,-0.00011762510985136032,0.002166779711842537,0.0041902437806129456
1772895898112252200,10.569252197265625,-0.0010854844003915787,0.0004063807427883148,-0.0009376213420182467
1772895898122220000,10.579219970703125,0.0005257278680801392,-0.00041520409286022186,-0.0019682645797729492
1772895898132189000,10.58918896484375,0.0008785491809248924,-0.0004819463938474655,-0.0017265055794268847
1772895898142157000,10.599156982421874,-0.0020104479044675827,0.0019252849742770195,0.0030666517559438944
1772895898152125200,10.609125244140625,-0.0030283816158771515,-0.0007378049194812775,-0.0010490799322724342
1772895898162094000,10.619093994140625,-0.0014555184170603752,-0.0003646956756711006,0.0005986178293824196
1772895898172062200,10.629062255859376,0.0003277743235230446,-0.00009450875222682953,-0.00006605335511267185
1772895898182030000,10.639030029296874,-0.0006536012515425682,0.0009622331708669662,0.0013475525192916393
1772895898191998200,10.648998291015625,-0.0008977418765425682,0.0011591659858822823,0.0028440491296350956
1772895898201967400,10.65896728515625,-0.000037008896470069885,-0.0006403317674994469,0.001686106901615858
1772895898211935000,10.66893505859375,0.0006673624739050865,-0.00013322848826646805,-0.0008499284740537405
1772895898221903000,10.678903076171874,-0.0001944359391927719,0.0009639943018555641,0.00026700133457779884
1772895898231872000,10.6888720703125,-0.0005386630073189735,-0.00132047850638628,0.0005083498544991016
1772895898241840000,10.698840087890625,0.00062513817101717,0.0005503920838236809,0.0003379075787961483
1772895898251808300,10.708808349609376,0.001138230785727501,0.0016616322100162506,0.002166185062378645
1772895898261776100,10.718776123046876,-0.000014917925000190735,0.0007210047915577888,-0.000645047752186656
1772895898271745300,10.728745361328125,-0.0009031398221850395,0.0005311146378517151,-0.0019436032744124532
1772895898281713000,10.738712890625,0.0007863696664571762,-0.0010265689343214035,0.0008854728657752275
1772895898291681000,10.748680908203125,-0.0018463367596268654,0.000408003106713295,-0.0003402137663215399
1772895898301650000,10.75864990234375,-0.0011371364817023277,-0.0005179774016141891,0.001864351099357009
1772895898311618000,10.7686181640625,-0.0021423082798719406,0.00018543843179941177,0.000143375713378191
1772895898321586200,10.778586181640625,-0.002191842533648014,0.0001673288643360138,-0.0013005903456360102
1772895898331554000,10.788553955078125,0.0011825310066342354,-0.0010154005140066147,0.001547512598335743
1772895898341523200,10.798523193359374,0.00026400666683912277,-0.0012369761243462563,-0.0026259268634021282
1772895898351491300,10.8084912109375,0.001523209735751152,-0.000951751135289669,-0.00009318208321928978
1772895898361459000,10.818458984375,0.0004169326275587082,0.000667184591293335,-0.0004532414022833109
1772895898371427000,10.828427001953125,-0.0018920786678791046,0.000030056573450565338,0.00007011718116700649
1772895898381396000,10.83839599609375,-0.0011226916685700417,0.0006457790732383728,-0.0010617263615131378
1772895898391364000,10.848364013671874,-0.0021460941061377525,-0.0019036894664168358,0.0010415057186037302
1772895898401332200,10.858332275390625,0.0016427850350737572,0.00028862524777650833,0.0006516191642731428
1772895898411301000,10.868301025390625,0.0010409289970993996,0.00014030467718839645,0.004209581762552261
1772895898421269200,10.878269287109376,0.0014441320672631264,0.0008351234719157219,0.0006776973605155945
1772895898431237000,10.888237060546874,0.0009331041947007179,0.0003668181598186493,0.00011853082105517387
1772895898441205000,10.898205078125,0.0018958374857902527,0.0006198184564709663,-0.0004545813426375389
1772895898451174100,10.908174072265625,0.002002364955842495,-0.0012318724766373634,0.0008117514662444592
1772895898461142000,10.91814208984375,-0.0008525438606739044,-0.0017951307818293571,0.0002876417711377144
1772895898471110100,10.928110107421874,0.0015612253919243813,-0.0008772779256105423,0.003038187976926565
1772895898481079000,10.9380791015625,-7.180497050285339e-7,0.001532617025077343,0.0031822649762034416
1772895898491047200,10.948047119140625,0.000011387281119823456,-0.0012351656332612038,0.0025093811564147472
1772895898501015300,10.958015380859376,0.0012452295050024986,-0.0011629937216639519,-0.0019066727254539728
1772895898510983200,10.967983154296874,0.0013274643570184708,-0.0009820805862545967,0.002816413063555956
1772895898520952300,10.977952392578125,-0.0005085188895463943,-0.0008723586797714233,0.0018576751463115215
1772895898530920000,10.987919921875,-0.0008726632222533226,0.0001926897093653679,-0.001032388536259532
1772895898540888000,10.99788818359375,0.0010714447125792503,0.0018483763560652733,-0.002492866013199091
1772895898550857000,11.00785693359375,0.0013371994718909264,-0.0011666584759950638,0.0005916785448789597
1772895898560825000,11.0178251953125,-0.002020779997110367,-0.00043029431253671646,0.001294486690312624
1772895898570793200,11.027793212890625,0.0013944953680038452,0.000560409389436245,-0.000830736244097352
1772895898580761000,11.037760986328125,-0.0007930248975753784,-0.0023134080693125725,-0.00056282221339643
1772895898590730200,11.047730224609374,-0.00048428960144519806,0.00019585434347391129,0.0008191419765353203
1772895898600698000,11.057697998046875,0.00017830543220043182,-0.0009799310937523842,0.002996808849275112
1772895898610666000,11.067666015625,0.0008903900161385536,0.001348339021205902,-0.0004068128764629364
1772895898620634000,11.077634033203125,0.0009444523602724075,-0.0013622269034385681,-0.0029887473210692406
1772895898630603000,11.08760302734375,0.0013365568593144417,0.0013565383851528168,-0.0020148111507296562
1772895898640571100,11.097571044921875,0.0002084420993924141,0.00022549275308847427,0.0003231782466173172
1772895898650539300,11.107539306640625,0.0002991771325469017,0.0005475832149386406,0.001817791722714901
1772895898660508200,11.117508056640625,-0.0009354641661047935,0.0005065705627202988,0.003662297036498785
1772895898670476300,11.127476318359374,0.001470118761062622,0.00006873160600662231,0.0012636655010282993
1772895898680444200,11.137444091796874,0.0021476270630955696,0.001006697304546833,0.002001894172281027
1772895898690412000,11.147412109375,-0.0008335541933774948,-0.003131397068500519,0.0010180305689573288
1772895898700381000,11.157380859375,0.0023776860907673836,-0.0009816931560635567,0.0015349499881267548
1772895898710349000,11.16734912109375,-0.0001047179102897644,-0.00034045521169900894,-0.0011420196387916803
1772895898720317200,11.177317138671874,-0.0007622521370649338,0.0003607552498579025,-0.0008384191896766424
1772895898730286000,11.1872861328125,-0.0006790114566683769,-0.0005430616438388824,-0.0013305740430951118
1772895898740254200,11.197254150390625,0.001667233183979988,-0.001971314661204815,0.001896910835057497
1772895898750222000,11.20722216796875,0.00026032421737909317,-0.000037352554500103,0.0008394047617912292
1772895898760190000,11.21718994140625,-0.0003420831635594368,-0.002432866021990776,0.001737422775477171
1772895898770159000,11.2271591796875,-0.000060492195188999176,-0.002755883149802685,0.0017254515551030636
1772895898780127000,11.237126953125,0.0008875932544469833,-0.00036596227437257767,-0.0010186696890741587
1772895898790095000,11.24709521484375,0.0013117371127009392,-0.0004229862242937088,-0.00041080103255808353
1772895898800064000,11.25706396484375,-0.0036992672830820084,0.0013426896184682846,0.002446504309773445
1772895898810032000,11.2670322265625,0.0021242257207632065,0.001806388609111309,-0.000898607075214386
1772895898820000300,11.277000244140625,0.000043764710426330566,-0.00200725719332695,0.0014716065488755703
1772895898829968100,11.286968017578126,-0.0007451632991433144,0.0012386329472064972,0.0004940927028656006
1772895898839937300,11.296937255859374,0.002366740256547928,-0.0016823215410113335,-0.0018015522509813309
1772895898849905000,11.30690478515625,0.00009788945317268372,-0.0003864327445626259,-0.0007259768899530172
1772895898859873000,11.316873046875,-0.0009727012366056442,-0.002226943150162697,-0.002233325969427824
1772895898869842200,11.32684228515625,-0.001027044840157032,-0.0018670838326215744,-0.001997108571231365
1772895898879810000,11.33681005859375,0.0018489034846425056,-0.003008248284459114,0.00023142481222748756
1772895898889778200,11.346778076171875,-0.001766677014529705,0.00045406073331832886,-0.0029542369302362204
1772895898899746300,11.356746337890625,0.0004578614607453346,-0.0006197262555360794,0.0010527553968131542
1772895898909715200,11.366715087890626,0.0019280510023236275,0.0007243789732456207,-0.002103827428072691
1772895898919683300,11.376683349609374,0.000655059702694416,0.000166979618370533,-0.001181574771180749
1772895898929651000,11.38665087890625,-0.0013822196051478386,-0.0011349814012646675,0.0008540237322449684
1772895898939620000,11.3966201171875,-0.0009113727137446404,-0.000624452717602253,0.0001554763875901699
1772895898949588000,11.406587890625,-0.0005196928977966309,-0.0009569255635142326,0.00040800077840685844
1772895898959556000,11.41655615234375,-0.0006421981379389763,-0.002090900205075741,-0.002145970705896616
1772895898969524500,11.4265244140625,0.0005414122715592384,0.0016652252525091171,0.002440601121634245
1772895898979493400,11.436493408203125,0.00006577186286449432,-0.00034865736961364746,-0.0009954094421118498
1772895898989461500,11.44646142578125,0.0008296621963381767,0.0007854383438825607,-0.0008826383855193853
1772895898999429400,11.456429443359376,0.0009367214515805244,-0.00035572610795497894,0.00006810994818806648
