time,seconds_elapsed,z,y,x
1772895887548401700,0.005401611328125,-0.009814813733100891,0.014346448704600334,0.005091697443276644
1772895887558369500,0.01536962890625,-0.011195662431418896,0.013562946580350399,0.004569185432046652
1772895887568338700,0.025338623046875,-0.011514176614582539,0.013227920979261398,0.0014136058744043112
1772895887578306600,0.035306640625,-0.012504340149462223,0.01600533165037632,0.006657103542238474
1772895887588274700,0.045274658203125,-0.012270248495042324,0.012533634901046753,0.0041699777357280254
1772895887598242800,0.055242919921875,-0.01013599056750536,0.012248942628502846,0.001020523370243609
1772895887608210700,0.065210693359375,-0.010815363377332687,0.016352608799934387,0.004507932811975479
1772895887618179600,0.0751796875,-0.011746404692530632,0.014897456392645836,0.0005302353529259562
1772895887628147700,0.085147705078125,-0.009968211874365807,0.01563914678990841,0.002882871776819229
1772895887638115600,0.095115478515625,-0.010746920481324196,0.013420467264950275,0.005406749434769154
1772895887648083700,0.105083740234375,-0.015989352017641068,0.01486150361597538,0.004488225560635328
1772895887658051800,0.1150517578125,-0.012764531187713146,0.0161797683686018,0.0034674357157200575
1772895887668020700,0.125020751953125,-0.012881177477538586,0.015908658504486084,0.006207562051713467
1772895887677988900,0.13498876953125,-0.013264672830700874,0.014134993776679039,0.0036434705834835768
1772895887687956500,0.14495654296875,-0.014387727715075016,0.014782674610614777,0.004716990981251001
1772895887697924600,0.154924560546875,-0.013321131467819214,0.01594141498208046,0.004518851637840271
1772895887707892700,0.164892822265625,-0.012831109575927258,0.015026353299617767,0.002751844236627221
1772895887717861600,0.174861572265625,-0.01176105160266161,0.016998691484332085,0.004214984830468893
1772895887727829800,0.184829833984375,-0.010509366169571877,0.0173795223236084,0.0025779400020837784
1772895887737797600,0.194797607421875,-0.010527742095291615,0.01330062560737133,0.003823766717687249
1772895887747765800,0.204765869140625,-0.013624466024339199,0.014809039421379566,0.0018937737913802266
1772895887757733600,0.214733642578125,-0.014126471243798733,0.01577257178723812,0.0016490293201059103
1772895887767702500,0.22470263671875,-0.013174391351640224,0.015352058224380016,0.0032354744616895914
1772895887777670700,0.234670654296875,-0.012622051872313023,0.011653460562229156,0.006232862360775471
1772895887787638800,0.244638671875,-0.011291270144283772,0.016203204169869423,0.006490389816462994
1772895887797606700,0.254606689453125,-0.012439092621207237,0.016210928559303284,0.00446984963491559
1772895887807575800,0.264575927734375,-0.011726430617272854,0.013103551231324673,0.0039084553718566895
1772895887817543700,0.274543701171875,-0.010380469262599945,0.013276923447847366,0.002832538215443492
1772895887827511600,0.284511474609375,-0.011504855938255787,0.015137141570448875,0.005688778590410948
1772895887837479700,0.294479736328125,-0.012444152496755123,0.015190936625003815,0.0019715381786227226
1772895887847447600,0.304447509765625,-0.011493937112390995,0.0136036928743124,0.0033752904273569584
1772895887857416700,0.314416748046875,-0.009881659410893917,0.015911854803562164,0.004070375580340624
1772895887867384600,0.324384521484375,-0.01176398154348135,0.014582138508558273,0.002576075727120042
1772895887877352700,0.334352783203125,-0.013106214813888073,0.01384204626083374,0.00336117553524673
1772895887887320800,0.34432080078125,-0.013306484557688236,0.012223376892507076,0.0017576862592250109
1772895887897288400,0.354288330078125,-0.009692574851214886,0.013251889497041702,0.005974003113806248
1772895887907257600,0.364257568359375,-0.012047608382999897,0.013324327766895294,0.00535375252366066
1772895887917225500,0.3742255859375,-0.012582371011376381,0.013613014481961727,0.0038567897863686085
1772895887927193600,0.384193603515625,-0.013601829297840595,0.013962420634925365,0.004050135146826506
1772895887937161700,0.39416162109375,-0.013891047798097134,0.01309183333069086,0.0016626114957034588
1772895887947129600,0.404129638671875,-0.011691276915371418,0.014808240346610546,0.0032296155113726854
1772895887957098500,0.414098388671875,-0.013184777460992336,0.0140785351395607,0.0039116512052714825
1772895887967066600,0.424066650390625,-0.014278803952038288,0.013393569737672806,0.003820038167759776
1772895887977034500,0.434034423828125,-0.012197011150419712,0.014817029237747192,0.005392634775489569
1772895887987002600,0.444002685546875,-0.011593539267778397,0.012133894488215446,0.007515707053244114
1772895887996970500,0.453970458984375,-0.01251286268234253,0.016141418367624283,0.0032754219137132168
1772895888006939400,0.463939453125,-0.011519236490130424,0.018088456243276596,0.005519933998584747
1772895888016907500,0.473907470703125,-0.012719789519906044,0.014272146858274937,0.00011371697473805398
1772895888026875400,0.48387548828125,-0.011929896660149097,0.015854064375162125,0.002117745578289032
1772895888036843500,0.493843505859375,-0.012175706215202808,0.013587980531156063,0.004791559185832739
1772895888046812400,0.5038125,-0.013146961107850075,0.013420733623206615,0.00022157499915920198
1772895888056780500,0.513780517578125,-0.011033209972083569,0.013056146912276745,0.0023435817565768957
1772895888066748400,0.52374853515625,-0.011028682813048363,0.01558295451104641,0.004712196998298168
1772895888076716500,0.533716552734375,-0.012574381195008755,0.014108095318078995,0.004337756894528866
1772895888086684400,0.543684326171875,-0.009285377338528633,0.012943761423230171,0.00887684803456068
1772895888096653600,0.553653564453125,-0.01152669358998537,0.014348845928907394,0.003924700431525707
1772895888106621400,0.563621337890625,-0.012643356807529926,0.014854047447443008,0.00213612150400877
1772895888116589600,0.573589599609375,-0.011786085553467274,0.014647119678556919,0.0030000510159879923
1772895888126557700,0.5835576171875,-0.014180533587932587,0.01446922030299902,0.003769704606384039
1772895888136525300,0.593525390625,-0.011139203794300556,0.01321140956133604,0.0043982104398310184
1772895888146494500,0.603494384765625,-0.014080931432545185,0.013588246889412403,0.0008807073463685811
1772895888156462300,0.61346240234375,-0.011738414876163006,0.012689163908362389,0.003998736385256052
1772895888166430500,0.623430419921875,-0.01227690652012825,0.014277739450335503,0.0033997914288192987
1772895888176398600,0.633398681640625,-0.013235644437372684,0.014844725839793682,0.0023217438720166683
1772895888186367500,0.643367431640625,-0.012148807756602764,0.013571202754974365,0.000663393409922719
1772895888196335600,0.653335693359375,-0.012601811438798904,0.014758972451090813,0.0046354979276657104
1772895888206303500,0.663303466796875,-0.011700598523020744,0.01350355800241232,0.0031166973058134317
1772895888216271400,0.673271240234375,-0.012349343858659267,0.012773052789270878,0.006629140581935644
1772895888226239500,0.683239501953125,-0.013069995678961277,0.01461755856871605,0.005274123977869749
1772895888236208400,0.69320849609375,-0.011063570156693459,0.012401808053255081,0.0065500447526574135
1772895888246176500,0.703176513671875,-0.010214554145932198,0.012630041688680649,0.0046845003962516785
1772895888256144600,0.71314453125,-0.0129938293248415,0.013331251218914986,0.004408597014844418
1772895888266112500,0.723112548828125,-0.010978348553180695,0.013401026837527752,0.0013185309944674373
1772895888276080600,0.73308056640625,-0.011451059952378273,0.01733344979584217,0.002344646956771612
1772895888286049500,0.743049560546875,-0.012408466078341007,0.013466274365782738,0.004462126176804304
1772895888296017400,0.753017333984375,-0.012250540778040886,0.013877732679247856,0.002029062481597066
1772895888305985500,0.762985595703125,-0.01110378373414278,0.012937369756400585,0.0046360306441783905
1772895888315953400,0.772953369140625,-0.012153868563473225,0.013741911388933659,0.0049247173592448235
1772895888325922600,0.782922607421875,-0.011520568281412125,0.012661732733249664,0.002885801251977682
1772895888335890400,0.792890380859375,-0.015262309461832047,0.015055381692945957,0.004450674634426832
1772895888345858600,0.802858642578125,-0.012112323194742203,0.015047392807900906,0.005349491722881794
1772895888355826700,0.81282666015625,-0.01095464639365673,0.01347266510128975,0.004644286818802357
1772895888365794300,0.822794189453125,-0.011999404989182949,0.016051670536398888,0.0060024987906217575
1772895888375763500,0.832763427734375,-0.010302172042429447,0.012468387372791767,0.006657902617007494
1772895888385731600,0.842731689453125,-0.014152304269373417,0.012469452805817127,0.006114617921411991
1772895888395699500,0.852699462890625,-0.011720571666955948,0.013232714496552944,0.004683967679738998
1772895888405667600,0.86266748046875,-0.01372060552239418,0.014772022143006325,0.0057228668592870235
1772895888415635700,0.8726357421875,-0.011292069219052792,0.014789332635700703,0.0059774648398160934
1772895888425604600,0.8826044921875,-0.01224335003644228,0.013706491328775883,0.0023334617726504803
1772895888435572500,0.892572509765625,-0.009836118668317795,0.014478009194135666,0.0033894050866365433
1772895888445540400,0.902540283203125,-0.011600996367633343,0.014809838496148586,0.003525226376950741
1772895888455508500,0.912508544921875,-0.013172261416912079,0.013232448138296604,0.0030658310279250145
1772895888465477400,0.922477294921875,-0.011767443269491196,0.015323828905820847,0.004234958905726671
1772895888475445500,0.932445556640625,-0.011984757147729397,0.014399445615708828,0.00923451129347086
1772895888485413600,0.94241357421875,-0.011458250693976879,0.01321300771087408,0.003923634998500347
1772895888495381500,0.952381591796875,-0.013316071592271328,0.015141136012971401,0.00415453128516674
1772895888505349400,0.962349365234375,-0.01395895890891552,0.014520885422825813,0.004524976946413517
1772895888515318300,0.972318359375,-0.012987970374524593,0.012295282445847988,0.006283462047576904
1772895888525286400,0.982286376953125,-0.011349060572683811,0.014878548681735992,0.004701011814177036
1772895888535254500,0.992254638671875,-0.011008708737790585,0.0034027209039777517,-0.0011976235546171665
1772895888545222400,1.002222412109375,-0.010841196402907372,0.021751102060079575,0.01392886508256197
1772895888555191600,1.012191650390625,-0.01230593491345644,0.013562680222094059,-0.0014207963831722736
1772895888565159700,1.02215966796875,-0.011057178489863873,0.020297015085816383,0.01076742634177208
1772895888575127600,1.03212744140625,-0.01119433157145977,0.012231099419295788,-0.0006149238906800747
1772895888585095400,1.042095458984375,-0.011936021968722343,0.015664979815483093,0.007815312594175339
1772895888595063600,1.0520634765625,-0.011653993278741837,0.00848483107984066,-0.003099120454862714
1772895888605032400,1.062032470703125,-0.013756291940808296,0.01890365034341812,0.013080381788313389
1772895888615000600,1.07200048828125,-0.00974450632929802,0.011834288947284222,-0.0031249532476067543
1772895888624968400,1.081968505859375,-0.010852647945284843,0.017601896077394485,0.00860494002699852
1772895888634936600,1.0919365234375,-0.01025609951466322,0.013051886111497879,0.0013640711549669504
1772895888644904700,1.10190478515625,-0.01073866430670023,0.013641243800520897,0.00759879732504487
1772895888654873600,1.11187353515625,-0.01245134323835373,0.014218084514141083,0.002014415105804801
1772895888664841500,1.121841552734375,-0.01619734615087509,0.01979873888194561,0.007730624172836542
1772895888674809300,1.131809326171875,-0.011608718894422054,0.010379403829574585,-0.0007014766451902688
1772895888684777500,1.141777587890625,-0.011611116118729115,0.01218502689152956,0.006779076531529427
1772895888694746400,1.151746337890625,-0.011700598523020744,0.014181066304445267,0.003778226673603058
1772895888704714500,1.161714599609375,-0.011318434961140156,0.019304189831018448,0.006365221459418535
1772895888714682600,1.1716826171875,-0.013076120987534523,0.013829795643687248,0.001142496126703918
1772895888724650500,1.181650390625,-0.013487579300999641,0.01113148033618927,0.005015797447413206
1772895888734618400,1.191618408203125,-0.012356268242001534,0.01272751297801733,0.0030208237003535032
1772895888744587500,1.20158740234375,-0.011098990216851234,0.012600214220583439,0.004024835303425789
1772895888754555400,1.211555419921875,-0.012985306791961193,0.016741428524255753,0.004512193612754345
1772895888764523500,1.2215234375,-0.014297446236014366,0.012954680249094963,0.003183542750775814
1772895888774491600,1.23149169921875,-0.011567706242203712,0.01161297969520092,0.002579537918791175
1772895888784460500,1.24146044921875,-0.01053440012037754,0.013220197521150112,0.0061535001732409
1772895888794428700,1.2514287109375,-0.01158688124269247,0.015123825520277023,0.001374457380734384
1772895888804396300,1.261396240234375,-0.01028352975845337,0.015062572434544563,0.005243764258921146
1772895888814364400,1.271364501953125,-0.011273959651589394,0.015963520854711533,0.0030831415206193924
1772895888824332500,1.28133251953125,-0.012010323815047741,0.013559218496084213,0.002034388715401292
1772895888834301400,1.291301513671875,-0.01227237842977047,0.014243118464946747,0.0019680759869515896
1772895888844269600,1.30126953125,-0.010194048285484314,0.015326491557061672,0.0053553506731987
1772895888854237400,1.311237548828125,-0.010189786553382874,0.01255067903548479,0.0012088088551536202
1772895888864205600,1.32120556640625,-0.011444135569036007,0.012252671644091606,0.002460228279232979
1772895888874174700,1.3311748046875,-0.010068080388009548,0.013366671279072762,0.0036964674945920706
1772895888884142300,1.341142333984375,-0.0113413380458951,0.01569693721830845,0.005898635368794203
1772895888894110500,1.3511103515625,-0.011286476626992226,0.01404897402971983,0.0022474415600299835
1772895888904078600,1.36107861328125,-0.011668107472360134,0.016037022694945335,0.004864796530455351
1772895888914046500,1.37104638671875,-0.012053733691573143,0.014057761989533901,0.0020956413354724646
1772895888924015600,1.381015625,-0.011422297917306423,0.012570919468998909,0.0031071100383996964
1772895888933983500,1.3909833984375,-0.014427674934267998,0.015090003609657288,0.00440939562395215
1772895888943951600,1.40095166015625,-0.01176557969301939,0.014489727094769478,0.005770271178334951
1772895888953919500,1.41091943359375,-0.01091816183179617,0.015930762514472008,0.0026700852904468775
1772895888963887000,1.42088720703125,-0.012576778419315815,0.012709403410553932,0.008107194676995277
1772895888973856300,1.430856201171875,-0.01312006264925003,0.013974671252071857,0.0018402442801743746
1772895888983824100,1.44082421875,-0.011089136824011803,0.014507570303976536,0.0004932174342684448
1772895888993792300,1.450792236328125,-0.013482519425451756,0.014657239429652691,0.0030415961518883705
1772895889003760400,1.460760498046875,-0.011975702829658985,0.012386894784867764,0.0032754219137132168
1772895889013729300,1.470729248046875,-0.012556804344058037,0.012202071025967598,0.004899950232356787
1772895889023697400,1.480697509765625,-0.012582104653120041,0.014710236340761185,0.004640824627131224
1772895889033665300,1.490665283203125,-0.011242002248764038,0.013260412029922009,0.004160390235483646
1772895889043633200,1.500633056640625,-0.012349610216915607,0.013792511075735092,0.005323659162968397
1772895889053601300,1.510601318359375,-0.011067564599215984,0.013214604929089546,0.0034258903469890356
1772895889063570200,1.520570068359375,-0.011834555305540562,0.014038586989045143,0.0036048549227416515
1772895889073538300,1.530538330078125,-0.010327738709747791,0.013454556465148926,0.004494084510952234
1772895889083506400,1.54050634765625,-0.01173069141805172,0.015276690945029259,0.005531385540962219
1772895889093474300,1.550474365234375,-0.01091736275702715,0.01515977829694748,0.00395745737478137
1772895889103443500,1.560443359375,-0.011750931851565838,0.012675847858190536,0.0026202842127531767
1772895889113411000,1.5704111328125,-0.013947507366538048,0.01684342883527279,0.00458729499951005
1772895889123379200,1.580379150390625,-0.013918212614953518,0.012300075963139534,0.005632053129374981
1772895889133347300,1.590347412109375,-0.009591108188033104,0.014479872770607471,0.003998470026999712
1772895889143315200,1.600315185546875,-0.01338584627956152,0.015391472727060318,0.0030365362763404846
1772895889153284400,1.610284423828125,-0.012172243557870388,0.012926983647048473,0.0021694109309464693
1772895889163252500,1.62025244140625,-0.012689430266618729,0.01270008273422718,0.003906324505805969
1772895889173220400,1.630220458984375,-0.01281779445707798,0.013527792878448963,0.00558225205168128
1772895889183188200,1.640188232421875,-0.013821006752550602,0.014769891276955605,0.0025531724095344543
1772895889193156400,1.65015625,-0.010385795496404171,0.012831908650696278,0.0024176177103072405
1772895889203125200,1.660125244140625,-0.012003399431705475,0.014851117506623268,0.004216582980006933
1772895889213093400,1.67009326171875,-0.011946940794587135,0.01679735630750656,0.005139900837093592
1772895889223061200,1.680061279296875,-0.011213239282369614,0.013555489480495453,0.004523645620793104
1772895889233029400,1.690029296875,-0.012948555871844292,0.015401060692965984,0.0001280980504816398
1772895889242998300,1.699998291015625,-0.014590660110116005,0.01383991539478302,0.005663478281348944
1772895889252966400,1.70996630859375,-0.011261442676186562,0.010656905360519886,0.00267780851572752
1772895889262934300,1.719934326171875,-0.012617791071534157,0.012893428094685078,0.002433063928037882
1772895889272902100,1.729902099609375,-0.011771172285079956,0.01278636883944273,0.00487225316464901
1772895889282870300,1.739870361328125,-0.010251572355628014,0.0142316659912467,0.0002623213513288647
1772895889292839200,1.749839111328125,-0.01236372534185648,0.013815946877002716,0.0028778119012713432
1772895889302807300,1.759807373046875,-0.011987953446805477,0.013976802118122578,0.0023339942563325167
1772895889312775400,1.769775390625,-0.012947490438818932,0.015473764389753342,0.003765443339943886
1772895889322743300,1.779743408203125,-0.009757023304700851,0.016323845833539963,0.0046445527113974094
1772895889332712200,1.789712158203125,-0.009077650494873524,0.017533186823129654,0.0035025894176214933
1772895889342680300,1.799680419921875,-0.012626845389604568,0.012629242613911629,0.003355316584929824
1772895889352648200,1.809648193359375,-0.012505405582487583,0.013509683310985565,0.004631237126886845
1772895889362616300,1.8196162109375,-0.011383149772882462,0.01185106672346592,0.006936735473573208
1772895889372584400,1.82958447265625,-0.012794891372323036,0.01318158209323883,0.003924966789782047
1772895889382553300,1.83955322265625,-0.011114169843494892,0.015298528596758842,0.002921487670391798
1772895889392521500,1.849521484375,-0.011287542060017586,0.012007128447294235,0.004936435259878635
1772895889402489000,1.859489013671875,-0.013849502429366112,0.01344496849924326,0.003917776048183441
1772895889412457200,1.869457275390625,-0.01338797714561224,0.015358449891209602,0.003468234557658434
1772895889422426000,1.879426025390625,-0.01164387259632349,0.015721971169114113,0.00011265171633567661
1772895889432394200,1.889394287109375,-0.011011905036866665,0.012768525630235672,0.000699079770129174
1772895889442362400,1.8993623046875,-0.012286493554711342,0.015418637543916702,0.004165982827544212
1772895889452330200,1.909330322265625,-0.01085770782083273,0.01624048873782158,0.0036586506757885218
1772895889462298400,1.91929833984375,-0.011651063337922096,0.01561304833739996,0.003081543603911996
1772895889472267300,1.929267333984375,-0.013680125586688519,0.014640994369983673,0.00455826660618186
1772895889482235100,1.939235107421875,-0.014583203941583633,0.0148074422031641,0.004614192992448807
1772895889492203300,1.949203369140625,-0.012567456811666489,0.01619148626923561,0.0036661075428128242
1772895889502171400,1.95917138671875,-0.013153619132936,0.0157731045037508,0.004849882796406746
1772895889512140300,1.969140380859375,-0.013130449689924717,0.011922972276806831,0.0026461167726665735
1772895889522108400,1.9791083984375,-0.012255867011845112,0.013741378672420979,0.005273858085274696
1772895889532076300,1.989076171875,-0.011435880325734615,0.014270548708736897,0.003282346064224839
1772895889542044400,1.99904443359375,-0.01190885715186596,0.01230513583868742,0.0005757753970101476
1772895889552012300,2.00901220703125,-0.012695555575191975,0.01443832740187645,0.00404454255476594
1772895889561981200,2.018981201171875,-0.012107528746128082,0.014035924337804317,0.004877845756709576
1772895889571949300,2.02894921875,-0.01293683797121048,0.014056962914764881,0.004072772338986397
1772895889581917200,2.038917236328125,-0.013833523727953434,0.01329982653260231,0.001407214323990047
1772895889591885300,2.04888525390625,-0.014519554562866688,0.013335512951016426,0.0032916669733822346
1772895889601854200,2.058854248046875,-0.01185266487300396,0.016085492447018623,0.0031260184478014708
1772895889611822300,2.068822265625,-0.011874768882989883,0.015593074262142181,0.0046544065698981285
1772895889621790500,2.07879052734375,-0.011649997904896736,0.013302222825586796,0.0046938215382397175
1772895889631758300,2.08875830078125,-0.012982910498976707,0.013054815120995045,0.006125004030764103
1772895889641726200,2.098726318359375,-0.011098723858594894,0.012739230878651142,0.005254416726529598
1772895889651695400,2.1086953125,-0.012206865474581718,0.016344351693987846,0.006833404768258333
1772895889661663200,2.118663330078125,-0.011594871059060097,0.016166985034942627,0.004593153949826956
1772895889671631400,2.12863134765625,-0.011950402520596981,0.014646853320300579,0.005809952039271593
1772895889681599500,2.138599609375,-0.011885154992341995,0.013526993803679943,0.004177700728178024
1772895889691568400,2.148568359375,-0.011473163962364197,0.01257890835404396,0.0025885924696922302
1772895889701536300,2.158536376953125,-0.010215619578957558,0.015238607302308083,0.003270095447078347
1772895889711504100,2.168504150390625,-0.012488627806305885,0.013524064794182777,0.0014333132421597838
1772895889721472300,2.17847216796875,-0.011692875064909458,0.01221698522567749,0.003014432033523917
1772895889731440400,2.1884404296875,-0.01139939483255148,0.012665461748838425,0.003615241264924407
1772895889741409300,2.1984091796875,-0.01239009015262127,0.015180284157395363,0.006028597708791494
1772895889751377400,2.20837744140625,-0.012618856504559517,0.012092082761228085,0.0014005564153194427
1772895889761345300,2.21834521484375,-0.011150122620165348,0.011272095143795013,0.0037111148703843355
1772895889771313200,2.228313232421875,-0.012476643547415733,0.014257499016821384,0.004865595139563084
1772895889781282300,2.2382822265625,-0.01158608216792345,0.01528974063694477,0.004312989301979542
1772895889791250200,2.248250244140625,-0.013341904617846012,0.014843926765024662,0.005994509439915419
1772895889801218300,2.25821826171875,-0.010457701049745083,0.014492656104266644,0.003111104713752866
1772895889811186400,2.2681865234375,-0.013250291347503662,0.014165353961288929,0.006114617921411991
1772895889821155300,2.2781552734375,-0.012315521948039532,0.01350648794323206,0.0036578518338501453
1772895889831123500,2.28812353515625,-0.011474762111902237,0.014138988219201565,0.005812349263578653
1772895889841091300,2.29809130859375,-0.013309147208929062,0.015007978305220604,0.005797967780381441
1772895889851059200,2.30805908203125,-0.009914149530231953,0.014764298684895039,0.003183276392519474
1772895889861027300,2.31802734375,-0.015137141570448875,0.01525804866105318,0.004829110112041235
1772895889870996200,2.327996337890625,-0.01170619111508131,0.013787717558443546,0.0046392264775931835
1772895889880964400,2.33796435546875,-0.012521384283900261,0.015001586638391018,0.004232561681419611
1772895889890932200,2.34793212890625,-0.0131522873416543,0.015499064698815346,0.0038059235084801912
1772895889900900400,2.357900390625,-0.010584200732409954,0.015871906653046608,0.0011819108622148633
1772895889910869200,2.367869140625,-0.011267834343016148,0.013806359842419624,0.004189418628811836
1772895889920837400,2.37783740234375,-0.012896889820694923,0.011512313038110733,0.003612045431509614
1772895889930805200,2.38780517578125,-0.012245480902493,0.01426602154970169,0.006965231616050005
1772895889940773400,2.3977734375,-0.009495500475168228,0.01660587452352047,0.004817924462258816
1772895889950741200,2.4077412109375,-0.01209874078631401,0.011114169843494892,0.003215234261006117
1772895889960710000,2.4177099609375,-0.01206944603472948,0.012623916380107403,0.003936151973903179
1772895889970677800,2.427677734375,-0.010458766482770443,0.012604741379618645,0.00336144189350307
1772895889980646000,2.43764599609375,-0.01155838556587696,0.012561331503093243,0.0035859462805092335
1772895889990614000,2.447614013671875,-0.010960238985717297,0.015783224254846573,0.005252019967883825
1772895890000583000,2.4575830078125,-0.010881676338613033,0.01335974782705307,0.0021760689560323954
1772895890010551000,2.467551025390625,-0.011444934643805027,0.014990135096013546,0.0030035129748284817
1772895890020518700,2.4775185546875,-0.012649215757846832,0.013979731127619743,0.00430127140134573
1772895890030486800,2.48748681640625,-0.00941986683756113,0.014624482952058315,0.00358807691372931
1772895890040455000,2.497454833984375,-0.0128172617405653,0.017957162111997604,0.005227518733590841
1772895890050423800,2.507423828125,-0.010697918012738228,0.014220214448869228,0.004116980824619532
1772895890060392000,2.517391845703125,-0.010448379442095757,0.014887336641550064,0.004993160720914602
1772895890070360000,2.527360107421875,-0.010600978508591652,0.014142184518277645,0.003885552054271102
1772895890080328000,2.537327880859375,-0.011549596674740314,0.0146870668977499,0.0038211036007851362
1772895890090297000,2.547297119140625,-0.0132124749943614,0.014423680491745472,0.006161223165690899
1772895890100264700,2.5572646484375,-0.012419384904205799,0.015152587555348873,0.004555603489279747
1772895890110232800,2.56723291015625,-0.011023090220987797,0.013746971264481544,0.004851480480283499
1772895890120201000,2.577200927734375,-0.012824186123907566,0.014357900246977806,0.003132676472887397
1772895890130169900,2.587169921875,-0.011937086470425129,0.013409548439085484,0.0034972631838172674
1772895890140138000,2.597137939453125,-0.013538445346057415,0.012382900342345238,0.002813629573211074
1772895890150105900,2.60710595703125,-0.010471017099916935,0.013925403356552124,0.0059745353646576405
1772895890160073700,2.61707373046875,-0.014257232658565044,0.012406868860125542,0.0008106662426143885
1772895890170041900,2.627041748046875,-0.01251153089106083,0.013517406769096851,0.0024668860714882612
1772895890180010800,2.6370107421875,-0.01242284756153822,0.015237276442348957,0.0029148298781365156
1772895890189979000,2.646978759765625,-0.01323937252163887,0.01299436204135418,0.0041183121502399445
1772895890199947000,2.656947021484375,-0.013508085161447525,0.015415174886584282,0.0025715483352541924
1772895890209915000,2.666914794921875,-0.012861469760537148,0.01486576534807682,0.002828809665516019
1772895890219884000,2.676884033203125,-0.009573531337082386,0.015985358506441116,0.006409695837646723
1772895890229852000,2.686851806640625,-0.01179034635424614,0.014844992198050022,0.003979561384767294
1772895890239819800,2.69681982421875,-0.011754659935832024,0.012763732112944126,0.004926847759634256
1772895890249788000,2.706787841796875,-0.012661200016736984,0.015896407887339592,0.0049257827922701836
1772895890259756800,2.7167568359375,-0.011667042039334774,0.017344634979963303,0.005753759294748306
1772895890269725000,2.726724853515625,-0.012927782721817493,0.012351208366453648,0.002109489869326353
1772895890279692800,2.73669287109375,-0.01173628494143486,0.011692075990140438,0.003049852093681693
1772895890289661000,2.746660888671875,-0.012135492637753487,0.013029249384999275,0.003040797309949994
1772895890299629000,2.756629150390625,-0.013640178367495537,0.01708950474858284,0.004683701321482658
1772895890309598000,2.766597900390625,-0.009695770218968391,0.017306551337242126,0.005589442327618599
1772895890319565800,2.77656591796875,-0.011273693293333054,0.014364025555551052,0.004932706709951162
1772895890329533700,2.78653369140625,-0.011235077865421772,0.013828730210661888,0.0022359900176525116
1772895890339501800,2.796501708984375,-0.015034343115985394,0.013712083920836449,0.005583583377301693
1772895890349471000,2.806470947265625,-0.011475028470158577,0.012585033662617207,0.004959338344633579
1772895890359438800,2.81643896484375,-0.011982893571257591,0.017018398270010948,0.004668254870921373
1772895890369407000,2.826406982421875,-0.012314722873270512,0.014385330490767956,0.0054480284452438354
1772895890379375000,2.836375,-0.0135656101629138,0.01395629532635212,0.005028580781072378
1772895890389344000,2.846343994140625,-0.013027118518948555,0.015248461626470089,0.004323908127844334
1772895890399312000,2.856311767578125,-0.013613014481961727,0.013677462935447693,0.0044394894503057
1772895890409279700,2.86627978515625,-0.011610583402216434,0.012145079672336578,0.004333495628088713
1772895890419247900,2.876247802734375,-0.011976768262684345,0.015025555156171322,0.004802744835615158
1772895890429216000,2.886216064453125,-0.013617275282740593,0.014375210739672184,0.0011440940434113145
1772895890439185000,2.896184814453125,-0.011324825696647167,0.012707805261015892,0.0046456181444227695
1772895890449153000,2.906153076171875,-0.013043097220361233,0.014709170907735825,0.004077299498021603
1772895890459121000,2.916120849609375,-0.011480621062219143,0.014881211332976818,0.0029883331153541803
1772895890469088800,2.9260888671875,-0.015360048040747643,0.015151788480579853,0.0057132793590426445
1772895890479057700,2.9360576171875,-0.010570885613560677,0.014273211359977722,0.00270736962556839
1772895890489025800,2.94602587890625,-0.012226039543747902,0.013069995678961277,0.0038402783684432507
1772895890498994000,2.955993896484375,-0.012144280597567558,0.012438293546438217,0.0070403325371444225
1772895890508961800,2.9659619140625,-0.00908590666949749,0.014831144362688065,0.0032551817130297422
1772895890518930000,2.975929931640625,-0.01098447386175394,0.014228736981749535,0.0041526672430336475
1772895890528899000,2.985899169921875,-0.012723784893751144,0.017404289916157722,0.0035752938129007816
1772895890538866700,2.99586669921875,-0.014276407659053802,0.012308863922953606,0.003923369105905294
1772895890548834800,3.005834716796875,-0.012071310542523861,0.016401609405875206,0.0012234562309458852
1772895890558803000,3.015802978515625,-0.012161857448518276,0.014092382974922657,0.0034266894217580557
1772895890568771800,3.025771728515625,-0.010384730063378811,0.015682289376854897,0.0021853898651897907
1772895890578740000,3.035739990234375,-0.011976235546171665,0.015211177058517933,0.0057500312104821205
1772895890588707800,3.045707763671875,-0.012201538309454918,0.013007411733269691,0.0017355820164084435
1772895890598676000,3.055676025390625,-0.010463027283549309,0.01378398947417736,0.006326072849333286
1772895890608644900,3.065644775390625,-0.01242444571107626,0.014160294085741043,0.004532434046268463
1772895890618612700,3.07561279296875,-0.01181937474757433,0.015187474898993969,0.001787779969163239
1772895890628580900,3.085580810546875,-0.011208712123334408,0.015961389988660812,0.004138552118092775
1772895890638548700,3.095548828125,-0.012859339825809002,0.014011156745254993,0.0038490667939186096
1772895890648516900,3.105516845703125,-0.012839898467063904,0.01323777437210083,0.005343100056052208
1772895890658486000,3.115486083984375,-0.01329609751701355,0.012402340769767761,0.004025101661682129
1772895890668454000,3.125453857421875,-0.012283298186957836,0.013948572799563408,0.00654631620272994
1772895890678422000,3.135422119140625,-0.010708037763834,0.01290381420403719,0.0035830168053507805
1772895890688390000,3.145389892578125,-0.011506187729537487,0.012834039516746998,0.002555569401010871
1772895890698358800,3.15535888671875,-0.012241220101714134,0.011744540184736252,0.0046850331127643585
1772895890708327000,3.165326904296875,-0.011980229988694191,0.01494992058724165,0.003094060579314828
1772895890718294800,3.175294677734375,-0.011699799448251724,0.012144813314080238,0.0036511938087642193
1772895890728263000,3.185262939453125,-0.01124839298427105,0.01392593514174223,0.005249356850981712
1772895890738231800,3.195231689453125,-0.012221512384712696,0.014418886974453926,0.0049287122674286366
1772895890748200000,3.205199951171875,-0.010556237772107124,0.013611949048936367,0.005907956510782242
1772895890758168000,3.21516796875,-0.010588728822767735,0.014192517846822739,0.004291683901101351
1772895890768135700,3.2251357421875,-0.010479538701474667,0.013219931162893772,0.003960653208196163
1772895890778104800,3.235104736328125,-0.013251356780529022,0.013703561387956142,0.005065065808594227
1772895890788072700,3.24507275390625,-0.014328072778880596,0.012693957425653934,0.00526640098541975
1772895890798040800,3.255040771484375,-0.010668889619410038,0.013925136998295784,0.001240766723640263
1772895890808009000,3.265009033203125,-0.010920025408267975,0.01618935540318489,0.005901564843952656
1772895890817976800,3.274976806640625,-0.011203119531273842,0.016233032569289207,0.002010952914133668
1772895890827946000,3.284946044921875,-0.012627111747860909,0.014780810102820396,0.003317233407869935
1772895890837914000,3.2949140625,-0.011595935560762882,0.014390656724572182,0.006283462047576904
1772895890847881700,3.3048818359375,-0.012212458066642284,0.014056962914764881,0.0017369136912748218
1772895890857849900,3.314849853515625,-0.014344051480293274,0.014193316921591759,0.002210423583164811
1772895890867818800,3.32481884765625,-0.011548797599971294,0.012229235842823982,0.003288471372798085
1772895890877787000,3.334786865234375,-0.01028779149055481,0.014713432639837265,0.005455485545098782
1772895890887755000,3.344755126953125,-0.01378398947417736,0.01495205145329237,0.003306048223748803
1772895890897723000,3.354722900390625,-0.01158368494361639,0.012570653110742569,0.005516471806913614
1772895890907692000,3.364692138671875,-0.01210113801062107,0.013202354311943054,0.003608316881582141
1772895890917659600,3.37465966796875,-0.011611915193498135,0.012946425005793571,0.0017467673169448972
1772895890927627800,3.384627685546875,-0.011423629708588123,0.014682539738714695,0.004265052266418934
1772895890937596000,3.394595947265625,-0.012471317313611507,0.013393569737672806,0.0029497172217816114
1772895890947564800,3.404564697265625,-0.013936055824160576,0.014790663495659828,0.003063700394704938
1772895890957533000,3.414532958984375,-0.011642009019851685,0.012327239848673344,0.0023941819090396166
1772895890967500800,3.424500732421875,-0.011739746667444706,0.011714446358382702,0.00811917893588543
1772895890977468700,3.43446875,-0.010637730360031128,0.01495018694549799,0.005839246790856123
1772895890987436800,3.444436767578125,-0.010873952880501747,0.016680443659424782,0.0031193606555461884
1772895890997405700,3.45440576171875,-0.010457967408001423,0.014360297471284866,0.005047755315899849
1772895891007373800,3.464373779296875,-0.012645487673580647,0.013646836392581463,0.005380916874855757
1772895891017342000,3.474342041015625,-0.011856925673782825,0.013438044115900993,0.005667739547789097
1772895891027309800,3.484309814453125,-0.0105354655534029,0.01221591979265213,0.0029313412960618734
1772895891037279000,3.494279052734375,-0.012738431803882122,0.01599787548184395,0.00310604483820498
1772895891047246600,3.50424658203125,-0.01136796921491623,0.014391988515853882,0.0036820864770561457
1772895891057214700,3.514214599609375,-0.01059059239923954,0.014577877707779408,0.0038277613930404186
1772895891067182800,3.524182861328125,-0.011777031235396862,0.014081730507314205,0.0018775284988805652
1772895891077151700,3.53415185546875,-0.013276657089591026,0.014125672169029713,0.00640703272074461
1772895891087120000,3.544119873046875,-0.01357333268970251,0.01571185141801834,0.0034085798542946577
1772895891097087700,3.554087646484375,-0.010583136230707169,0.015320898965001106,0.0015052186790853739
1772895891107055900,3.564055908203125,-0.012056396342813969,0.013519271276891232,0.0019371833186596632
1772895891117025000,3.57402490234375,-0.011260110884904861,0.012194082140922546,0.0036975329276174307
1772895891126992600,3.58399267578125,-0.011769574135541916,0.013112606480717659,0.0054703992791473866
1772895891136960800,3.593960693359375,-0.012117649428546429,0.015054317191243172,0.003920173272490501
1772895891146929000,3.603928955078125,-0.01438320055603981,0.01546204648911953,0.002525209216400981
1772895891156896800,3.613896728515625,-0.011989018879830837,0.013729128055274487,0.0037207023706287146
1772895891166866000,3.623865966796875,-0.01311979629099369,0.013688648119568825,0.004600344225764275
1772895891176833800,3.633833740234375,-0.012309130281209946,0.013154418207705021,0.0031017838045954704
1772895891186802000,3.643802001953125,-0.012013252824544907,0.013544837012887001,0.0017869811272248626
1772895891196769800,3.653769775390625,-0.011877964250743389,0.015127020888030529,0.003222158644348383
1772895891206738700,3.66373876953125,-0.011906194500625134,0.014783207327127457,0.004358529578894377
1772895891216706800,3.673706787109375,-0.013649232685565948,0.012893428094685078,0.0043561323545873165
1772895891226674700,3.6836748046875,-0.011314173229038715,0.016199210658669472,0.004703674931079149
1772895891236642800,3.693642822265625,-0.011582620441913605,0.01471582893282175,0.0026578346733003855
1772895891246611700,3.70361181640625,-0.013401825912296772,0.01044331956654787,0.0032085764687508345
1772895891256579800,3.713579833984375,-0.012541092000901699,0.013408483006060123,0.002811499172821641
1772895891266547700,3.723547607421875,-0.011899802833795547,0.01353445090353489,0.0019446401856839657
1772895891276515800,3.733515869140625,-0.012153602205216885,0.01383831724524498,0.00535508431494236
1772895891286484700,3.743484619140625,-0.013906761072576046,0.013819941319525242,0.00484269205480814
1772895891296452900,3.753452880859375,-0.010885138064622879,0.013433516956865788,0.003634948516264558
1772895891306420700,3.763420654296875,-0.012117649428546429,0.01679575815796852,0.004513791762292385
1772895891316388900,3.773388916015625,-0.012649482116103172,0.013610350899398327,0.005102883093059063
1772895891326357800,3.783357666015625,-0.009967146441340446,0.014066018164157867,0.004724713973701
1772895891336326000,3.793325927734375,-0.011870508082211018,0.016934774816036224,0.006981743033975363
1772895891346293800,3.803293701171875,-0.012612731195986271,0.013320598751306534,0.00577852688729763
1772895891356261600,3.81326171875,-0.014396782033145428,0.014444186352193356,0.006228601094335318
1772895891366230800,3.823230712890625,-0.013133645057678223,0.015398663468658924,0.002901514060795307
1772895891376198700,3.83319873046875,-0.010942130349576473,0.014346182346343994,0.005691708065569401
1772895891386166800,3.843166748046875,-0.012358931824564934,0.013861753046512604,0.003979561384767294
1772895891396135000,3.853135009765625,-0.010839864611625671,0.01323857344686985,0.006081594619899988
1772895891406102800,3.863102783203125,-0.01218715775758028,0.013273460790514946,0.0035691685043275356
1772895891416072000,3.873072021484375,-0.011605257168412209,0.014417022466659546,0.004004328977316618
1772895891426039800,3.883039794921875,-0.013948306441307068,0.013911021873354912,0.0024439829867333174
1772895891436007700,3.893007568359375,-0.010726946406066418,0.015995211899280548,0.0022269352339208126
1772895891445975800,3.902975830078125,-0.011861452832818031,0.013764548115432262,0.002582201035693288
1772895891455944700,3.91294482421875,-0.012911537662148476,0.014259629882872105,0.0021494373213499784
1772895891465912800,3.922912841796875,-0.009849434718489647,0.016682839021086693,0.004255465231835842
1772895891475881000,3.932880859375,-0.01121883187443018,0.011391138657927513,0.0019510318525135517
1772895891485848800,3.942848876953125,-0.013591175898909569,0.015690280124545097,0.0046845003962516785
1772895891495818000,3.95281787109375,-0.013189571909606457,0.014752314426004887,0.004006459377706051
1772895891505785600,3.96278564453125,-0.012254801578819752,0.012689696624875069,0.005720470100641251
1772895891515753700,3.972753662109375,-0.012192217633128166,0.013273194432258606,0.005045358557254076
1772895891525721900,3.982721923828125,-0.013966416008770466,0.01218715775758028,0.004424575716257095
1772895891535690800,3.992690673828125,-0.011050786823034286,0.013281716965138912,0.0008138620178215206
1772895891545659000,4.002658935546875,-0.012798885814845562,0.013079582713544369,0.0049308426678180695
1772895891555626800,4.012626708984375,-0.013342703692615032,0.013630324974656105,0.0024525050539523363
1772895891565594600,4.0225947265625,-0.011009774170815945,0.013814615085721016,0.004608600400388241
1772895891575564000,4.03256396484375,-0.009444101713597775,0.013944577425718307,0.003195260651409626
1772895891585531600,4.04253173828125,-0.012198609299957752,0.014028733596205711,0.005557218100875616
1772895891595499800,4.052499755859375,-0.013050820678472519,0.012565859593451023,0.0044229780323803425
1772895891605468000,4.062468017578125,-0.012522449716925621,0.01330169104039669,0.007596134208142757
1772895891615436800,4.072436767578125,-0.010880078189074993,0.014942464418709278,0.005589442327618599
1772895891625405000,4.082405029296875,-0.011863583698868752,0.014211692847311497,0.0019659455865621567
1772895891635372800,4.092372802734375,-0.010233462788164616,0.013512346893548965,0.002838130807504058
1772895891645340700,4.102340576171875,-0.011418303474783897,0.015253787860274315,0.0017411747248843312
1772895891655309600,4.1123095703125,-0.014182398095726967,0.01600080356001854,0.008012652397155762
1772895891665277700,4.122277587890625,-0.015196530148386955,0.015239672735333443,0.002088983543217182
1772895891675245800,4.132245849609375,-0.011980496346950531,0.015577095560729504,0.006908506155014038
1772895891685213700,4.142213623046875,-0.012914733029901981,0.013815946877002716,0.003099919529631734
1772895891695182800,4.152182861328125,-0.012291020713746548,0.014676947146654129,0.0049074068665504456
1772895891705150700,4.162150634765625,-0.009254218079149723,0.012137622572481632,0.008528507314622402
1772895891715118800,4.172118896484375,-0.012893161736428738,0.014378140680491924,0.0017667410429567099
1772895891725086700,4.182086669921875,-0.014149108901619911,0.012983709573745728,0.004009655211120844
1772895891735055600,4.1920556640625,-0.010848386213183403,0.017557155340909958,0.0028969866689294577
1772895891745023700,4.202023681640625,-0.01158901210874319,0.015185344032943249,0.004861334338784218
1772895891754991900,4.211991943359375,-0.013294233940541744,0.015332350507378578,0.00452843913808465
1772895891764959700,4.221959716796875,-0.014579474925994873,0.016318518668413162,0.004070109222084284
1772895891774928000,4.231927978515625,-0.013886520639061928,0.014208496548235416,0.005125519819557667
1772895891784896800,4.241896728515625,-0.011274492368102074,0.01239142194390297,0.0011677960865199566
1772895891794865000,4.251864990234375,-0.010455037467181683,0.01284389290958643,0.0041127195581793785
1772895891804832800,4.261832763671875,-0.011722968891263008,0.013795441016554832,0.0034442662727087736
1772895891814801700,4.2718017578125,-0.013919809833168983,0.015964053571224213,0.0037238982040435076
1772895891824769800,4.281769775390625,-0.013756291940808296,0.013085441663861275,0.005481051746755838
1772895891834737700,4.291737548828125,-0.012150405906140804,0.016035690903663635,0.003979561384767294
1772895891844705800,4.301705810546875,-0.012735502794384956,0.014517690055072308,0.0054365769028663635
1772895891854674000,4.311673828125,-0.011214837431907654,0.014599715359508991,0.0044115264900028706
1772895891864642800,4.321642822265625,-0.01386734563857317,0.015119564719498158,0.005334045272320509
1772895891874611000,4.33161083984375,-0.012123242020606995,0.014620221219956875,0.002153165638446808
1772895891884578800,4.341578857421875,-0.012809271924197674,0.012327506206929684,0.001118793967179954
1772895891894546700,4.351546630859375,-0.013163472525775433,0.013483584858477116,0.003002181416377425
1772895891904515800,4.361515869140625,-0.01333071943372488,0.014445784501731396,0.003932157531380653
1772895891914483700,4.371483642578125,-0.01137169823050499,0.014904380775988102,0.004073305055499077
1772895891924451800,4.381451904296875,-0.013097958639264107,0.013347763568162918,0.004453870467841625
1772895891934420000,4.391419921875,-0.012924587354063988,0.018074873834848404,0.002814162289723754
1772895891944388900,4.401388916015625,-0.009388175792992115,0.012486496940255165,0.005579588934779167
1772895891954357000,4.41135693359375,-0.013236976228654385,0.015123292803764343,0.0046509443782269955
1772895891964325400,4.421325439453125,-0.013819674961268902,0.014738199301064014,0.005573463626205921
1772895891974293500,4.43129345703125,-0.012431102804839611,0.012270781211555004,0.00281975488178432
1772895891984262400,4.441262451171875,-0.01179221086204052,0.012930446304380894,0.0060147494077682495
1772895891994230300,4.451230224609375,-0.010718424804508686,0.014197844080626965,0.004447212442755699
1772895892004198400,4.461198486328125,-0.011421765200793743,0.013369068503379822,0.0037177728954702616
1772895892014166300,4.471166259765625,-0.012142682448029518,0.015084411017596722,0.004263454582542181
1772895892024135400,4.481135498046875,-0.01215679757297039,0.014915832318365574,0.0026466494891792536
1772895892034103300,4.491103271484375,-0.012602876871824265,0.014554175548255444,0.002873817225918174
1772895892044071400,4.501071533203125,-0.013670804910361767,0.013650564476847649,0.005072256550192833
1772895892054039600,4.51103955078125,-0.010548780672252178,0.013566941022872925,0.004982774145901203
1772895892064008400,4.521008544921875,-0.013391172513365746,0.012558668851852417,0.00044314999831840396
1772895892073976300,4.530976318359375,-0.010571418330073357,0.014197311364114285,0.0028477180749177933
1772895892083944400,4.5409443359375,-0.012741095386445522,0.012466256506741047,0.0033041839487850666
1772895892093912300,4.550912353515625,-0.011846273206174374,0.014240454882383347,0.004712996073067188
1772895892103881500,4.560881591796875,-0.014847123064100742,0.013422331772744656,0.003923369105905294
1772895892113849300,4.570849365234375,-0.012119779363274574,0.014368019998073578,0.0022559636272490025
1772895892123817500,4.5808173828125,-0.012058527208864689,0.013361078687012196,0.004292216617614031
1772895892133785600,4.59078564453125,-0.012672385200858116,0.013573865406215191,0.005405950825661421
1772895892143754500,4.60075439453125,-0.011272894218564034,0.015988552942872047,0.004026433452963829
1772895892153722400,4.610722412109375,-0.011055047623813152,0.015388277359306812,0.006249906495213509
1772895892163690200,4.620690185546875,-0.013246829621493816,0.013491573743522167,0.00007536746124969795
1772895892173658400,4.630658447265625,-0.013577860780060291,0.010510431602597237,0.0037707698065787554
1772895892183627300,4.640627197265625,-0.013216203078627586,0.01575685851275921,0.00574896577745676
1772895892193595400,4.650595458984375,-0.011175422929227352,0.014414891600608826,0.003224821761250496
1772895892203563500,4.6605634765625,-0.01252058520913124,0.014331269077956676,0.0046181874349713326
1772895892213531100,4.67053125,-0.011433749459683895,0.013391705229878426,0.0020881847012788057
1772895892223500500,4.68050048828125,-0.011889150366187096,0.014212225563824177,0.0038448055274784565
1772895892233468400,4.690468505859375,-0.01206731516867876,0.016336895525455475,0.004083957523107529
1772895892243436300,4.700436279296875,-0.01324017159640789,0.01600959338247776,0.004542553797364235
1772895892253404400,4.710404296875,-0.011265969835221767,0.01480318047106266,0.004030161537230015
1772895892263373300,4.720373291015625,-0.011660916730761528,0.014189855195581913,0.005428054835647345
1772895892273341400,4.730341552734375,-0.011245463974773884,0.01387000922113657,0.002127599436789751
1772895892283309600,4.7403095703125,-0.012147210538387299,0.013235111720860004,0.004393416922539473
1772895892293277200,4.750277099609375,-0.013728328980505466,0.012142682448029518,0.004150802735239267
1772895892303246300,4.760246337890625,-0.013509949669241905,0.014941398985683918,0.0043654534965753555
1772895892313214200,4.770214111328125,-0.009040633216500282,0.013305685482919216,0.0020511667244136333
1772895892323182300,4.780182373046875,-0.010584467090666294,0.017131848260760307,0.005942843854427338
1772895892333150500,4.790150390625,-0.012163988314568996,0.013177054934203625,0.0026812704745680094
1772895892343119400,4.800119384765625,-0.01360209472477436,0.013089969754219055,0.0029119004029780626
1772895892353087500,4.81008740234375,-0.0114369448274374,0.01242098305374384,0.004518052563071251
1772895892363055400,4.820055419921875,-0.013169864192605019,0.016320383176207542,0.0054877097718417645
1772895892373023200,4.830023193359375,-0.011289140209555626,0.014856177382171154,0.004789162427186966
1772895892382992400,4.839992431640625,-0.01323937252163887,0.013919809833168983,0.004576109815388918
1772895892392960300,4.849960205078125,-0.010948787443339825,0.01369317527860403,0.0037699707318097353
1772895892402928400,4.859928466796875,-0.011138404719531536,0.015033544041216373,0.006874151527881622
1772895892412896500,4.869896484375,-0.012092615477740765,0.014335263520479202,0.0034884747583419085
1772895892422865400,4.879865478515625,-0.011871573515236378,0.014180000871419907,0.0015494271647185087
1772895892432833500,4.88983349609375,-0.010871290229260921,0.01272564847022295,0.0049196574836969376
1772895892442801400,4.899801513671875,-0.013460149057209492,0.01429504994302988,0.00011691277177305892
1772895892452769300,4.909769287109375,-0.010451842099428177,0.01507029589265585,0.0033318807836622
1772895892462738200,4.91973828125,-0.011410846374928951,0.015372298657894135,0.007319165393710136
1772895892472706300,4.929706298828125,-0.013137905858457088,0.014843926765024662,0.002511094557121396
1772895892482674400,4.93967431640625,-0.013700898736715317,0.013761618174612522,0.003516437951475382
1772895892492642300,4.949642333984375,-0.011806592345237732,0.011092065833508968,0.0061535001732409
1772895892502611500,4.959611572265625,-0.014184794388711452,0.013027651235461235,0.004296211525797844
1772895892512579300,4.969579345703125,-0.013421266339719296,0.013517140410840511,0.0033910030033439398
1772895892522547500,4.97954736328125,-0.011487012729048729,0.017229586839675903,0.0051683965139091015
1772895892532515300,4.989515380859375,-0.013015400618314743,0.014402640983462334,0.004208060912787914
1772895892542484200,4.999484130859375,-0.010818293318152428,0.015064969658851624,0.0027427896857261658
1772895892552452400,5.009452392578125,-0.01332725677639246,0.012292885221540928,0.004195011220872402
1772895892562420500,5.01942041015625,-0.012020443566143513,0.015246863476932049,0.0028943235520273447
1772895892572388400,5.029388427734375,-0.012599148787558079,0.014911837875843048,0.003409378696233034
1772895892582357500,5.039357421875,-0.011264905333518982,0.014356834813952446,0.0043899547308683395
1772895892592325400,5.049325439453125,-0.0126420259475708,0.014728079549968243,0.003555053612217307
1772895892602290400,5.05929052734375,-0.011813249439001083,0.016396550461649895,0.0017955031944438815
1772895892612258600,5.069258544921875,-0.010381001979112625,0.015205850824713707,0.004837099462747574
1772895892622226400,5.079226318359375,-0.009490706957876682,0.015119831077754498,0.004797152243554592
1772895892632195600,5.089195556640625,-0.011536813341081142,0.013364541344344616,0.005659749731421471
1772895892642163200,5.0991630859375,-0.012337093241512775,0.013369068503379822,0.00373028963804245
1772895892652131300,5.10913134765625,-0.010990332812070847,0.01357306633144617,0.0028509139083325863
1772895892662099500,5.119099365234375,-0.01272911112755537,0.011671570129692554,0.00041758365114219487
1772895892672068400,5.129068359375,-0.011593539267778397,0.011937086470425129,0.002126800362020731
1772895892682036500,5.139036376953125,-0.01501037459820509,0.013554424978792667,0.0059713395312428474
1772895892692004400,5.14900439453125,-0.013745639473199844,0.011294200085103512,0.0024503744207322598
1772895892701972500,5.158972412109375,-0.011444934643805027,0.010645453818142414,0.0008522115531377494
1772895892711941400,5.16894140625,-0.01068273838609457,0.013746704906225204,0.003753725439310074
1772895892721909200,5.1789091796875,-0.010358897969126701,0.012957343831658363,0.0017073525814339519
1772895892731877400,5.18887744140625,-0.011317369528114796,0.01338797714561224,0.000031957933970261365
1772895892741846300,5.19884619140625,-0.012778379023075104,0.011208712123334408,0.004590224474668503
1772895892751814400,5.208814453125,-0.012985040433704853,0.011357849463820457,0.0041705104522407055
1772895892761782500,5.218782470703125,-0.010307231917977333,0.011204984039068222,0.00498037738725543
1772895892771750400,5.22875048828125,-0.011208712123334408,0.012254535220563412,0.005092496518045664
1772895892781718500,5.238718505859375,-0.011230284348130226,0.012655873782932758,0.0010005496442317963
1772895892791687400,5.2486875,-0.010728810913860798,0.012082762084901333,0.005123389419168234
1772895892801655300,5.2586552734375,-0.011854794807732105,0.014850318431854248,0.002101234160363674
1772895892811623400,5.26862353515625,-0.01320954505354166,0.01384231261909008,0.0032775523141026497
1772895892821592300,5.27859228515625,-0.010848918929696083,0.011371963657438755,0.0038687740452587605
1772895892831560400,5.288560546875,-0.010240919888019562,0.01477708201855421,0.004551874939352274
1772895892841528300,5.2985283203125,-0.012928581796586514,0.014478541910648346,0.002377936616539955
1772895892851496400,5.308496337890625,-0.013015400618314743,0.011805526912212372,0.0008977515972219408
1772895892861464300,5.31846435546875,-0.011233746074140072,0.014128602109849453,0.0038461373187601566
1772895892871433200,5.32843310546875,-0.014270282350480556,0.013108344748616219,0.005015531089156866
1772895892881401300,5.3384013671875,-0.012078233994543552,0.014569355174899101,0.006073871627449989
1772895892891369200,5.348369140625,-0.011329353787004948,0.015575231052935123,0.0070856064558029175
1772895892901337300,5.35833740234375,-0.010389789938926697,0.013051353394985199,0.002275937469676137
1772895892911306500,5.368306396484375,-0.012674782425165176,0.01281672902405262,0.0002972087822854519
1772895892921274400,5.3782744140625,-0.013097159564495087,0.013452958315610886,-0.0008652610122226179
1772895892931242500,5.388242431640625,-0.010969826951622963,0.01133894082158804,0.0013752563390880823
1772895892941211400,5.39821142578125,-0.011204451322555542,0.012860138900578022,0.002237587934359908
1772895892951181300,5.408181396484375,-0.011320298537611961,0.012663863599300385,0.009016931056976318
1772895892961149400,5.4181494140625,-0.010448379442095757,0.012149074114859104,0.0025654230266809464
1772895892971117600,5.42811767578125,-0.010613495483994484,0.012585832737386227,0.003329484025016427
1772895892981086500,5.43808642578125,-0.012467055581510067,0.013071860186755657,0.0012783173006027937
1772895892991054600,5.4480546875,-0.010373278521001339,0.013362410478293896,0.0021616879384964705
1772895893001022500,5.4580224609375,-0.011197793297469616,0.012627644464373589,0.0037201696541160345
1772895893010990300,5.467990234375,-0.0125818382948637,0.013552560470998287,0.004090881906449795
1772895893020959500,5.47795947265625,-0.00914689339697361,0.015847938135266304,0.003695935010910034
1772895893030927400,5.48792724609375,-0.011358914896845818,0.013609818182885647,0.00490314606577158
1772895893040895500,5.4978955078125,-0.012132562696933746,0.014825019054114819,0.0032743564806878567
1772895893050863600,5.507863525390625,-0.011514975689351559,0.016017315909266472,0.004977714270353317
1772895893060832500,5.51783251953125,-0.011620703153312206,0.013217002153396606,0.006611563730984926
1772895893070800600,5.527800537109375,-0.012911004945635796,0.015914518386125565,0.004630970768630505
1772895893080768500,5.5377685546875,-0.011967979371547699,0.016928117722272873,0.005269330460578203
1772895893090736400,5.547736328125,-0.01190938986837864,0.01555525790899992,0.006882407236844301
1772895893100705300,5.557705322265625,-0.011810054071247578,0.01575286313891411,0.0032690302468836308
1772895893110673400,5.56767333984375,-0.012326707132160664,0.013554158620536327,0.004509264137595892
1772895893120641500,5.5776416015625,-0.012507270090281963,0.015220497734844685,0.00592473428696394
1772895893130609400,5.587609375,-0.010509099811315536,0.016080433502793312,0.004013650119304657
1772895893140578600,5.59757861328125,-0.012539227493107319,0.017249293625354767,0.005853894166648388
1772895893150546400,5.60754638671875,-0.010614028200507164,0.020677581429481506,0.00908750481903553
1772895893160514600,5.6175146484375,-0.010338124819099903,0.02683774009346962,0.01350595522671938
1772895893170482400,5.627482421875,-0.011743208393454552,0.022219818085432053,0.009667008183896542
1772895893180451300,5.637451416015625,-0.011404454708099365,0.010159959085285664,0.003073287894949317
1772895893190419500,5.64741943359375,-0.010870224796235561,0.014813833869993687,0.00563950976356864
1772895893200387600,5.6573876953125,-0.011390605941414833,0.01728151924908161,0.0038948729634284973
1772895893210355500,5.66735546875,-0.012389025650918484,0.017164073884487152,0.006170277949422598
1772895893220324600,5.67732470703125,-0.0140143521130085,0.011394867673516273,0.003917243797332048
1772895893230292500,5.68729248046875,-0.011895275674760342,0.014361894689500332,0.003145193215459585
1772895893240260600,5.697260498046875,-0.012019910849630833,0.015108911320567131,0.004567853640764952
1772895893250228500,5.707228515625,-0.012001801282167435,0.016268452629446983,0.005034972447901964
1772895893260197400,5.717197265625,-0.013289440423250198,0.014932610094547272,0.004911668132990599
1772895893270165500,5.72716552734375,-0.011204451322555542,0.015807459130883217,0.0054669370874762535
1772895893280133400,5.73713330078125,-0.012380769476294518,0.013771206140518188,0.0022825952619314194
1772895893290101500,5.7471015625,-0.012797820381820202,0.01350595522671938,0.0027598338201642036
1772895893300070400,5.7570703125,-0.01595473103225231,0.013874003663659096,0.006237922236323357
1772895893310038500,5.76703857421875,-0.01085850689560175,0.014942198060452938,0.005053880624473095
1772895893320006700,5.777006591796875,-0.012280900962650776,0.014858840964734554,0.005488774739205837
1772895893329975600,5.7869755859375,-0.013074522837996483,0.012500079348683357,0.0021409152541309595
1772895893339943400,5.796943359375,-0.012106464244425297,0.012982644140720367,0.00418276060372591
1772895893349911600,5.80691162109375,-0.013350692577660084,0.014634602703154087,0.0070070428773760796
1772895893359879400,5.81687939453125,-0.01194028276950121,0.01613156497478485,0.0015012238873168826
1772895893369848600,5.8268486328125,-0.01197011023759842,0.014214355498552322,0.005656553898006678
1772895893379816400,5.83681640625,-0.011464908719062805,0.014377341605722904,0.005667739547789097
1772895893389784600,5.84678466796875,-0.010416688397526741,0.012382633984088898,0.0040456079877913
1772895893399752700,5.856752685546875,-0.01119299978017807,0.014958709478378296,0.004968659486621618
1772895893409721600,5.8667216796875,-0.012011921964585781,0.01555286068469286,0.002103897277265787
1772895893419689500,5.876689453125,-0.01281646266579628,0.013759221881628036,0.0032599754631519318
1772895893429657300,5.8866572265625,-0.012878247536718845,0.01612037979066372,0.003070624778047204
1772895893439625500,5.89662548828125,-0.011277422308921814,0.014721687883138657,0.0029622339643538
1772895893449594600,5.9065947265625,-0.01053386740386486,0.014830611646175385,0.0076270271092653275
1772895893459562500,5.9165625,-0.012061988934874535,0.014288391917943954,0.004228300880640745
1772895893469530600,5.926530517578125,-0.009248092770576477,0.012173308990895748,0.002417883835732937
1772895893479498500,5.93649853515625,-0.01221512071788311,0.014373612590134144,0.005609150044620037
1772895893489467400,5.94646728515625,-0.014978417195379734,0.015992015600204468,0.003147589974105358
1772895893499435500,5.956435546875,-0.0102004399523139,0.014281733892858028,0.002843457041308284
1772895893509403400,5.9664033203125,-0.01125052385032177,0.014311827719211578,0.004640291910618544
1772895893519371500,5.97637158203125,-0.013044695369899273,0.011815113946795464,0.00455773388966918
1772895893529340400,5.98634033203125,-0.012201804667711258,0.01516803354024887,0.0030868700705468655
1772895893539308500,5.99630859375,-0.013789049349725246,0.014278803952038288,0.005344165489077568
1772895893549276700,6.006276611328125,-0.01299303025007248,0.014096910133957863,0.003897003596648574
1772895893559244300,6.016244384765625,-0.013273194432258606,0.014327806420624256,0.005568137392401695
1772895893569213400,6.02621337890625,-0.01158874575048685,0.014704377390444279,0.002404035534709692
1772895893579181300,6.036181396484375,-0.011828962713479996,0.012836436741054058,0.0046791741624474525
1772895893589149400,6.0461494140625,-0.01221645250916481,0.013961355201900005,0.005564675200730562
1772895893599117600,6.05611767578125,-0.015046860091388226,0.015965117141604424,0.002683667466044426
1772895893609086500,6.06608642578125,-0.012325108982622623,0.013320865109562874,0.0024077638518065214
1772895893619054600,6.0760546875,-0.012752014212310314,0.014945659786462784,0.0037358824629336596
1772895893629022700,6.086022705078125,-0.01187849696725607,0.017056748270988464,0.004494883120059967
1772895893638991600,6.09599169921875,-0.012854279950261116,0.01498054713010788,0.00398568669334054
1772895893648959500,6.10595947265625,-0.01252005249261856,0.013759754598140717,0.007334345486015081
1772895893658927400,6.11592724609375,-0.011530156247317791,0.01363352034240961,0.0042719766497612
1772895893668895500,6.1258955078125,-0.012840963900089264,0.01432114839553833,0.0034085798542946577
1772895893678864400,6.135864501953125,-0.011112306267023087,0.014761635102331638,0.005090366117656231
1772895893688832500,6.14583251953125,-0.010157296434044838,0.012321380898356438,0.003974235150963068
1772895893698800600,6.155800537109375,-0.010907774791121483,0.014720089733600616,0.0019052254501730204
1772895893708768500,6.1657685546875,-0.011213239282369614,0.01458906289190054,0.003907389938831329
1772895893718737700,6.175737548828125,-0.011532818898558617,0.013822604902088642,0.0010929612908512354
1772895893728705300,6.185705322265625,-0.013851899653673172,0.013383183628320694,0.0049406965263187885
1772895893738673400,6.19567333984375,-0.011595669202506542,0.013786385767161846,0.005125786177814007
1772895893748641500,6.2056416015625,-0.011366371065378189,0.014343253336846828,0.004683967679738998
1772895893758610400,6.2156103515625,-0.01131151057779789,0.012227104976773262,0.003879693103954196
1772895893768578600,6.22557861328125,-0.013914749957621098,0.013220463879406452,0.002977680414915085
1772895893778546700,6.235546630859375,-0.011448929086327553,0.014992797747254372,0.005341236013919115
1772895893788514600,6.2455146484375,-0.01070857048034668,0.01486256904900074,0.005289037711918354
1772895893798483700,6.255483642578125,-0.013833257369697094,0.01492408849298954,0.005147890187799931
1772895893808451300,6.265451416015625,-0.01266812440007925,0.014569088816642761,0.004633633885532618
1772895893818419500,6.27541943359375,-0.010280068032443523,0.012880112044513226,0.0009379653492942452
1772895893828387600,6.2853876953125,-0.014248711057007313,0.014681474305689335,0.005001150071620941
1772895893838356500,6.2953564453125,-0.011357849463820457,0.01324043795466423,0.002597114769741893
1772895893848324600,6.30532470703125,-0.012034025974571705,0.014797321520745754,0.00484402384608984
1772895893858292500,6.31529248046875,-0.012673716992139816,0.013215936720371246,0.003469566348940134
1772895893868260400,6.32526025390625,-0.011749866418540478,0.011725365184247494,0.004659732803702354
1772895893878229500,6.3352294921875,-0.013288907706737518,0.014298511669039726,0.004575843457132578
1772895893888197400,6.345197265625,-0.012048672884702682,0.013512613251805305,0.00202267081476748
1772895893898165500,6.35516552734375,-0.013256416656076908,0.013798370026051998,0.00512738386169076
1772895893908133600,6.365133544921875,-0.00962626188993454,0.013620470650494099,0.0037758296821266413
1772895893918102500,6.3751025390625,-0.012373845092952251,0.013201289810240269,0.004803809802979231
1772895893928070700,6.385070556640625,-0.011890481226146221,0.01543701346963644,0.006959106307476759
1772895893938038500,6.39503857421875,-0.013287043198943138,0.013511281460523605,0.0033659692853689194
1772895893948006400,6.40500634765625,-0.011953865177929401,0.01563834771513939,0.003594468580558896
1772895893957975300,6.414975341796875,-0.014280934818089008,0.015201590023934841,0.004773982334882021
1772895893967943400,6.424943359375,-0.013437511399388313,0.01278743427246809,-0.00008442220860160887
1772895893977911600,6.43491162109375,-0.01164467167109251,0.01429504994302988,0.004165183752775192
1772895893987880400,6.44488037109375,-0.011655057780444622,0.014889467507600784,0.0024985778145492077
1772895893997848600,6.4548486328125,-0.015376559458673,0.015087073668837547,0.002627474721521139
1772895894007816400,6.46481640625,-0.012626579031348228,0.013999172486364841,0.001059139147400856
1772895894017784600,6.47478466796875,-0.011120561510324478,0.015981895849108696,0.005613943561911583
1772895894027753500,6.48475341796875,-0.01182310376316309,0.01059192419052124,0.004519117996096611
1772895894037721300,6.494721435546875,-0.010822554118931293,0.01329956017434597,0.005126318894326687
1772895894047689500,6.504689453125,-0.011077684350311756,0.015195731073617935,0.0015273229219019413
1772895894057657600,6.51465771484375,-0.009913616813719273,0.01444232277572155,0.00418435875326395
1772895894067626500,6.52462646484375,-0.013324061408638954,0.013730992563068867,0.004237622022628784
1772895894077594600,6.5345947265625,-0.01143002137541771,0.014010890386998653,0.005334844347089529
1772895894087562500,6.5445625,-0.01122335996478796,0.01635553687810898,0.006059224251657724
1772895894097530600,6.554530517578125,-0.01191205345094204,0.013318735174834728,0.0057076867669820786
1772895894107499500,6.56449951171875,-0.01218848954886198,0.012916064821183681,0.005620335228741169
1772895894117467400,6.57446728515625,-0.010840663686394691,0.01576671190559864,0.004451207350939512
1772895894127435500,6.584435546875,-0.0117927435785532,0.013977867551147938,0.0033281524665653706
1772895894137403400,6.5944033203125,-0.014395184814929962,0.01577230542898178,0.003689276985824108
1772895894147372500,6.60437255859375,-0.013088371604681015,0.014340856112539768,0.0020684772171080112
1772895894157340400,6.61434033203125,-0.010035856626927853,0.013427391648292542,0.006845389027148485
1772895894167308500,6.62430859375,-0.0141728101298213,0.012353605590760708,0.0010897654574364424
1772895894177277400,6.63427734375,-0.011358648538589478,0.013501161709427834,0.005792108830064535
1772895894187245600,6.64424560546875,-0.012204734608530998,0.014482536353170872,0.005240834783762693
1772895894197213400,6.65421337890625,-0.012829778715968132,0.014288125559687614,0.002948119305074215
1772895894207181600,6.664181640625,-0.010518953204154968,0.013802897185087204,0.006485063582658768
1772895894217150500,6.674150390625,-0.01176318246871233,0.015917181968688965,0.005106344819068909
1772895894227118600,6.68411865234375,-0.014092116616666317,0.01525724958628416,0.00484322477132082
1772895894237086500,6.69408642578125,-0.013824203051626682,0.013912087306380272,0.0030924626626074314
1772895894247054600,6.7040546875,-0.011975170113146305,0.013217268511652946,0.003294330323114991
1772895894257023500,6.7140234375,-0.009736782871186733,0.014423147775232792,0.00022796659322921187
1772895894266991600,6.72399169921875,-0.011494736187160015,0.015157114714384079,0.0017243968322873116
1772895894276959500,6.73395947265625,-0.012583436444401741,0.015657790005207062,0.002302835462614894
1772895894286927400,6.74392724609375,-0.012711534276604652,0.012661466374993324,0.0041406829841434956
1772895894296896500,6.753896484375,-0.012118182145059109,0.01564766839146614,0.0024346618447452784
1772895894306864400,6.763864501953125,-0.01420610025525093,0.014049772173166275,0.004295678809285164
1772895894316832500,6.77383251953125,-0.01398798730224371,0.015268168412148952,0.0026024410035461187
1772895894326800600,6.783800537109375,-0.010904579423367977,0.014218617230653763,0.003335076617076993
1772895894336769500,6.79376953125,-0.01258077286183834,0.01543701346963644,0.004800613969564438
1772895894346737400,6.8037373046875,-0.010850250720977783,0.014067881740629673,0.005944175645709038
1772895894356705500,6.81370556640625,-0.010043845511972904,0.016349945217370987,0.001845038030296564
1772895894366673400,6.82367333984375,-0.014260961674153805,0.013637781143188477,0.005948436446487904
1772895894376642600,6.833642578125,-0.012310728430747986,0.01582077518105507,0.004315386060625315
1772895894386610400,6.8436103515625,-0.01230540219694376,0.01215892843902111,0.003034672001376748
1772895894396578600,6.85357861328125,-0.013172526843845844,0.014300642535090446,0.006331399083137512
1772895894406546700,6.863546630859375,-0.015211177058517933,0.013402091339230537,0.004166249185800552
1772895894416515600,6.873515625,-0.013321930542588234,0.016106797382235527,0.0032147017773240805
1772895894426483500,6.8834833984375,-0.011149323545396328,0.012998356483876705,0.001898034941405058
1772895894436451300,6.893451416015625,-0.0126968864351511,0.017049290239810944,0.006971090566366911
1772895894446420500,6.90342041015625,-0.014109959825873375,0.014301175251603127,0.002130795270204544
1772895894456388400,6.913388427734375,-0.01312325894832611,0.013742177747189999,0.005730856209993362
1772895894466356500,6.9233564453125,-0.012706740759313107,0.014671088196337223,0.005175587255507708
1772895894476324600,6.93332470703125,-0.011039335280656815,0.013425261713564396,0.0023318638559430838
1772895894486293500,6.94329345703125,-0.014367487281560898,0.012713664211332798,0.0055002267472445965
1772895894496261600,6.95326171875,-0.012820723466575146,0.016948889940977097,0.005834453273564577
1772895894506229500,6.9632294921875,-0.012830311432480812,0.014180267229676247,0.0054152715019881725
1772895894516197400,6.973197265625,-0.009518403559923172,0.014229802414774895,0.004026433452963829
1772895894526166500,6.98316650390625,-0.011985023505985737,0.014246846549212933,0.003983556292951107
1772895894536134400,6.993134521484375,-0.011121094226837158,0.01564181037247181,0.005796370096504688
1772895894546102500,7.0031025390625,-0.01326840091496706,0.013186109252274036,0.0034751589410007
1772895894556070700,7.013070556640625,-0.008168980479240417,0.013232448138296604,0.003471963107585907
1772895894566039600,7.02303955078125,-0.011781558394432068,0.01309156697243452,0.0031372036319226027
1772895894576007700,7.033007568359375,-0.013964551500976086,0.015279886312782764,0.003436010330915451
1772895894585975300,7.042975341796875,-0.0113988621160388,0.014026070013642311,0.006894391495734453
1772895894595943400,7.052943359375,-0.01260767038911581,0.015909191220998764,0.0029377329628914595
1772895894605912300,7.062912353515625,-0.012850018218159676,0.013222062028944492,0.0037111148703843355
1772895894615880400,7.07288037109375,-0.013246296904981136,0.012318718247115612,0.002975017298012972
1772895894625848600,7.0828486328125,-0.012052934616804123,0.013232714496552944,0.005004345905035734
1772895894635816400,7.09281640625,-0.011631089262664318,0.01576058752834797,0.0037004624027758837
1772895894645785600,7.10278564453125,-0.01381115335971117,0.014388793148100376,0.004677309654653072
1772895894655753700,7.112753662109375,-0.009563145227730274,0.01426522247493267,0.004644286818802357
1772895894665721300,7.122721435546875,-0.009815080091357231,0.012206066399812698,0.002916427794843912
1772895894675690500,7.1326904296875,-0.011766377836465836,0.01395629532635212,0.0034258903469890356
1772895894685658400,7.142658447265625,-0.010762899182736874,0.013628726825118065,0.006804642733186483
1772895894695626500,7.15262646484375,-0.011759720742702484,0.013836453668773174,0.005253617651760578
1772895894705594600,7.1625947265625,-0.011628426611423492,0.013590376824140549,0.005622731987386942
1772895894715563500,7.1725634765625,-0.012893161736428738,0.01260846946388483,0.0032586439047008753
1772895894725531600,7.18253173828125,-0.015090801753103733,0.014345116913318634,0.0035744947381317616
1772895894735499300,7.192499267578125,-0.01127822045236826,0.01525804866105318,0.002895388752222061
1772895894745467400,7.20246728515625,-0.010464625433087349,0.016138756647706032,0.002957174088805914
1772895894755436500,7.2124365234375,-0.012171978130936623,0.015261510387063026,0.0037795582320541143
1772895894765404400,7.222404296875,-0.010748517699539661,0.013619671575725079,0.00643632747232914
1772895894775372500,7.23237255859375,-0.0109842075034976,0.015557387843728065,0.0036876790691167116
1772895894785340700,7.242340576171875,-0.012366920709609985,0.014844193123281002,0.002817890839651227
1772895894795309600,7.2523095703125,-0.008803345263004303,0.013617275282740593,0.00401498144492507
1772895894805277700,7.262277587890625,-0.011290737427771091,0.014337926171720028,0.005447496194392443
1772895894815245300,7.272245361328125,-0.01149793155491352,0.013264672830700874,0.004866127856075764
1772895894825213400,7.28221337890625,-0.013576528988778591,0.014459633268415928,0.004985969979315996
1772895894835182300,7.292182373046875,-0.012712066993117332,0.015035941265523434,0.0019353191601112485
1772895894845150500,7.302150390625,-0.012586365453898907,0.014423414133489132,0.0027329358272254467
1772895894855118600,7.31211865234375,-0.012849751859903336,0.011385279707610607,0.00458729499951005
1772895894865087500,7.32208740234375,-0.011681157164275646,0.015136875212192535,0.004653075244277716
1772895894875055600,7.3320556640625,-0.01127822045236826,0.015986157581210136,0.005351622123271227
1772895894885023500,7.3420234375,-0.012927782721817493,0.014254303649067879,0.0020008329302072525
1772895894894991400,7.351991455078125,-0.011293401010334492,0.011907791718840599,0.005234975833445787
1772895894904960500,7.36196044921875,-0.01164786797016859,0.013462012633681297,0.0049308426678180695
1772895894914928400,7.371928466796875,-0.012684369459748268,0.01441249530762434,0.004599545616656542
1772895894924896500,7.381896484375,-0.011829761788249016,0.013817545026540756,0.0032796829473227262
1772895894934864600,7.39186474609375,-0.015007179230451584,0.015519038774073124,0.004983306862413883
1772895894944833500,7.40183349609375,-0.01125372014939785,0.013431918807327747,0.00472524669021368
1772895894954801700,7.4118017578125,-0.013367203995585442,0.015050321817398071,0.005887183826416731
1772895894964769500,7.42176953125,-0.007987353019416332,0.012694223783910275,0.004090349189937115
1772895894974736600,7.431736572265625,-0.009250223636627197,0.01486549898982048,0.0073266224935650826
1772895894984705800,7.441705810546875,-0.01125025749206543,0.014907044358551502,0.0015307849971577525
1772895894994673700,7.451673583984375,-0.009665676392614841,0.01449851505458355,0.0024913870729506016
1772895895004641500,7.4616416015625,-0.011384746991097927,0.015052985399961472,0.004235491156578064
1772895895014610400,7.4716103515625,-0.012677179649472237,0.015296132303774357,0.005664010997861624
1772895895024578600,7.48157861328125,-0.01179167814552784,0.01321061048656702,0.004910869058221579
1772895895034546700,7.491546630859375,-0.013816479593515396,0.015166969038546085,0.0032178976107388735
1772895895044514600,7.5015146484375,-0.011612447910010815,0.012796488590538502,0.002641589380800724
1772895895054483700,7.511483642578125,-0.011828696355223656,0.01347266510128975,0.0044139232486486435
1772895895064451600,7.52145166015625,-0.012346148490905762,0.013731790706515312,0.0027481159195303917
1772895895074419700,7.531419677734375,-0.011938950978219509,0.01588096283376217,0.005392634775489569
1772895895084387600,7.5413876953125,-0.013280651532113552,0.013786385767161846,0.0031039142049849033
1772895895094356500,7.5513564453125,-0.013028183951973915,0.01452940795570612,0.0051683965139091015
1772895895104324600,7.56132470703125,-0.010264888405799866,0.015668176114559174,0.004819522611796856
1772895895114292700,7.571292724609375,-0.011179950088262558,0.013675598427653313,0.005918875336647034
1772895895124260600,7.581260498046875,-0.013541908003389835,0.014095579273998737,0.003114833263680339
1772895895134229800,7.591229736328125,-0.012010057456791401,0.015624499879777431,0.002895122393965721
1772895895144197600,7.60119775390625,-0.01203961856663227,0.01576058752834797,0.0054696002043783665
1772895895154165500,7.61116552734375,-0.012636166997253895,0.013857225887477398,0.004047472029924393
1772895895164133600,7.621133544921875,-0.010892328806221485,0.012708604335784912,0.002828809665516019
1772895895174102500,7.6311025390625,-0.00983558688312769,0.01215946115553379,0.0030684941448271275
1772895895184070700,7.641070556640625,-0.012642824091017246,0.013620737008750439,0.004128698725253344
1772895895194038500,7.65103857421875,-0.012063054367899895,0.015295865945518017,0.003602191573008895
1772895895204007700,7.661007568359375,-0.009882192127406597,0.016213856637477875,0.0059875850565731525
1772895895213975600,7.6709755859375,-0.012419651262462139,0.013788782991468906,0.0060174125246703625
1772895895223943700,7.680943603515625,-0.012833506800234318,0.014152304269373417,0.005161738954484463
1772895895233911600,7.69091162109375,-0.010964500717818737,0.013342437334358692,0.004722050856798887
1772895895243880400,7.70088037109375,-0.01010829396545887,0.013005813583731651,0.004767591133713722
1772895895253848600,7.7108486328125,-0.013518205843865871,0.011510448530316353,0.002852778183296323
1772895895263816700,7.720816650390625,-0.014945127069950104,0.014231134206056595,0.004933239426463842
1772895895273784600,7.73078466796875,-0.010569287464022636,0.0140758715569973,0.004340153653174639
1772895895283753700,7.740753662109375,-0.010241452604532242,0.01381115335971117,0.002133192028850317
1772895895293721600,7.7507216796875,-0.012771988287568092,0.013786652125418186,0.004867193289101124
1772895895303689700,7.760689697265625,-0.010882475413382053,0.014688931405544281,0.006248041987419128
1772895895313657600,7.77065771484375,-0.011648399755358696,0.012584767304360867,0.0037851508241146803
1772895895323626500,7.78062646484375,-0.013005014508962631,0.011661715805530548,0.0031728900503367186
1772895895333594600,7.7905947265625,-0.012530971318483353,0.013373595662415028,0.004997421521693468
1772895895343562500,7.8005625,-0.009368201717734337,0.012837234884500504,0.003697799053043127
1772895895353531600,7.81053173828125,-0.012954414822161198,0.01519812736660242,0.002317216480150819
1772895895363499500,7.82049951171875,-0.013175723142921925,0.013190370053052902,0.002388855442404747
1772895895373467600,7.830467529296875,-0.010247311554849148,0.015173892490565777,0.005225121974945068
1772895895383435800,7.840435791015625,-0.013027651235461235,0.013688648119568825,0.003066896228119731
1772895895393404700,7.85040478515625,-0.012444418855011463,0.01190938986837864,0.00270710326731205
1772895895403372500,7.86037255859375,-0.013253221288323402,0.014793327078223228,0.00509888818487525
1772895895413340700,7.870340576171875,-0.01122415903955698,0.014878015965223312,0.0031790153589099646
1772895895423308500,7.88030859375,-0.011899270117282867,0.014692925848066807,0.005576126743108034
1772895895433277700,7.890277587890625,-0.014073207974433899,0.014843128621578217,0.00558065390214324
1772895895443245600,7.90024560546875,-0.01309103425592184,0.014878015965223312,0.0037955371662974358
1772895895453213700,7.910213623046875,-0.011648666113615036,0.01429398451000452,0.005693572107702494
1772895895463181800,7.920181884765625,-0.012382101267576218,0.016595754772424698,0.005585447885096073
1772895895473150700,7.930150634765625,-0.013145362958312035,0.01318078301846981,0.004743622615933418
1772895895483118600,7.94011865234375,-0.012095012702047825,0.016930246725678444,0.004159324802458286
1772895895493086500,7.95008642578125,-0.010251838713884354,0.013464409857988358,0.0038333539851009846
1772895895503055600,7.9600556640625,-0.012947756797075272,0.014784804545342922,0.004716990981251001
1772895895513023500,7.9700234375,-0.009069128893315792,0.015139537863433361,0.006969226058572531
1772895895522991600,7.97999169921875,-0.01224841084331274,0.015164838172495365,0.005603024736046791
1772895895532959700,7.989959716796875,-0.01136823557317257,0.012411129660904408,0.003543868428096175
1772895895542928600,7.9999287109375,-0.011593272909522057,0.014880145899951458,0.004572381265461445
1772895895552896800,8.009896728515624,-0.010687531903386116,0.013489177450537682,0.0022450448013842106
1772895895562864600,8.01986474609375,-0.012316587381064892,0.014742461033165455,0.00449887802824378
1772895895572832500,8.02983251953125,-0.012504606507718563,0.013107546605169773,0.0034045851789414883
1772895895582801700,8.0398017578125,-0.012171978130936623,0.014211959205567837,0.005499694030731916
1772895895592769500,8.04976953125,-0.011887552216649055,0.013826332986354828,0.005004079546779394
1772895895602737700,8.059737548828124,-0.010357832536101341,0.015296132303774357,0.0034325483720749617
1772895895612705800,8.069705810546875,-0.01625167392194271,0.013370933011174202,0.007474161684513092
1772895895622674700,8.0796748046875,-0.01426255889236927,0.014151238836348057,0.006376673001796007
1772895895632642600,8.089642578125,-0.013165603391826153,0.013587447814643383,0.002010686555877328
1772895895642610400,8.0996103515625,-0.00800359807908535,0.013765347190201283,0.00484295841306448
1772895895652579600,8.10957958984375,-0.012010590173304081,0.014473747462034225,0.0054877097718417645
1772895895662547700,8.119547607421875,-0.013846573419868946,0.014108095318078995,0.0022650184109807014
1772895895672515600,8.129515625,-0.012116051279008389,0.013772537931799889,0.003765709698200226
1772895895682483700,8.139483642578124,-0.009350891225039959,0.012375176884233952,0.0030458574183285236
1772895895692452600,8.14945263671875,-0.011228952556848526,0.013993313536047935,0.003775297198444605
1772895895702420700,8.159420654296875,-0.011800467036664486,0.013672668486833572,0.002112419344484806
1772895895712388600,8.169388671875,-0.01089552417397499,0.013243633322417736,0.0020996362436562777
1772895895722356500,8.1793564453125,-0.012494486756622791,0.014992797747254372,0.001988049829378724
1772895895732325600,8.18932568359375,-0.011961054988205433,0.014298511669039726,0.0025238776579499245
1772895895742293500,8.19929345703125,-0.012627111747860909,0.013105149380862713,0.0034165694378316402
1772895895752261600,8.20926171875,-0.012065717950463295,0.017111076042056084,0.003822701284661889
1772895895762230500,8.21923046875,-0.010116550140082836,0.013757890090346336,0.0043654534965753555
1772895895772198700,8.22919873046875,-0.013115269131958485,0.012572783045470715,0.004620051942765713
1772895895782166800,8.239166748046875,-0.011286476626992226,0.014781609177589417,0.004641090985387564
1772895895792134400,8.249134521484375,-0.010913900099694729,0.013945642858743668,0.005631254054605961
1772895895802103600,8.259103515625,-0.011737083084881306,0.015895342454314232,0.00017949705943465233
1772895895812071700,8.26907177734375,-0.011452658101916313,0.012801814824342728,0.005097290500998497
1772895895822039600,8.27903955078125,-0.010334929451346397,0.015560584142804146,0.003887948812916875
1772895895832007700,8.289007568359375,-0.011654525063931942,0.0143493777140975,0.003727626521140337
1772895895841976600,8.2989765625,-0.012647618539631367,0.01372433453798294,0.0020628846250474453
1772895895851944700,8.30894482421875,-0.01275813952088356,0.017247429117560387,0.0037950044497847557
1772895895861912800,8.318912841796875,-0.012680641375482082,0.015518772415816784,0.0032570459879934788
1772895895871880400,8.32888037109375,-0.013668141327798367,0.012744290754199028,0.004745220299810171
1772895895881849600,8.338849609375,-0.014548050239682198,0.013287043198943138,0.0031180288642644882
1772895895891817500,8.3488173828125,-0.011638812720775604,0.013700099661946297,0.0009933591354638338
1772895895901785600,8.35878564453125,-0.01260980125516653,0.013902499340474606,0.002531600883230567
1772895895911754500,8.36875439453125,-0.012062788009643555,0.014828747138381004,0.0048826392740011215
1772895895921722600,8.37872265625,-0.012174640782177448,0.013584517873823643,0.004320978652685881
1772895895931690800,8.388690673828124,-0.010821488685905933,0.013229785487055779,0.004019242711365223
1772895895941658600,8.39865869140625,-0.014210361056029797,0.017373930662870407,0.0046882289461791515
1772895895951627800,8.408627685546875,-0.012201538309454918,0.013787983916699886,0.005254949443042278
1772895895961595600,8.418595703125,-0.010868626646697521,0.014099307358264923,0.004178766161203384
1772895895971563800,8.428563720703124,-0.012490757741034031,0.011322695761919022,0.002639458980411291
1772895895981532000,8.438531982421875,-0.012661999091506004,0.013950436376035213,0.0017773937433958054
1772895895991500800,8.448500732421875,-0.010310428217053413,0.012227371335029602,0.002581668319180608
1772895896001469000,8.458468994140626,-0.013056679628789425,0.015797339379787445,0.006090116687119007
1772895896011436800,8.468436767578124,-0.01324256882071495,0.012636166997253895,0.005529255140572786
1772895896021405700,8.47840576171875,-0.010378338396549225,0.013968279585242271,0.003176884725689888
1772895896031373800,8.488373779296875,-0.013136308640241623,0.013594372197985649,0.005585181526839733
1772895896041341700,8.498341796875,-0.012978915125131607,0.012630574405193329,0.0014024205738678575
1772895896051309800,8.508309814453124,-0.011315771378576756,0.013569071888923645,0.003920971881598234
1772895896061278700,8.51827880859375,-0.010037720203399658,0.013822338543832302,0.004185423720628023
1772895896071246800,8.528246826171875,-0.012486230581998825,0.012382101267576218,0.005452822428196669
1772895896081215000,8.538215087890626,-0.01251206360757351,0.015215171501040459,0.0065290057100355625
1772895896091182600,8.5481826171875,-0.011303787119686604,0.013798636384308338,0.001204814063385129
1772895896101151700,8.55815185546875,-0.011636150069534779,0.015214638784527779,0.00407596817240119
1772895896111120000,8.568119873046875,-0.0114001939073205,0.013884124346077442,0.0031553131993860006
1772895896121087700,8.578087646484375,-0.01115997601300478,0.013007411733269691,0.0040796962566673756
1772895896131057000,8.588056884765624,-0.011431085877120495,0.013684120960533619,0.003320961957797408
1772895896141024800,8.598024658203125,-0.011536015197634697,0.015237276442348957,0.004729507956653833
1772895896150993000,8.607992919921875,-0.012112056836485863,0.013493970967829227,0.004681038204580545
1772895896160960800,8.617960693359375,-0.01028832420706749,0.013570936396718025,0.0014594122767448425
1772895896170930000,8.627929931640624,-0.011271030642092228,0.014598117209970951,0.004220577888190746
1772895896180897800,8.637897705078124,-0.011394068598747253,0.015572834759950638,0.005134308245033026
1772895896190865700,8.64786572265625,-0.010665427893400192,0.012830577790737152,0.0010684601729735732
1772895896200833800,8.657833740234375,-0.011998605914413929,0.014135526493191719,0.0051923650316894054
1772895896210802700,8.667802734375,-0.011539210565388203,0.01426282525062561,0.0028421254828572273
1772895896220770800,8.677770751953124,-0.011639079079031944,0.012467321939766407,0.0023153522051870823
1772895896230739000,8.687739013671875,-0.012341354973614216,0.015304121188819408,0.002811232814565301
1772895896240706600,8.69770654296875,-0.011664379388093948,0.015511048957705498,0.00401551416143775
1772895896250675700,8.70767578125,-0.013309679925441742,0.013526993803679943,0.005679457448422909
1772895896260643800,8.717643798828124,-0.012528841383755207,0.014214888215065002,0.002639725338667631
1772895896270611700,8.72761181640625,-0.01281513087451458,0.012688364833593369,0.0029462550301104784
1772895896280580900,8.737580810546875,-0.012267318554222584,0.0123043367639184,0.0034586472902446985
1772895896290548700,8.747548828125,-0.013140303082764149,0.012502209283411503,0.003206712193787098
1772895896300516900,8.757516845703124,-0.013169597834348679,0.013520868495106697,0.004652808886021376
1772895896310485000,8.767485107421875,-0.010296579450368881,0.01486469991505146,0.003570233704522252
1772895896320454000,8.777453857421875,-0.010967696085572243,0.015743808820843697,0.004963599611073732
1772895896330421800,8.787421875,-0.014117150567471981,0.013265738263726234,0.003973436541855335
1772895896340389600,8.7973896484375,-0.011321630328893661,0.012285694479942322,0.004846953321248293
1772895896350357800,8.807357666015625,-0.012297146022319794,0.013769874349236488,0.004048537462949753
1772895896360326700,8.81732666015625,-0.01275467686355114,0.016110792756080627,0.0029643645975738764
1772895896370294800,8.827294677734375,-0.011770373210310936,0.0151017215102911,0.005381183233112097
1772895896380263000,8.837262939453124,-0.012987171299755573,0.014109160751104355,0.002427737694233656
1772895896390231800,8.847231689453125,-0.00917352456599474,0.014603443443775177,0.0059814597479999065
1772895896400200000,8.857199951171875,-0.010607370175421238,0.013097159564495087,0.004327370319515467
1772895896410167800,8.867167724609375,-0.013068930245935917,0.016220781952142715,0.004004328977316618
1772895896420135700,8.8771357421875,-0.010525611229240894,0.01381248515099287,0.0025939189363271
1772895896430104800,8.887104736328125,-0.012983975932002068,0.012397014535963535,0.003787281457334757
1772895896440072700,8.89707275390625,-0.01142842322587967,0.016211725771427155,0.0041761030443012714
1772895896450040800,8.907040771484375,-0.011604724451899529,0.017120663076639175,0.00285011506639421
1772895896460009000,8.917009033203126,-0.013249492272734642,0.01519040483981371,0.002092179376631975
1772895896469977900,8.926977783203125,-0.01079565566033125,0.0137214045971632,0.0033742249943315983
1772895896479946000,8.936946044921875,-0.010355968028306961,0.014940599910914898,0.004837898537516594
1772895896489913600,8.94691357421875,-0.014658038504421711,0.014984807930886745,-0.00009400958515470847
1772895896499881700,8.9568818359375,-0.011601261794567108,0.015032212249934673,0.0028104339726269245
1772895896509850600,8.9668505859375,-0.012167982757091522,0.013248427771031857,0.003373159794136882
1772895896519818800,8.97681884765625,-0.010971690528094769,0.012107795104384422,0.005863748025149107
1772895896529787000,8.986786865234375,-0.012463061138987541,0.017437312752008438,0.0023574302904307842
1772895896539755800,8.996755859375,-0.011201787739992142,0.014161891303956509,0.003484213724732399
1772895896549724000,9.006723876953124,-0.013933392241597176,0.012695289216935635,0.004150270018726587
1772895896559692000,9.016692138671875,-0.011824967339634895,0.013801832683384418,0.004758269991725683
1772895896569659600,9.02665966796875,-0.012808739207684994,0.014959774911403656,0.004236556589603424
1772895896579628800,9.03662890625,-0.011509116739034653,0.012834039516746998,0.0036136433482170105
1772895896589596700,9.0465966796875,-0.013795973733067513,0.012577577494084835,0.0035390746779739857
1772895896599564800,9.056564697265625,-0.014888668432831764,0.014445784501731396,0.0046727824956178665
1772895896609533700,9.06653369140625,-0.012682505883276463,0.013705692254006863,0.0059995693154633045
1772895896619501800,9.076501708984376,-0.01327186357229948,0.015308116562664509,0.004277569241821766
1772895896629470000,9.086469970703124,-0.013394635170698166,0.014939001761376858,0.0011377023765817285
1772895896639437600,9.0964375,-0.012007393874228,0.0157155804336071,0.003428020980209112
1772895896649407000,9.106406982421875,-0.011260377243161201,0.016111059114336967,0.005112203769385815
1772895896659374600,9.11637451171875,-0.01293523982167244,0.01689988747239113,0.00507092522457242
1772895896669342700,9.1263427734375,-0.013323528692126274,0.015245531685650349,0.004078364931046963
1772895896679310800,9.136310791015624,-0.011273959651589394,0.01341540738940239,0.0026937874499708414
1772895896689279700,9.14627978515625,-0.012881976552307606,0.0140785351395607,0.002817091764882207
1772895896699247900,9.156247802734375,-0.013428723439574242,0.012686233967542648,0.005034972447901964
1772895896709216000,9.166216064453126,-0.01005343347787857,0.011439075693488121,0.006295979022979736
1772895896719185000,9.176184814453125,-0.014286793768405914,0.012340289540588856,0.004867193289101124
1772895896729152800,9.18615283203125,-0.010232397355139256,0.015546735376119614,0.0025893915444612503
1772895896739120600,9.19612060546875,-0.013744574040174484,0.01561411377042532,0.0036724992096424103
1772895896749088800,9.2060888671875,-0.012989834882318974,0.014300376176834106,-0.00031611722079105675
1772895896759057700,9.2160576171875,-0.014242053031921387,0.012369317933917046,0.002403236459940672
1772895896769025800,9.22602587890625,-0.012059326283633709,0.01560958568006754,0.0021931130904704332
1772895896778994000,9.235993896484375,-0.013272928074002266,0.012232697568833828,0.002222141483798623
1772895896788961800,9.2459619140625,-0.013048158027231693,0.012690228410065174,0.005319930613040924
1772895896798931000,9.255930908203124,-0.01191018894314766,0.014329138211905956,0.005536179058253765
1772895896808898600,9.265898681640625,-0.012861736118793488,0.01540505513548851,0.004455468617379665
1772895896818866700,9.27586669921875,-0.012983443215489388,0.012604475021362305,0.004037884995341301
1772895896828835800,9.2858359375,-0.012295016087591648,0.013193299993872643,0.003422162029892206
1772895896838803700,9.2958037109375,-0.013669473119080067,0.013115002773702145,0.0016399745363742113
1772895896848771800,9.305771728515625,-0.014080132357776165,0.013738182373344898,0.004653341136872768
1772895896858740000,9.315739990234375,-0.012507270090281963,0.01432034932076931,0.003555053612217307
1772895896868708900,9.325708984375,-0.012733904644846916,0.013942980207502842,0.003454652614891529
1772895896878677000,9.335677001953124,-0.010963701643049717,0.01230193953961134,0.0019499665359035134
1772895896888644600,9.34564453125,-0.012109925970435143,0.013579724356532097,0.004805407952517271
1772895896898612700,9.35561279296875,-0.011362909339368343,0.01498347707092762,0.005271727219223976
1772895896908581600,9.36558154296875,-0.013331517577171326,0.013597567565739155,0.0038597192615270615
1772895896918549800,9.3755498046875,-0.011698734015226364,0.015594672411680222,0.0022897860035300255
1772895896928518000,9.385517822265625,-0.01125345379114151,0.015410647727549076,0.005289570428431034
1772895896938485800,9.39548583984375,-0.012034558691084385,0.014274276793003082,0.004543885588645935
1772895896948455000,9.405454833984376,-0.012291287072002888,0.012584234587848186,0.0037020600866526365
1772895896958422800,9.4154228515625,-0.01438186876475811,0.014110758900642395,0.0024855281226336956
1772895896968390700,9.425390625,-0.01251153089106083,0.015207182615995407,0.0032743564806878567
1772895896978359800,9.43535986328125,-0.01185346394777298,0.013686517253518105,0.004463457968086004
1772895896988327700,9.44532763671875,-0.013070528395473957,0.014219416305422783,0.003370763035491109
1772895896998295800,9.4552958984375,-0.01025583315640688,0.014480405487120152,0.001900964416563511
1772895897008264000,9.465263916015624,-0.011378888040781021,0.013219399377703667,0.004736431874334812
1772895897018232800,9.47523291015625,-0.01278530340641737,0.01423539500683546,0.003963849041610956
1772895897028201000,9.485200927734375,-0.012762400321662426,0.014385064132511616,0.0032690302468836308
1772895897038168600,9.49516845703125,-0.014061756432056427,0.013689180836081505,0.004737497307360172
1772895897048137700,9.5051376953125,-0.010633735917508602,0.0139019675552845,0.00392816262319684
1772895897058105600,9.515105712890625,-0.011679559014737606,0.015076953917741776,0.004055728204548359
1772895897068073700,9.52507373046875,-0.013231382705271244,0.01323937252163887,0.004742290824651718
1772895897078041900,9.535041748046876,-0.011914183385670185,0.014285728335380554,0.0017904432024806738
1772895897088010800,9.5450107421875,-0.012418054044246674,0.013789848424494267,0.004175037611275911
1772895897097979000,9.554978759765625,-0.015028750523924828,0.011100854724645615,0.0033281524665653706
1772895897107946800,9.56494677734375,-0.01387027557939291,0.014348046854138374,0.0037260286044329405
1772895897117914600,9.57491455078125,-0.010200705379247665,0.013562946580350399,0.0028357338160276413
1772895897127883800,9.5848837890625,-0.012706474401056767,0.013792777433991432,0.0016215987270697951
1772895897137851600,9.5948515625,-0.014094247482717037,0.014112889766693115,0.003421096596866846
1772895897147819800,9.60481982421875,-0.013144563883543015,0.012407135218381882,0.00367170013487339
1772895897157788700,9.61478857421875,-0.012131763622164726,0.012958142906427383,0.004584099166095257
1772895897167756800,9.6247568359375,-0.013228453695774078,0.013439375907182693,0.0029824741650372744
1772895897177725000,9.634724853515625,-0.011545602232217789,0.0160085279494524,0.003472495824098587
1772895897187692500,9.644692626953125,-0.010523481294512749,0.013708621263504028,0.0030482541769742966
1772895897197661700,9.65466162109375,-0.01312325894832611,0.015391739085316658,0.002162486780434847
1772895897207627800,9.664627685546876,-0.011935755610466003,0.013432984240353107,0.005894108209758997
1772895897217596000,9.674595947265624,-0.01074079517275095,0.01401941291987896,0.003891677362844348
1772895897227563800,9.684563720703125,-0.011753329075872898,0.013222861103713512,0.0034911378752440214
1772895897237533000,9.694532958984375,-0.01296346914023161,0.014268417842686176,0.003540406236425042
1772895897247500500,9.70450048828125,-0.010423612780869007,0.013215137645602226,0.0003552656853571534
1772895897257468700,9.71446875,-0.012503008358180523,0.014879080466926098,0.005771868862211704
1772895897267437800,9.724437744140625,-0.012966398149728775,0.014275342226028442,0.0033920682035386562
1772895897277405700,9.73440576171875,-0.010373012162744999,0.013025520369410515,0.0034999263007193804
1772895897287373800,9.744373779296875,-0.0121852932497859,0.013771738857030869,0.0024445154704153538
1772895897297341700,9.754341796875,-0.011582354083657265,0.01571584679186344,0.005600361619144678
1772895897307310800,9.764310791015625,-0.011362642981112003,0.011305385269224644,0.004740426782518625
1772895897317279000,9.774279052734375,-0.013555223122239113,0.013854296877980232,0.004858138505369425
1772895897327246600,9.78424658203125,-0.013397830538451672,0.013773069716989994,0.002055694116279483
1772895897337214700,9.794214599609376,-0.0115546565502882,0.015320898965001106,0.0036618465092033148
1772895897347183600,9.80418359375,-0.011842544190585613,0.015630092471837997,0.00318913534283638
1772895897357151700,9.81415185546875,-0.012160792015492916,0.01678563840687275,0.002235191175714135
1772895897367120000,9.824119873046875,-0.013196495361626148,0.014347514137625694,0.004322843160480261
1772895897377088800,9.8340888671875,-0.010675547644495964,0.016224242746829987,0.003878627670928836
1772895897387057000,9.844056884765624,-0.011841746047139168,0.01434964407235384,0.0051984903402626514
1772895897397024500,9.8540244140625,-0.012388759292662144,0.01525964681059122,0.003938815090805292
1772895897406992600,9.86399267578125,-0.01146703865379095,0.01341540738940239,0.003522563260048628
1772895897416961800,9.8739619140625,-0.013134177774190903,0.016595754772424698,0.004502340219914913
1772895897426929700,9.8839296875,-0.013215404003858566,0.01474432460963726,0.004589691758155823
1772895897436897800,9.893897705078125,-0.0129323098808527,0.013997041620314121,0.0043561323545873165
1772895897446866000,9.903865966796875,-0.011125621385872364,0.013878797180950642,0.0036629117093980312
1772895897456834800,9.913834716796876,-0.013253487646579742,0.013734454289078712,0.0033009881153702736
1772895897466803000,9.923802978515624,-0.011754926294088364,0.01512995082885027,0.0031182952225208282
1772895897476770600,9.9337705078125,-0.013014335185289383,0.01323990523815155,0.0049255164340138435
1772895897486739700,9.94373974609375,-0.010553840547800064,0.012972523458302021,0.005370264407247305
1772895897496707600,9.95370751953125,-0.013572001829743385,0.015223161317408085,0.00443975580856204
1772895897506675700,9.96367578125,-0.012647618539631367,0.012327772565186024,0.005333512555807829
1772895897516643800,9.973643798828125,-0.010684069246053696,0.011952533386647701,0.004179831128567457
1772895897526612700,9.98361279296875,-0.012087821960449219,0.015972575172781944,0.0028152274899184704
1772895897536580900,9.993580810546876,-0.014369884505867958,0.012508867308497429,0.00296250032261014
1772895897546548700,10.003548828125,-0.013147493824362755,0.016393886879086494,0.003966512158513069
1772895897556518000,10.013517822265625,-0.011262508109211922,0.01636406034231186,0.005087969359010458
1772895897566485800,10.02348583984375,-0.014211692847311497,0.014565094374120235,0.005292766261845827
1772895897576453600,10.03345361328125,-0.010440656915307045,0.013216469436883926,0.0030085730832070112
1772895897586421800,10.043421875,-0.01067874301224947,0.012821522541344166,0.003724697045981884
1772895897596390700,10.053390625,-0.011063303798437119,0.014594389125704765,0.001588841900229454
1772895897606358800,10.06335888671875,-0.011955196037888527,0.014970161020755768,0.003549461020156741
1772895897616327000,10.073326904296875,-0.012913402169942856,0.01525858137756586,0.005773467011749744
1772895897626294800,10.083294677734376,-0.009642506949603558,0.013038570061326027,0.0013068130938336253
1772895897636264700,10.0932646484375,-0.010309096425771713,0.014877749606966972,0.005706089083105326
1772895897646232800,10.10323291015625,-0.012544553726911545,0.015174425207078457,0.006013417616486549
1772895897656200700,10.11320068359375,-0.011518438346683979,0.014365890063345432,0.0031150993891060352
1772895897666169600,10.123169677734374,-0.011565576307475567,0.012310994789004326,0.004031226970255375
1772895897676137700,10.1331376953125,-0.014901451766490936,0.015719573944807053,0.0034176346380263567
1772895897686105900,10.14310595703125,-0.011513111181557178,0.015896674245595932,0.004215783905237913
1772895897696073700,10.15307373046875,-0.010035057552158833,0.014242319390177727,0.0029230855870991945
1772895897706043000,10.16304296875,-0.012586631812155247,0.013493438251316547,0.004226170480251312
1772895897716010800,10.1730107421875,-0.01161324605345726,0.013275058940052986,0.005529521498829126
1772895897725979000,10.182978759765625,-0.011207646690309048,0.01489612553268671,0.006868558935821056
1772895897735947800,10.19294775390625,-0.011854528449475765,0.015352590940892696,0.002906573936343193
1772895897745915600,10.20291552734375,-0.013685451820492744,0.01515871286392212,0.002843723399564624
1772895897755883800,10.2128837890625,-0.01248276885598898,0.013371199369430542,0.006433930713683367
1772895897765851600,10.2228515625,-0.010946124792098999,0.012374377809464931,0.00358807691372931
1772895897775820800,10.23282080078125,-0.011691276915371418,0.01642451249063015,0.005111138802021742
1772895897785788700,10.24278857421875,-0.011634019203484058,0.014961904846131802,-0.0009603358921594918
1772895897795756800,10.2527568359375,-0.010546384379267693,0.012921391054987907,0.003980893176048994
1772895897805725000,10.262724853515625,-0.011899536475539207,0.014154967851936817,0.0030277478508651257
1772895897815693800,10.27269384765625,-0.011128284968435764,0.013569870963692665,0.005539641249924898
1772895897825661700,10.28266162109375,-0.012958409264683723,0.01404870767146349,0.004788896068930626
1772895897835629800,10.2926298828125,-0.013001020066440105,0.013844442553818226,0.005805957596749067
1772895897845598700,10.3025986328125,-0.013675332069396973,0.014671354554593563,0.0030360035598278046
1772895897855566800,10.31256689453125,-0.011565842665731907,0.015143000520765781,0.005216333549469709
1772895897865534700,10.32253466796875,-0.013058277778327465,0.015220231376588345,0.0026373283471912146
1772895897875502800,10.3325029296875,-0.013266004621982574,0.013461746275424957,0.0025483788922429085
1772895897885471700,10.3424716796875,-0.01197836548089981,0.013844708912074566,0.0035582494456321
1772895897895440000,10.35243994140625,-0.011875301599502563,0.016576047986745834,0.003141997382044792
1772895897905407700,10.36240771484375,-0.01164333987981081,0.013820474036037922,0.004778776317834854
1772895897915376600,10.372376708984374,-0.013027651235461235,0.014407968148589134,0.00433163158595562
1772895897925344800,10.3823447265625,-0.010686999186873436,0.0154942711815238,0.003777693957090378
1772895897935312600,10.392312744140625,-0.011988752521574497,0.01565193012356758,0.004460262134671211
1772895897945280800,10.40228076171875,-0.013171728700399399,0.0138431116938591,0.004108458757400513
1772895897955249700,10.412249755859374,-0.011603392660617828,0.012325908057391644,0.0030919299460947514
1772895897965217800,10.4222177734375,-0.011492072604596615,0.015056979842483997,0.0052205948159098625
1772895897975186200,10.432186279296875,-0.011271297000348568,0.012375176884233952,0.005908489227294922
1772895897985155000,10.442155029296876,-0.01185319758951664,0.015033277682960033,0.003279150230810046
1772895897995123200,10.452123291015624,-0.013609551824629307,0.013160808943212032,0.0029923277907073498
1772895898005091000,10.462091064453125,-0.014091583900153637,0.01401808112859726,0.00592526700347662
1772895898015059200,10.47205908203125,-0.011299526318907738,0.012190353125333786,0.0009795106016099453
1772895898025028400,10.4820283203125,-0.012401009909808636,0.015058844350278378,0.005623264703899622
1772895898034996000,10.491995849609374,-0.013613014481961727,0.013935523107647896,0.004162786994129419
1772895898044964000,10.501964111328125,-0.01369557250291109,0.015343536622822285,0.005108209326863289
1772895898054932200,10.51193212890625,-0.01344363670796156,0.013479056768119335,0.004319913685321808
1772895898064901000,10.521901123046876,-0.012416988611221313,0.016080966219305992,0.0033095101825892925
1772895898074869200,10.531869140625,-0.01312006264925003,0.01284788828343153,0.004451740067452192
1772895898084837000,10.541837158203125,-0.01438240148127079,0.015387211926281452,0.00321922916918993
1772895898094806300,10.55180615234375,-0.01053226925432682,0.01273070927709341,0.0017233315156772733
1772895898104774100,10.561774169921875,-0.012373578734695911,0.015312910079956055,0.005290902219712734
1772895898114742000,10.571741943359376,-0.012426042929291725,0.013667608611285686,0.003945473115891218
1772895898124710100,10.581710205078124,-0.013027118518948555,0.01599920727312565,0.0028533106669783592
1772895898134679000,10.591678955078125,-0.011629758402705193,0.013731524348258972,0.004815261345356703
1772895898144647200,10.601647216796875,-0.014164288528263569,0.014537131413817406,0.0037001960445195436
1772895898154615000,10.611614990234376,-0.011144796386361122,0.014990135096013546,0.0005390237784013152
1772895898164584200,10.621584228515625,-0.012253204360604286,0.017417339608073235,0.004797950852662325
1772895898174552300,10.63155224609375,-0.011768508702516556,0.014914500527083874,0.004800880327820778
1772895898184520000,10.64152001953125,-0.012939500622451305,0.012773851864039898,0.0033949976786971092
1772895898194488000,10.651488037109376,-0.010540791787207127,0.01429478358477354,0.0037063213530927896
1772895898204457000,10.66145703125,-0.01076902449131012,0.01512888539582491,0.003922836389392614
1772895898214425000,10.671425048828125,-0.012921657413244247,0.013235644437372684,0.0033987262286245823
1772895898224393200,10.681393310546875,-0.013316337950527668,0.015308116562664509,0.005428321193903685
1772895898234362000,10.691362060546876,-0.011242534033954144,0.01395656168460846,0.005911951418966055
1772895898244330200,10.701330322265624,-0.01134160440415144,0.013526194728910923,0.005949768237769604
1772895898254298000,10.711298095703125,-0.0110470587387681,0.014171479269862175,0.0044054011814296246
1772895898264266000,10.721265869140625,-0.011657455004751682,0.014086257666349411,0.004539624322205782
1772895898274235100,10.731235107421876,-0.012224974110722542,0.015311578288674355,0.0031401331070810556
1772895898284203000,10.741203125,-0.012284096330404282,0.01575898937880993,0.0043798345141112804
1772895898294171100,10.751171142578125,-0.014963236637413502,0.017124924808740616,0.0028386632911860943
1772895898304140000,10.76114013671875,-0.012911804020404816,0.014332866296172142,0.006774016655981541
1772895898314108200,10.771108154296876,-0.013310479000210762,0.01398878637701273,0.005514075048267841
1772895898324076300,10.781076171875,-0.01255014631897211,0.015382684767246246,0.0031521173659712076
1772895898334044200,10.791044189453125,-0.011770905926823616,0.015078552067279816,0.0067604342475533485
1772895898344013300,10.801013427734375,-0.011347463354468346,0.013968545943498611,0.002529470482841134
1772895898353981000,10.81098095703125,-0.012292885221540928,0.015001852996647358,0.005028048064559698
1772895898363949000,10.820948974609376,-0.013100888580083847,0.012878247536718845,0.004226702731102705
1772895898373917200,10.830917236328125,-0.012402340769767761,0.013228453695774078,0.006841660942882299
1772895898383886000,10.840885986328125,-0.013115269131958485,0.014845791272819042,0.00660597113892436
1772895898393854200,10.850854248046875,-0.012239355593919754,0.014580540359020233,0.006627276539802551
1772895898403822000,10.860822021484376,-0.01164440531283617,0.013944577425718307,0.004083158448338509
1772895898413791200,10.870791259765625,-0.010029731318354607,0.01321220863610506,0.004012584686279297
1772895898423759000,10.880759033203125,-0.01254189107567072,0.015606923028826714,0.0031824775505810976
1772895898433727000,10.89072705078125,-0.012174907140433788,0.014462295919656754,0.004564391914755106
1772895898443695000,10.900695068359376,-0.010597516782581806,0.012181298807263374,0.004220843780785799
1772895898453664000,10.9106640625,-0.013055614195764065,0.0137842558324337,0.003920705523341894
1772895898463632100,10.920632080078125,-0.009334379807114601,0.013934990391135216,0.0033995250705629587
1772895898473600300,10.930600341796875,-0.011776764877140522,0.016208531334996223,0.005901298485696316
1772895898483569200,10.940569091796876,-0.013029515743255615,0.015151522122323513,0.004312456585466862
1772895898493537300,10.950537353515625,-0.011129084043204784,0.01438399963080883,0.0057593523524701595
1772895898503505200,10.960505126953125,-0.011383681558072567,0.015246330760419369,-0.00014860439114272594
1772895898513473000,10.97047314453125,-0.012740829028189182,0.01500957552343607,0.006252569612115622
1772895898523442000,10.98044189453125,-0.012418320402503014,0.012838033959269524,0.005285841878503561
1772895898533410000,10.99041015625,-0.015453791245818138,0.013700366020202637,0.002513491315767169
1772895898543378200,11.000378173828125,-0.009199091233313084,0.015003716573119164,0.005948170088231564
1772895898553347000,11.01034716796875,-0.011712316423654556,0.014112090691924095,0.005685849115252495
1772895898563315200,11.020315185546876,-0.013058810494840145,0.013100622221827507,0.002719087526202202
1772895898573283000,11.030282958984374,-0.013190636411309242,0.013933658599853516,0.0017425062833353877
1772895898583251200,11.040251220703125,-0.012672917917370796,0.013917413540184498,0.0023401195649057627
1772895898593220400,11.050220458984375,-0.01440903265029192,0.01455790363252163,0.004539890680462122
1772895898603188000,11.06018798828125,-0.012467854656279087,0.014086257666349411,0.006885070353746414
1772895898613156000,11.070156005859374,-0.009519468992948532,0.012048407457768917,0.0034011229872703552
1772895898623124200,11.080124267578125,-0.013845507986843586,0.01636885292828083,0.001748897833749652
1772895898633093000,11.090093017578125,-0.013305419124662876,0.015108644962310791,0.0010868359822779894
1772895898643061200,11.100061279296876,-0.011326157487928867,0.013951501809060574,0.00390259618870914
1772895898653029000,11.110029052734374,-0.012955479323863983,0.01378105953335762,0.002487126039341092
1772895898662998300,11.119998291015625,-0.012417787685990334,0.01378132589161396,0.0046243127435445786
1772895898672966100,11.129966064453125,-0.007348992861807346,0.013667075894773006,0.003325489116832614
1772895898682934000,11.13993408203125,-0.011442537419497967,0.014247112907469273,0.00818203017115593
1772895898692902100,11.149902099609376,-0.0128172617405653,0.014821822755038738,0.005991579964756966
1772895898702871000,11.15987109375,-0.014199442230165005,0.014550446532666683,0.006673349067568779
1772895898712839200,11.169839111328125,-0.011932825669646263,0.013962953351438046,0.005585980135947466
1772895898722807300,11.179807373046875,-0.013307815417647362,0.015128086321055889,0.0046874298714101315
1772895898732776200,11.189776123046874,-0.012827647849917412,0.013382650911808014,0.00196434766985476
1772895898742744300,11.199744384765625,-0.009182579815387726,0.013671337626874447,0.005567604675889015
1772895898752712000,11.2097119140625,-0.012980779632925987,0.013608752749860287,0.004262389149516821
1772895898762680000,11.21968017578125,-0.014581872150301933,0.012836703099310398,0.004261856433004141
1772895898772649000,11.22964892578125,-0.011119762435555458,0.01269662007689476,0.0021350563038140535
1772895898782617000,11.2396171875,-0.012322712689638138,0.011641742661595345,0.005922071170061827
1772895898792585200,11.249585205078125,-0.013494237326085567,0.014634069986641407,0.0042719766497612
1772895898802554000,11.25955419921875,-0.013005280867218971,0.01357253361493349,0.005347893573343754
1772895898812522200,11.269522216796876,-0.01136850193142891,0.014054033905267715,0.0035606464371085167
1772895898822490000,11.279489990234374,-0.014373878948390484,0.012367719784379005,0.005248025059700012
1772895898832458000,11.2894580078125,-0.011711517348885536,0.013377857394516468,0.004429635591804981
1772895898842427100,11.29942724609375,-0.013176788575947285,0.014729677699506283,0.0025779400020837784
1772895898852395000,11.30939501953125,-0.01276000402867794,0.013548832386732101,0.003065032185986638
1772895898862363100,11.319363037109374,-0.011826831847429276,0.0123605290427804,0.004235491156578064
1772895898872332000,11.32933203125,-0.014240188524127007,0.013606622815132141,0.00430286955088377
1772895898882300200,11.339300048828125,-0.010981278494000435,0.012165852822363377,0.00762862479314208
1772895898892268300,11.349268310546876,-0.011590076610445976,0.014304903335869312,0.00301656243391335
1772895898902236200,11.359236083984374,-0.010202836245298386,0.012387161143124104,0.0020122844725847244
1772895898912205300,11.369205322265625,-0.009387110359966755,0.015397864393889904,0.003888747887685895
1772895898922173000,11.3791728515625,-0.012116850353777409,0.014389059506356716,0.003602191573008895
1772895898932141000,11.38914111328125,-0.011390073224902153,0.014289990067481995,0.0032029838766902685
1772895898942110000,11.39910986328125,-0.013634852133691311,0.013191701844334602,0.00324825756251812
1772895898952078000,11.409078125,-0.011158645153045654,0.013560017570853233,0.004529770463705063
1772895898962046200,11.419046142578125,-0.011830028146505356,0.012297678738832474,0.0034091125708073378
1772895898972014300,11.429014404296876,-0.011214571073651314,0.014303571544587612,0.005050684791058302
1772895898981983500,11.4389833984375,-0.01461915671825409,0.014756841585040092,0.003817375050857663
1772895898991951400,11.448951416015625,-0.010867827571928501,0.017057014629244804,0.0049191247671842575
1772895899001919200,11.458919189453125,-0.012492888607084751,0.013715279288589954,0.003828826593235135
1772895899011887400,11.468887451171875,-0.008945824578404427,0.012466256506741047,0.0010378338629379869
1772895899021856300,11.478856201171874,-0.011461978778243065,0.014377075247466564,0.0019523634109646082
1772895899031824400,11.488824462890625,-0.012492622248828411,0.014422348700463772,0.004132693167775869
1772895899041792500,11.49879248046875,-0.01236079540103674,0.014879346825182438,0.0006974819116294384
1772895899051761400,11.508761474609376,-0.011831891722977161,0.01329609751701355,0.001865011639893055
1772895899061729500,11.5187294921875,-0.010787666775286198,0.013902232982218266,0.0016650082543492317
1772895899071697400,11.528697509765625,-0.015075089409947395,0.013372796587646008,0.004388090688735247
1772895899081665300,11.538665283203125,-0.011609517969191074,0.01486310176551342,0.004312190227210522
1772895899091634200,11.54863427734375,-0.012154134921729565,0.014260162599384785,0.0017262609908357263
1772895899101602300,11.558602294921876,-0.01381035428494215,0.014096377417445183,0.004727110732346773
1772895899111570400,11.5685703125,-0.012504340149462223,0.014043646864593029,0.002511627273634076
1772895899121539300,11.578539306640625,-0.011728827841579914,0.014847655780613422,0.004230431281030178
1772895899131507500,11.588507568359375,-0.012665461748838425,0.013406885787844658,0.0009795106016099453
1772895899141475300,11.598475341796876,-0.01296240370720625,0.013786918483674526,0.004056260455399752
1772895899151443500,11.608443359375,-0.010643056593835354,0.012598882429301739,0.0029917950741946697
1772895899161412400,11.618412353515625,-0.012113122269511223,0.015152321197092533,0.002852778183296323
1772895899171380200,11.628380126953125,-0.011256116442382336,0.012493421323597431,0.0035292210523039103
1772895899181348400,11.638348388671876,-0.012954946607351303,0.013374128378927708,0.0019081549253314734
1772895899191317200,11.648317138671874,-0.011937885545194149,0.016409333795309067,0.004138552118092775
1772895899201285400,11.658285400390625,-0.010587929747998714,0.013830861076712608,0.005730057135224342
1772895899211253500,11.66825341796875,-0.01133920717984438,0.011375959031283855,0.004126035608351231
1772895899221221400,11.678221435546876,-0.011776764877140522,0.01392779964953661,0.0041702440939843655
1772895899231190500,11.6881904296875,-0.010483533143997192,0.013785853050649166,0.0032197616528719664
1772895899241158400,11.698158447265625,-0.013395966030657291,0.014070811681449413,0.002055427758023143
1772895899251126300,11.708126220703125,-0.012859606184065342,0.013624199666082859,0.0067692226730287075
1772895899261095200,11.71809521484375,-0.01242045033723116,0.015006646513938904,0.0020562265999615192
1772895899271063300,11.728063232421874,-0.01218715775758028,0.012318451888859272,0.0021877868566662073
1772895899281031400,11.738031494140625,-0.011545069515705109,0.015292669646441936,0.003433347214013338
1772895899290999300,11.747999267578125,-0.011750931851565838,0.01465590763837099,0.002270344877615571
1772895899300968400,11.757968505859376,-0.011175955645740032,0.014546718448400497,0.0034967304673045874
1772895899310936600,11.7679365234375,-0.014537397772073746,0.014800517819821835,0.002252501668408513
1772895899320904400,11.777904541015625,-0.011333614587783813,0.015446067787706852,0.005477589555084705
1772895899330873600,11.78787353515625,-0.011214038357138634,0.014733938500285149,0.0032176312524825335
1772895899340841200,11.79784130859375,-0.012556271627545357,0.011634285561740398,0.003695935010910034
1772895899350809300,11.807809326171874,-0.013072391971945763,0.013340839184820652,0.004261590540409088
1772895899360777500,11.817777587890625,-0.012537362985312939,0.014854580163955688,0.004595017991960049
1772895899370746400,11.827746337890625,-0.011205783113837242,0.01255067903548479,0.004618453793227673
