time,seconds_elapsed,z,y,x
1772896240078742300,0.0757421875,0.6463023462951183,0.028275369630753992,-0.4891579471018165
1772896240088710400,0.08571044921875,0.8434528118580579,0.018186814075708387,-0.50025290322043
1772896240098678000,0.095677978515625,0.8744201970517634,0.0944429552823305,-0.5346469749271869
1772896240108646100,0.105646240234375,0.8081523658961057,0.08847732487618923,-0.6060966657001525
1772896240118615000,0.115614990234375,0.7327963883996009,0.0961617418989539,-0.5610986362621188
1772896240128583200,0.125583251953125,0.6293856982856989,0.07838175505846738,-0.4935812434367835
1772896240138551300,0.13555126953125,0.6066787764370442,0.0453369790688157,-0.43996860345378513
1772896240148519200,0.145519287109375,0.6196545778661966,0.03188946847468614,-0.3735025463122874
1772896240158487300,0.1554873046875,0.6399900944083928,0.022545301546156405,-0.28207470106743276
1772896240168456200,0.165456298828125,0.6579787555634975,0.024052491238713263,-0.18154117382504045
1772896240178424000,0.175424072265625,0.6221493172913789,-0.017075053441524504,-0.1375965258974582
1772896240188392200,0.18539208984375,0.585330283460021,-0.0646323389083147,-0.039565117669105525
1772896240198360300,0.1953603515625,0.6098012923717498,-0.036707390150427816,0.053316944972053165
1772896240208328200,0.205328125,0.6224930161625146,-0.005284370143711567,0.1186644464123994
1772896240218296300,0.21529638671875,0.6341279243767262,0.05553542473912239,0.1603836733754724
1772896240228265200,0.22526513671875,0.6325777723252773,0.13622721030563115,0.2110259923107922
1772896240238233300,0.2352333984375,0.6869459068506956,0.1837301352366805,0.2889480209030211
1772896240248201200,0.245201171875,0.8785475061148404,0.1456114169836044,0.26066023018211126
1772896240258169000,0.255169189453125,1.0839467445850373,0.07144201892316342,0.18834683525189755
1772896240268137200,0.26513720703125,1.1981295886039733,0.139422206954658,0.18131284496188163
1772896240278106000,0.275106201171875,1.0411854612231255,0.19253098906874655,0.27607041915133596
1772896240288074200,0.28507421875,0.9456582178354263,0.21362959893792866,0.6346370429426431
1772896240298042400,0.29504248046875,0.8001689659267663,0.07106295647770167,0.798555539380759
1772896240308010200,0.30501025390625,0.719573334211111,-0.002599661104381084,1.1005840641964226
1772896240317978400,0.314978271484375,0.8831056078106164,0.4401443984121084,1.3769278203964233
1772896240327947300,0.324947265625,1.1928116084516047,0.30519115356504917,1.3461759776495397
1772896240337915400,0.334915283203125,1.2459294506549834,0.16928426125496626,1.2860440189003943
1772896240347883300,0.34488330078125,1.426602828669548,0.18003624915480612,1.5615496437758207
1772896240357851400,0.354851318359375,1.8248194719344377,0.12186258486658334,1.9101414015196263
1772896240367819300,0.3648193359375,2.3036171338677405,0.1674316191256046,2.0108159446679053
1772896240377788400,0.374788330078125,2.616015442332625,0.26163784304261206,1.9046251223161816
1772896240387756300,0.38475634765625,2.518606622982025,0.43837125125974413,1.5495041089341044
1772896240397724400,0.394724365234375,2.1971908953249453,0.417723161637038,1.2316345294512807
1772896240407692500,0.404692626953125,1.8590426440536976,0.28178090575262904,1.4001089356280862
1772896240417660200,0.41466015625,1.5007190352380275,0.21854265155121683,1.8095292560830711
1772896240427629300,0.42462939453125,0.5636486130058765,0.06528320403248071,1.838216275254637
1772896240437597200,0.43459716796875,-0.2651642636030912,0.11969430091679095,1.6675814761735497
1772896240447565300,0.4445654296875,-0.4825988077819347,0.26803426608145237,1.6141155511848628
1772896240457533400,0.454533447265625,-0.3510784599930048,0.29634616833031174,1.7077901524432002
1772896240467501300,0.464501220703125,-0.3395458431094885,0.17769100120291112,2.00059704073146
1772896240477470500,0.474470458984375,-0.5758481693655252,-0.1620684846572578,1.9798766165249049
1772896240487438300,0.484438232421875,-1.2280249606519937,-0.7687647967509925,1.4696717166759072
1772896240497406200,0.49440625,-1.7760574868530035,-0.9356472575612366,1.082283779808879
1772896240507374300,0.504374267578125,-2.2372528566002843,-0.748952865691483,0.774077223945409
1772896240517342200,0.51434228515625,-2.929669303816557,-0.62070657113716,0.1743073501139879
1772896240527311400,0.524311279296875,-3.617796529406309,-0.7351546419635414,-0.5342062454223633
1772896240537279500,0.534279541015625,-4.563023370087146,-0.9493120641678571,-0.8465374800004064
1772896240547247400,0.544247314453125,-5.467126173219085,-1.0154380026347936,-0.8609080967888235
1772896240557215500,0.554215576171875,-6.1680783935904495,-0.9460396183684467,-1.3673312861420213
1772896240567183400,0.564183349609375,-6.435565547183155,-0.738019237614423,-2.0904719574458897
1772896240577152300,0.57415234375,-5.779244495698809,-0.46372357305064793,-2.6296128827914593
1772896240587120400,0.584120361328125,-4.862259999161958,-0.20849735061600802,-3.092274525699019
1772896240597088300,0.594088134765625,-4.14322267152369,-0.22887422208189964,-3.6833243558496234
1772896240607056400,0.604056396484375,-3.1986902428478,-0.4977674430802464,-4.313752841186523
1772896240617024500,0.6140244140625,-2.7249849356174467,-0.7518782516188919,-4.070192506626248
1772896240626993400,0.623993408203125,-2.92669817905128,-1.130475271525979,-3.206900145049393
1772896240636961300,0.633961181640625,-2.8846435826539993,-1.3849392774164675,-2.7843337811648845
1772896240646929200,0.64392919921875,-2.2694629353314637,-1.2233147371344268,-2.5997300779640673
1772896240656897300,0.653897216796875,-1.2653946141034365,-0.6240574890002608,-2.5681138734728095
1772896240666865400,0.663865478515625,-0.4467313755869865,0.14795520363077522,-2.8097160597026347
1772896240676834300,0.673834228515625,-0.018444003707170486,0.5881792431503534,-3.115690472599864
1772896240686802400,0.683802490234375,0.22803251056075094,0.7474968216642737,-3.1303122876703737
1772896240696770300,0.693770263671875,0.4283756346851587,0.8516255969196558,-2.990820230349898
1772896240706738200,0.70373828125,0.6107569856613874,0.877888165423274,-2.656581845998764
1772896240716706300,0.713706298828125,0.6045990475535392,0.8831751659154892,-2.051493699754029
1772896240726675200,0.72367529296875,0.1993739868313074,0.8351992166452109,-1.3639147556968032
1772896240736643300,0.733643310546875,0.1505056187659502,0.8242818090505898,-0.6335464712269604
1772896240746611500,0.743611572265625,-0.3868289878100157,0.9274855784155428,0.7881728231847286
1772896240756579300,0.753579345703125,-0.12127952428162098,0.6767160431288183,0.3530770864643156
1772896240766547500,0.76354736328125,0.02689735927581787,0.9453729711532592,0.2098304989159107
1772896240776516400,0.773516357421875,0.7471411400943994,1.7140362072259188,-0.7557241133920848
1772896240786484200,0.783484130859375,1.3256617435395717,1.943893595126271,-0.31794622491560875
1772896240796452400,0.793452392578125,1.8713006526023148,1.7346505407094954,0.0007150164015591144
1772896240806420200,0.803420166015625,1.6499106487959623,0.9175053055405616,-0.13775916911326347
1772896240816388400,0.813388427734375,1.6964344995617866,0.32459669578075406,-0.24003011460751295
1772896240826357200,0.823357177734375,1.8910329425543546,-1.1318223022207616,2.5139324936911462
1772896240836325400,0.833325439453125,2.3099773165494204,-3.260196850951016,9.173526284229755
1772896240846293500,0.84329345703125,3.4101720161020754,-3.329050606946647,3.8474297531619666
1772896240856261400,0.853261474609375,4.630191364952921,-2.949930586078763,1.3174763912573455
1772896240866229200,0.863229248046875,1.447285551214218,0.254338333684206,1.1389439707942306
1772896240876198400,0.873198486328125,-0.81838325253129,2.0741563440695403,0.4590739206138998
1772896240886166300,0.883166259765625,-1.2930372387886047,2.1171867997616527,-0.785171303281188
1772896240896134400,0.893134521484375,-0.9355290380090474,2.1037951110079884,-2.2703213057264686
1772896240906102500,0.9031025390625,-0.21949089218676088,1.996539143642783,-2.726519305577874
1772896240916070100,0.913070068359375,0.5560761319249868,1.7651204977750776,-2.3950042087107897
1772896240926039600,0.92303955078125,0.9905828167110681,1.4566837864175437,-1.8346787487782537
1772896240936007200,0.933007080078125,0.9482353748470544,0.8227636595726012,-1.0248675097592175
1772896240945975300,0.942975341796875,0.7691174095809459,0.3231473737552762,-0.17571780143380164
1772896240955943400,0.952943359375,0.5854653080165386,0.13080226264744996,0.5601090407028794
1772896240965911300,0.962911376953125,0.3779343182146549,0.12149871999025344,0.8925450518071651
1772896240975879400,0.97287939453125,0.02557049458622932,0.26250118187367916,0.6222840495869517
1772896240985848300,0.982848388671875,-0.3854366566687822,0.4196528145253658,0.10326792064234613
1772896240995816200,0.992816162109375,-0.2988444148868322,0.3288186973899603,-0.09695742232128977
1772896241005784300,1.002784423828125,-0.8164987539589404,0.3766492468401789,0.37891967599019405
1772896241015752200,1.012752197265625,-1.0305775579690932,0.37540596878081556,0.7087604099042714
1772896241025721300,1.022721435546875,-1.104372862020135,-0.000014905308187007903,0.8742150298684835
1772896241035689500,1.032689453125,-1.310772801965475,-0.3061176207602024,0.9239951059512793
1772896241045657300,1.0426572265625,-1.1612409966677426,-0.3924316301226616,1.059657521981001
1772896241055625500,1.05262548828125,-0.7741337764382362,-0.40128801353424787,1.1138402169369161
1772896241065593300,1.06259326171875,-0.3463771504342556,-0.1448936241030693,1.1224443791531025
1772896241075561200,1.072561279296875,-0.08688450272679328,0.02875818471163511,0.8542354871571064
1772896241085530400,1.0825302734375,-0.0014583821147680282,0.007385141815245151,0.42884588254541156
1772896241095498200,1.092498291015625,0.04784837736785411,-0.04781710544675588,0.15523001693934202
1772896241105466400,1.10246630859375,0.17756781321465967,0.025725685147941112,0.10656798510104418
1772896241115434500,1.1124345703125,0.2880167314022779,0.07461714182794094,0.1445670224972069
1772896241125402400,1.12240234375,0.36650048553049563,0.0439516621902585,0.04034077821671962
1772896241135371500,1.13237158203125,0.4380535636126995,0.04965688809454441,-0.24656375415995715
1772896241145339100,1.142339111328125,0.5531763188302516,0.09471446570008993,-0.5156986018944532
1772896241155307300,1.152307373046875,0.6418938822031021,0.10894932727962732,-0.6161420397005974
1772896241165275400,1.162275390625,0.7000947267591953,-0.0031868133425712584,-0.47601475321650505
1772896241175243300,1.1722431640625,0.6700608230233192,-0.041523996651917694,-0.5881923948928713
1772896241185212400,1.18221240234375,0.7093132214814424,0.01826411709561944,-0.7877830201495438
1772896241195180500,1.1921806640625,0.9361182360738516,0.07286036128848791,-0.7494345117285848
1772896241205148200,1.202148193359375,1.0347644882649183,0.08299947798699141,-0.7342292707469313
1772896241215116300,1.2121162109375,0.8821528371304274,0.2122626944988966,-0.8812028429292141
1772896241225084400,1.22208447265625,0.7347346629858017,0.20904972380176184,-0.6251278947107494
1772896241235053300,1.23205322265625,0.668276277694106,-0.06235811036601662,-0.45244281203635034
1772896241245021400,1.242021484375,0.8592185362666844,0.11451456019133328,-0.15969057654477656
1772896241254989300,1.2519892578125,0.9857003053665161,0.14431611647605896,-0.25795520900711416
1772896241264957400,1.26195751953125,0.8794792340070009,0.07530015565603972,-0.3244512228954583
1772896241274925300,1.27192529296875,0.7332341952949762,0.08798340387940407,-0.16991276841685174
1772896241284894200,1.281894287109375,0.5761977134555578,0.09461217436939477,-0.026011808612942694
1772896241294862300,1.2918623046875,0.31012218022644517,0.07550064666420221,0.010852964056283235
1772896241304831000,1.3018310546875,-0.0311398191511631,0.05347001664191484,0.05807473395839333
1772896241314799000,1.311799072265625,-0.2917249382704496,-0.14050576440766452,0.3089651191458106
1772896241324767000,1.32176708984375,-0.32151743446588515,-0.6561880727544427,0.7935771664462983
1772896241334736000,1.33173583984375,-0.4332306735008955,-0.366893284240365,0.8303542608320712
1772896241344704000,1.3417041015625,-0.29661271031200886,-0.3088789021670818,0.8773505514152348
1772896241354671900,1.351671875,-0.07127952183783054,-0.4247070291750133,0.8286879350550472
1772896241364640000,1.361639892578125,0.11197568936347961,-0.4367372203171253,0.6780988757893442
1772896241374608100,1.371608154296875,0.15407237133681773,-0.40872064775303,0.7695328585140406
1772896241384577000,1.381576904296875,0.22007716764211654,-0.3878057238876819,0.834673146944493
1772896241394545200,1.391545166015625,0.29885552080273625,-0.4105918484523892,0.9248106601178645
1772896241404512800,1.4015126953125,0.3776847273677587,-0.3830784031048417,0.9216605255238711
1772896241414481000,1.41148095703125,0.42191082258522505,-0.3001850158408284,0.8590892107985914
1772896241424449000,1.421448974609375,0.28186756112277506,-0.2773668887026608,0.8527098850250243
1772896241434418000,1.43141796875,0.2745464244544506,-0.33252135130017996,0.9312460999928415
1772896241444386000,1.441385986328125,0.44975335375666614,-0.3472738070130348,0.8672748553417623
1772896241454354000,1.45135400390625,0.6039379532963037,-0.26928908844813704,0.7036958199910819
1772896241464321800,1.46132177734375,0.8799299003839492,-0.12146145671978592,0.5770168478187173
1772896241474290000,1.4712900390625,1.2193716985970735,0.019592004698514937,0.5195978743553161
1772896241484258800,1.4812587890625,1.3857365652740001,0.125800216576457,0.5257146036699414
1772896241494227000,1.49122705078125,1.4468980132013558,0.18371084601432083,0.6666132398527115
1772896241504195000,1.501195068359375,1.5965578287929296,0.22103768323734402,0.8242153927508741
1772896241514163000,1.511162841796875,1.862708180823922,0.3572109713986516,0.9158470169395208
1772896241524131000,1.521131103515625,2.271340419641137,0.6270521407715975,0.8638064485788345
1772896241534100000,1.531099853515625,2.6816186720997095,0.8870277496904134,0.8365428132738918
1772896241544067800,1.54106787109375,3.0287954484790562,1.054733509582281,0.9849853620301932
1772896241554036000,1.551035888671875,3.4633062249183655,1.1771489060260354,1.0952291130345315
1772896241564003800,1.56100390625,3.948208048945665,1.3805841509468852,1.101812071621418
1772896241573972000,1.570971923828125,4.809876316452026,1.5719002112679183,1.1354786327712236
1772896241583940000,1.580940185546875,4.7085663980096575,1.8758871036097406,1.3768484715498983
1772896241593909000,1.590908935546875,2.5629724189311265,2.356288839738816,2.7361870053723454
1772896241603877000,1.600877197265625,3.542220771679282,1.784488776720315,1.8064556938566267
1772896241613845000,1.610844970703125,3.6111008311599493,1.6852170861072837,2.5766037616595625
1772896241623812900,1.620812744140625,2.5734850451171396,1.976781426988542,1.9589771824896334
1772896241633782000,1.630781982421875,1.3956699302673339,2.269941951020062,2.1932545787893236
1772896241643750000,1.64075,-0.48596506934463973,3.039687429371476,3.1202076577633617
1772896241653718000,1.650718017578125,-1.6511434054613112,3.717373048184812,2.113631445367634
1772896241663686100,1.66068603515625,-1.4571651401937007,3.9033091690331694,1.055796754899621
1772896241673654000,1.670654052734375,-1.2709189304828643,3.4356463568374513,0.38117227722257374
1772896241683622000,1.680621826171875,-1.0207406390875577,2.7887577350869774,0.10572188966572284
1772896241693590800,1.6905908203125,-0.5412959114223719,2.521553782349825,0.358685427865386
1772896241703559000,1.700558837890625,-1.1579343563377857,2.8146479631468653,0.7799722733333706
1772896241713527000,1.710527099609375,-2.6358231356084345,2.644272399523854,0.8936939295813441
1772896241723495000,1.720494873046875,-4.113600271198154,1.9082940200872718,0.7832336132168769
1772896241733464000,1.730464111328125,-5.198548301780224,0.9292948197945952,1.0302148621365428
1772896241743432000,1.740431884765625,-5.272639373907446,-0.19467180048972368,0.9418737308606505
1772896241753399800,1.75039990234375,-3.9799762291282414,-0.7050241459853946,0.43230362178385257
1772896241763368000,1.760367919921875,-2.699469386088848,-0.8070308145202696,0.30025837333798405
1772896241773335800,1.770335693359375,-2.2986434371083972,-0.9749788587354123,0.3543251868292689
1772896241783304000,1.780303955078125,-2.4669079999268053,-1.3560769016779959,-0.05812251862287521
1772896241793273000,1.790273193359375,-3.019159020605683,-1.7755666345961392,-0.5605813343897461
1772896241803241000,1.800240966796875,-3.3138667740792034,-2.3023802855491637,-0.9148582981631159
1772896241813209000,1.810208984375,-3.4053245760709046,-2.933081742608547,-1.312244628083706
1772896241823177000,1.820177001953125,-3.430425115057826,-3.6373493711382148,-1.5806100258156657
1772896241833144800,1.830144775390625,-2.918825838240981,-4.0515243387743824,-1.7428195263788102
1772896241843114000,1.840114013671875,-2.2464286812245846,-4.209923925660551,-2.170357833456993
1772896241853081900,1.850081787109375,-1.7279513353317975,-4.292167909105122,-2.672502760969102
1772896241863050000,1.860050048828125,-1.361961721932888,-4.20786436278224,-3.2107755251780152
1772896241873018000,1.87001806640625,-1.4319704931825399,-3.8749738859087226,-3.6966634376332164
1772896241882986000,1.879986083984375,-1.7274702738165855,-3.5201661762595173,-4.197568301956355
1772896241892955100,1.889955078125,-1.7976883039027451,-3.345341524273157,-4.519076384072005
1772896241902922800,1.8999228515625,-1.8108342012017964,-3.208511087377369,-4.5298003149211405
1772896241912891000,1.909890869140625,-1.786690524548292,-3.124288205075264,-4.444335615864396
1772896241922859000,1.91985888671875,-1.3289046709835528,-3.133170599710941,-4.364842684693635
1772896241932827000,1.929826904296875,-0.44932665277719497,-4.254102382344008,-3.2341973172977565
1772896241942796000,1.939796142578125,-0.11925123332440853,-8.40271142308116,2.5136294190913437
1772896241952764200,1.94976416015625,0.037792847299575806,-9.981868619740009,9.3394819855839
1772896241962732000,1.95973193359375,1.7515157507926225,-6.747196378406882,10.862890407013893
1772896241972700000,1.969699951171875,3.1909757229477167,-4.9219046127855774,8.342856381577253
1772896241982668000,1.97966796875,2.5141741934925315,-4.368228527739644,4.503181772586703
1772896241992637000,1.989636962890625,0.30418460687100884,-3.147777801734209,1.3581246279880403
1772896242002605000,1.99960498046875,-1.2089777303546667,-2.069707547967136,-0.7566248616240918
1772896242012573000,2.009572998046875,-1.5378040265291928,-1.0825821782335638,-2.2740727672144767
1772896242022541000,2.019541015625,-1.0055898317068814,-0.5853054412797093,-3.219766933146119
1772896242032509000,2.029509033203125,-0.4287175799906254,-0.3447567096255719,-3.0776246535778045
1772896242042476800,2.039476806640625,-0.23781214629709718,0.036034313194453715,-2.3421762893646956
1772896242052446000,2.049446044921875,-0.09197335029840469,0.30934038219898935,-1.709300410875678
1772896242062413800,2.059413818359375,0.017605214795470236,0.48830578725188967,-0.9881532514765858
1772896242072382000,2.0693818359375,0.13253390874564647,0.9351988562066107,-0.14610592250227927
1772896242082350000,2.07935009765625,0.1703898844093084,1.0531075158156453,1.2625079527512193
1772896242092318000,2.08931787109375,-0.476611550065875,1.6124939413323998,1.9348104172214864
1772896242102287000,2.099287109375,-1.051738419419527,1.4694690337106584,2.409651888874918
1772896242112255000,2.1092548828125,-1.2565180646866558,1.6027333025574684,2.6481279059082268
1772896242122222800,2.119222900390625,-1.2324001069962978,1.8229126153998076,1.667199637249112
1772896242132191000,2.12919091796875,-1.0338602329015731,-0.08650339445471764,2.984197597339749
1772896242142159000,2.1391591796875,-1.671892178979516,-0.09560732288658619,4.580413480827212
1772896242152128000,2.1491279296875,-2.1040485012471675,-1.0119345976237206,4.46535589980036
1772896242162096000,2.15909619140625,-1.883622374036908,-0.002001402950286865,1.293816114206612
1772896242172064000,2.16906396484375,-1.8966262325167655,1.1376182751484214,-3.54911549962908
1772896242182032000,2.179031982421875,-2.638455237677693,1.7007624457634984,-6.644738458973169
1772896242192000000,2.189,-2.7402503092885016,0.6535062863245606,-6.533816662576794
1772896242201969000,2.198968994140625,-2.600868142083287,-0.1432241565208882,-5.645195506215095
1772896242211937000,2.20893701171875,-1.9104016598910092,-1.986886056895554,-4.27048945352137
1772896242221905000,2.21890478515625,-0.4306394879639148,-5.385585954129696,0.872228313030675
1772896242231873000,2.228873046875,0.9238584739595651,-10.686728368943928,11.34927224046588
1772896242241841200,2.238841064453125,2.2736352525800467,-13.436649008375406,15.04683262693882
1772896242251810000,2.24881005859375,4.206847879216075,-8.164518168511986,6.7153557175099845
1772896242261778000,2.25877783203125,4.897416068217158,-1.1293356730367987,-0.6641703036800026
1772896242271746000,2.26874609375,2.873176432222128,1.7512940708659588,-4.782091652947664
1772896242281714000,2.2787138671875,-0.5566653299897909,2.1008700173415242,-5.862812421223521
1772896242291682000,2.28868212890625,-2.7890508728146552,1.4641706350415944,-3.9474464169234036
1772896242301650200,2.298650146484375,-2.7319939375966786,0.3343665407754481,-1.7428474372990428
1772896242311618300,2.308618408203125,-1.2804431301534176,-0.5672822933331132,-0.49934846519399434
1772896242321586400,2.31858642578125,0.32081542367637156,-0.8016656342253089,-0.03343870721068233
1772896242331554300,2.32855419921875,1.171899168804288,-0.5123060368467122,-0.5924533037403598
1772896242341522200,2.338522216796875,1.3451789294362066,-0.021086407974734902,-1.524540786460787
1772896242351491300,2.3484912109375,1.4703899479478597,0.023433920948952434,-2.4399004582747814
1772896242361459200,2.358459228515625,0.472903927719593,-0.2760847399376333,-2.7242446386441586
1772896242371427300,2.36842724609375,-1.731199523472786,-0.752892689358443,-2.5051944759622216
1772896242381395500,2.3783955078125,-3.916038886746764,-0.620933219499886,-1.896231972502172
1772896242391363300,2.38836328125,-5.198941685011983,-0.2253730820931494,-1.4519699096381664
1772896242401331200,2.398331298828125,-4.593554117429256,-0.650017129034549,-2.310326568378508
1772896242411300000,2.408300048828125,-2.6278818212151527,-0.5670972921550274,-2.6951103140965103
1772896242421268200,2.418268310546875,-0.525443093252182,-0.5263678068816662,-2.300846938502043
1772896242431236400,2.428236328125,1.469913562607765,-0.7517066213790327,-2.312838843460381
1772896242441204200,2.438204345703125,3.053888973203301,-0.9767821818303316,-2.2854835112839935
1772896242451172400,2.44817236328125,3.9623534786760803,-1.3030223339691758,-1.78150026242882
1772896242461141200,2.458141357421875,4.253077715471386,-1.5926175667345523,-0.8412520869433879
1772896242471109400,2.468109375,3.774652393981814,-1.9065306636765598,0.05782850411236286
1772896242481077200,2.4780771484375,3.158645232707262,-1.8176561561763285,0.08135536404177546
1772896242491045000,2.488045166015625,2.3206524398207664,-1.6910757490076123,-0.5479714436635374
1772896242501013200,2.49801318359375,1.6806413026243447,-1.6565192532807587,-1.3899994834154843
1772896242510982400,2.507982421875,1.5821546249091625,-1.8788119050152599,-1.994036220911145
1772896242520950300,2.5179501953125,1.8879402372360228,-1.8980597724512218,-2.3701835095785557
1772896242530918400,2.52791845703125,2.1741151401638983,-1.6769000702694057,-2.149496539475024
1772896242540886500,2.537886474609375,1.884247227936983,-1.2779920837394891,-1.5526450373083351
1772896242550854100,2.547854248046875,1.568005688047409,-1.2056119802486152,-1.3664153403408825
1772896242560823300,2.5578232421875,1.2571043401420117,-1.32183224837929,-1.2495185611881314
1772896242570791200,2.567791259765625,0.2253115611642599,-1.1047841462347656,-0.5704603388473392
1772896242580759300,2.57775927734375,-0.312082666644454,-0.44201896011233327,-0.2757245283231139
1772896242590727400,2.5877275390625,-0.00869359406530857,0.35776992045566436,-0.4944501352258026
1772896242600695300,2.5976953125,0.21065292121469972,0.673039546573162,-0.6831677034862339
1772896242610664400,2.60766455078125,0.034084055909514424,-0.04347966076433658,-0.025902064628154038
1772896242620632300,2.61763232421875,-1.012319432222843,-0.9732682554252445,1.1602885182484983
1772896242630600200,2.62760009765625,-2.385647766822576,-1.2567283464364707,1.5230863498687743
1772896242640568300,2.637568359375,-3.2755981259614226,-1.123976995547861,1.282500208813697
1772896242650536200,2.6475361328125,-3.778580965602398,-0.6274176130831242,0.726351596174389
1772896242660505300,2.65750537109375,-4.128398611879349,0.11602408797144889,-0.004993278242647648
1772896242670473200,2.66747314453125,-4.192259381893277,0.7804702859833836,-0.5606430014491081
1772896242680441300,2.67744140625,-3.833806593739986,1.252586570456624,-0.5393681582301855
1772896242690409200,2.6874091796875,-3.2828035272955893,1.2671741909965872,0.06676409024000167
1772896242700377300,2.69737744140625,-2.7330829018771645,1.2517980504274369,0.31284400640577076
1772896242710345200,2.70734521484375,-2.2293074505537747,1.4347352817207575,0.39440249180421233
1772896242720314400,2.717314453125,-1.9217121584564447,1.693425088612735,1.0005451155379415
1772896242730282200,2.7272822265625,-1.7476736884117126,1.9807830638453363,1.7489298259526491
1772896242740250400,2.73725048828125,-1.2652946608603,2.192277112059295,2.219606433011591
1772896242750218500,2.747218505859375,-0.6691992377579212,2.3156275973960754,2.1299518810495734
1772896242760186000,2.75718603515625,-0.21501345451176165,2.117939371694624,1.644079896815866
1772896242770155300,2.7671552734375,-0.26684008786082264,1.8649615127086638,1.1879898873835801
1772896242780123100,2.777123046875,-0.6957868004322052,1.566037164453417,0.5596725489817559
1772896242790091300,2.78709130859375,-1.3898755647748708,1.3731339810714125,0.008945522999763488
1772896242800059400,2.797059326171875,-2.1423311778903007,1.1294967818826436,-0.220438109908998
1772896242810027300,2.80702734375,-2.5625983249217272,0.8204607894577085,-0.11537819128334521
1772896242819996400,2.816996337890625,-2.388454056414962,0.5492449707306921,0.28359219295829535
1772896242829964300,2.82696435546875,-1.984523127156496,0.1275215604763478,0.9553583585947751
1772896242839932200,2.83693212890625,-1.256234571570158,-0.16334486126862466,1.2778462455280124
1772896242849900300,2.846900390625,-0.3491828555047512,-0.14844554443098604,1.1965456804133952
1772896242859868400,2.856868408203125,0.3411649687439203,0.008134864204004406,0.8339749355472624
1772896242869837300,2.86683740234375,0.661720864701271,0.11395349224247038,0.20027868058606982
1772896242879805400,2.876805419921875,0.7139812132924794,0.25655564440749584,-0.3210762665696442
1772896242889773300,2.886773193359375,0.9442506891250609,0.38159766302779313,-0.6119714760176838
1772896242899741400,2.896741455078125,1.3843793054461477,0.44990065327286716,-0.745805653706938
1772896242909709300,2.906709228515625,1.9097692072063683,0.3556726559154689,-0.677906421957165
1772896242919678200,2.91667822265625,2.4172411749601364,0.3291604965649545,-0.5351110853075981
1772896242929646300,2.926646240234375,2.727846170267463,0.22819456925466655,-0.3250381559379399
1772896242939614200,2.9366142578125,2.9295149900376796,0.11308233543112874,-0.19930333274789153
1772896242949582300,2.946582275390625,3.1342706699073313,0.039019904876500366,-0.08730375105217099
1772896242959550500,2.956550537109375,3.2187562947988506,0.05313501253388822,0.02048639625497162
1772896242969519400,2.966519287109375,2.765620897388458,0.16168087357915936,0.02518675596565008
1772896242979487200,2.9764873046875,2.151982218810916,0.3272026404954493,-0.04587919618673622
1772896242989455000,2.986455078125,1.8349445601075887,0.4272364015221595,-0.0695355277147144
1772896242999423200,2.99642333984375,1.7262258267134427,0.38754042401500044,0.013529343658685683
1772896243009391400,3.006391357421875,1.8146107971310614,0.03425385951846838,0.24874095206856725
1772896243019360300,3.0163603515625,1.7234037550300358,-0.41231326541751623,0.6751472594421356
1772896243029328400,3.026328369140625,1.476881063532829,-0.9083484778776765,0.9792794054735451
1772896243039296500,3.036296630859375,1.014468134689331,-1.326262778172642,1.1739264368481934
1772896243049264000,3.04626416015625,0.47501522078514097,-1.6157196253806352,1.1120313408840448
1772896243059232300,3.056232177734375,-0.024148352828621863,-1.7027375452287494,0.7826658232662826
1772896243069200400,3.066200439453125,-0.4808569325506687,-1.637437828452885,0.48499907385669644
1772896243079169300,3.076169189453125,-0.5780313586235046,-1.641037314249575,0.43402430809661746
1772896243089137400,3.086137451171875,-0.5242985993921756,-1.6082082268372178,0.5549440591551363
1772896243099105300,3.096105224609375,-0.48863282724916934,-1.6321929135367272,0.7472139130696653
1772896243109073400,3.106073486328125,-0.4612473921954632,-1.7001850842669606,0.7640326536625623
1772896243119041300,3.116041259765625,-0.477363245216012,-1.7116513579159973,0.6625568771339952
1772896243129010200,3.12601025390625,-0.7662257797926664,-1.6918718678213656,0.6139081431686878
1772896243138978300,3.135978271484375,-1.011861167061329,-1.7485846657767892,0.6678112905308604
1772896243148946200,3.1459462890625,-0.8634346926569938,-1.889944855056703,0.716145405589044
1772896243158914300,3.155914306640625,-0.6925596550792456,-1.6709674653500317,0.9684443424001336
1772896243168882400,3.16588232421875,-1.1240163046449423,-0.8319405801754445,1.1395442747749387
1772896243178851300,3.175851318359375,-1.5961469099044798,0.6480804618835448,-0.15014540715143085
1772896243188819500,3.1858193359375,-2.0756296314924954,1.9235025490045545,-1.1804226669996976
1772896243198787300,3.195787353515625,-2.554357150799036,1.6872767951160668,-0.3937089565820992
1772896243208755200,3.205755126953125,-2.987853197237849,-0.11499299135804175,1.8787351865172386
1772896243218723300,3.215723388671875,-3.189973267906904,-1.4973787848994136,4.136279135996103
1772896243228692200,3.225692138671875,-2.802009138587117,-1.686993009738624,4.862072075374424
1772896243238660400,3.235660400390625,-1.944153122845292,-0.4547625967534259,2.296126924242824
1772896243248628500,3.24562841796875,-1.7716028455317019,1.9080555351562798,-0.16154709113165736
1772896243258596000,3.25559619140625,-1.7640157514035701,2.762012059241533,-0.5184468046240508
1772896243268564200,3.265564208984375,-1.4857915152192116,2.341636191138625,0.0718611211180687
1772896243278532400,3.275532470703125,-0.8867354887455702,2.4740245539337393,0.38300679917335506
1772896243288501200,3.285501220703125,0.10387246240675449,2.4676214088931676,0.2609266260333359
1772896243298469400,3.295469482421875,0.8525830437749624,2.456578329092264,-0.1320851420648396
1772896243308437200,3.305437255859375,1.2110679806321858,2.504921211978793,-0.6062709262885153
1772896243318405400,3.3154052734375,1.3330536073565482,2.503054541324079,-0.9711319740489125
1772896243328373500,3.32537353515625,1.4897919830322264,2.3826339719593523,-1.0643773901097475
1772896243338342400,3.33534228515625,1.7290256865650415,2.177687153431773,-0.7829520197965204
1772896243348310500,3.345310546875,1.8861293884217738,1.785642476800084,-0.3326090295836329
1772896243358278400,3.3552783203125,1.9627935259073972,1.4079511735610664,0.04100888673663139
1772896243368246300,3.365246337890625,1.9659575428962706,1.1682001681558787,0.07392462951913475
1772896243378214400,3.37521435546875,1.7087281639456748,0.9473179677411914,-0.0838372439853847
1772896243388183300,3.385183349609375,1.1386422113686798,0.7565745927415788,-0.07609832029640674
1772896243398151400,3.3951513671875,0.6294651932626962,0.5962332972031086,0.014471446814388035
1772896243408119600,3.40511962890625,0.280644156807661,0.41787148406654595,-0.005428308659046888
1772896243418087400,3.41508740234375,0.17960487200021744,0.2655522400073707,-0.20365918986983597
1772896243428055600,3.4250556640625,0.2900403461843729,0.16986607973091303,-0.4869259502660483
1772896243438024400,3.4350244140625,0.26215105326175686,0.17318068417161703,-0.859995731184259
1772896243447992300,3.444992431640625,0.017874094864726065,0.17160130602568388,-1.3042223574087024
1772896243457960400,3.45496044921875,-0.23298165740072727,0.11342449993230402,-1.5011165101230144
1772896243467928300,3.46492822265625,-0.4922288059145212,0.07053907873407006,-1.4024002614356577
1772896243477896400,3.474896484375,-0.4801759645491838,-0.10890585346408188,-1.2487065141528844
1772896243487864600,3.484864501953125,-0.10753040039241313,-0.38259544189348815,-1.0594473863616585
1772896243497833500,3.49483349609375,0.3361807505905628,-0.6091711047094315,-0.8611803378589451
1772896243507801600,3.504801513671875,0.7174550268828869,-0.6908362653527409,-0.6159897717483341
1772896243517769200,3.514769287109375,1.0793038872152567,-0.8547072693873197,-0.38470030521824955
1772896243527737300,3.5247373046875,1.4200059146225452,-1.1277031764641403,-0.2114332579374313
1772896243537705500,3.53470556640625,1.742374412959814,-1.25506523552984,-0.10886121060475706
1772896243547674400,3.54467431640625,2.0110627590358257,-1.274822952184081,-0.13756547317206858
1772896243557642500,3.554642578125,2.1055536451131105,-1.2029106123354285,-0.26885581159740685
1772896243567610600,3.564610595703125,1.9592413863837719,-1.0234214756693691,-0.4730595566727221
1772896243577578200,3.574578125,1.6985925543785094,-0.9837447873845696,-0.7910314274862408
1772896243587546400,3.58454638671875,1.2568208470255136,-1.1182998266942799,-0.9399791492857038
1772896243597515300,3.594515380859375,0.8340005083799362,-1.2393410121753812,-0.881632174257189
1772896243607483400,3.6044833984375,0.5841133088856935,-1.3263978027291594,-1.0406633370451628
1772896243617451500,3.614451416015625,0.47492345084846016,-1.4393097500294445,-1.1169888902261853
1772896243627419400,3.62441943359375,0.5195680637389422,-1.5319878875963389,-1.1823378529712558
1772896243637387500,3.634387451171875,0.6690472620666027,-1.6212448185428976,-1.2830384073436258
1772896243647356400,3.6443564453125,0.648132484331727,-1.7156372126817703,-1.1947846620902418
1772896243657324300,3.65432421875,0.33284371512234207,-1.7595923820033668,-1.0202657150521874
1772896243667292400,3.66429248046875,0.16249708533287047,-1.7467536509573458,-0.7713863774262368
1772896243677260300,3.67426025390625,0.15235504602491853,-1.6194291474230587,-0.5915564644984901
1772896243687228400,3.684228515625,0.2724117505133152,-1.4734120722480117,-0.8129283481262624
1772896243697197300,3.694197265625,0.38788697243034836,-1.331708476357907,-1.181022386458516
1772896243707165400,3.70416552734375,0.40945115398466586,-1.1565472858935595,-1.2335884399980306
1772896243717133600,3.714133544921875,0.4061573731362819,-1.0406219821214675,-1.038205860890448
1772896243727101400,3.724101318359375,0.2731160993903875,-0.9297022315517067,-0.8211931953854859
1772896243737069300,3.7340693359375,0.06920856078267097,-0.8849731552481651,-0.5648500977501273
1772896243747037400,3.744037353515625,-0.2122930896371603,-0.9526197274111211,-0.23510464090406893
1772896243757006300,3.75400634765625,-0.5929775833427906,-1.074717874599248,0.2141461701579392
1772896243766974500,3.763974365234375,-1.1020669231653213,-1.2951006010591983,0.7153975098311901
1772896243776942600,3.773942626953125,-1.3983973094046116,-1.5210573282591997,0.9510900336258112
1772896243786910500,3.783910400390625,-1.5855267316907644,-1.4762826592482625,0.9332897346496581
1772896243796878300,3.79387841796875,-1.7554858234673738,-1.1578557381436227,0.8724928822509944
1772896243806847200,3.80384716796875,-1.9451924027651548,-0.7358705351479351,0.8707175431415438
1772896243816815400,3.8138154296875,-2.139943405970931,-0.21760712426677345,0.7336072663910687
1772896243826783500,3.823783447265625,-2.5664187599927186,0.11530001148059964,0.6599705139026045
1772896243836751400,3.83375146484375,-2.9686633435994385,0.17511238288655875,0.473121223732084
1772896243846719500,3.843719482421875,-3.2532115221083164,0.45346068384200333,-0.073479369969666
1772896243856688400,3.8536884765625,-3.5020360608071086,0.8115792716048658,-0.9196127992138265
1772896243866656300,3.86365625,-3.5148300759285687,1.1815684760339558,-1.6236135935008524
1772896243876624400,3.873624267578125,-3.251028332850337,1.6463701997101305,-2.0250557746835054
1772896243886592500,3.883592529296875,-2.756644394728541,2.120018369925767,-2.3185177658796308
1772896243896560400,3.893560302734375,-2.2087404633432626,2.2210350045099854,-2.2027710335448383
1772896243906529500,3.903529541015625,-1.8898416869431733,1.801439911521226,-1.2681921358674764
1772896243916497400,3.913497314453125,-1.4067197320699691,1.1919839254558087,0.21252514482736587
1772896243926465500,3.923465576171875,-0.5993704992502927,0.6536870497189462,1.4187582526490092
1772896243936433400,3.933433349609375,0.14371347440779209,0.12570873890072107,1.7038770706526933
1772896243946401300,3.9434013671875,0.6743529672592878,-0.02631327577754855,1.4863582091912626
1772896243956370400,3.953370361328125,1.0620376951158046,0.2993991261601448,1.1744532372012735
1772896243966338300,3.96333837890625,1.2215478735923766,0.49948871391490096,0.6273688055053352
1772896243976306400,3.973306396484375,1.3691758910953997,0.6074826401658355,0.010998802267760038
1772896243986274600,3.983274658203125,1.4420312839478253,0.7223660336695611,-0.5004484988577663
1772896243996242400,3.993242431640625,1.3695096530944109,0.6489473078459501,-0.8422745618589222
1772896244006210300,4.003210205078125,0.8836199870735406,0.6408377972789109,-0.899408507835865
1772896244016179200,4.01317919921875,0.16622867307662964,0.6422901880443096,-0.8978947422720491
1772896244026147300,4.023147216796875,-0.37117490708231926,0.6488841794818639,-0.7098973049797117
1772896244036115500,4.033115478515625,-0.861727888739109,0.6126771400690079,-0.40161483433581885
1772896244046083300,4.043083251953125,-1.061391798427701,0.7543984177462756,-0.33795784326568246
1772896244056051500,4.053051513671875,-1.0369587834388017,1.0555554204244166,-0.17831307862401008
1772896244066020600,4.0630205078125,-0.9355606021910905,1.2767349232852458,0.09334931482672691
1772896244075988500,4.072988525390625,-0.6451859094858169,1.181473637357354,0.1903722035996616
1772896244085956400,4.082956298828125,0.12666647801697253,0.8782328872077166,0.192951187242195
1772896244095924500,4.092924560546875,1.184134965521097,0.7366949302081018,0.39389651504345236
1772896244105892400,4.102892333984375,1.759178248244524,0.5322407175030559,0.7644443032033741
1772896244115861500,4.112861572265625,2.1332360172867775,0.42860681309252974,1.0394554225601256
1772896244125829400,4.122829345703125,2.5990584623128172,0.5247455394420772,1.009717286900431
1772896244135797500,4.132797607421875,2.980115296462178,0.6144038907963782,0.8127448082529007
1772896244145765400,4.142765380859375,3.010117636016011,0.5483512367613613,0.5077274038195609
1772896244155733200,4.152733154296875,2.4792571938902137,0.20042356894947588,0.47429538207799193
1772896244165702400,4.162702392578125,1.59801153473258,-0.058240153653174635,0.8135055634923278
1772896244175670300,4.172670166015625,0.8458686408281326,-0.29350597646832466,0.9554048280850053
1772896244185638400,4.182638427734375,0.6018909576386213,-0.6585218494642525,0.7548299410313367
1772896244195606500,4.1926064453125,0.8262380576848983,-1.1034870190963149,0.5955578090943395
1772896244205574400,4.202574462890625,1.0215367579013108,-1.458715146114677,0.6602497692354024
1772896244215543600,4.21254345703125,1.2064847444951534,-1.9789082098841666,0.6787541248276829
1772896244225511400,4.222511474609375,1.0475538272112608,-2.442034401563555,0.8615960790529846
1772896244235479300,4.232479248046875,0.759620682439208,-2.811724184654653,0.8542810798645019
1772896244245447400,4.242447509765625,0.6072913553774356,-2.851992774417996,0.32656580389663575
1772896244255415600,4.25241552734375,0.4112345302700996,-2.5992002088710664,-0.09130538790896535
1772896244265383400,4.262383544921875,-0.03045826662778854,-2.4171704478114844,0.09336904244050383
1772896244275352600,4.2723525390625,-0.5696668503820895,-2.51961346193701,0.38695246805921196
1772896244285320400,4.282320556640625,-0.7360983525544404,-2.6366549102574584,0.7849195204772055
1772896244295288300,4.292288330078125,-0.46613984041213985,-2.5948390910521146,1.207601619695872
1772896244305256400,4.30225634765625,0.0065425535112619395,-2.5190815470173953,1.1266225416205822
1772896244315224300,4.312224365234375,0.1329430740684271,-2.23102755234465,0.9306345439657568
1772896244325193500,4.322193359375,-0.2697130129486322,-1.8243869257360696,1.1351403407275675
1772896244335161000,4.3321611328125,-0.7744768907874822,-1.3113380346328019,1.4430069971121846
1772896244345129200,4.342129150390625,-1.0976105282783508,-0.46943347513005135,1.5281443639107049
1772896244355097300,4.352097412109375,-1.3456623290389775,0.44914187079481777,0.8678802738890051
1772896244365065200,4.362065185546875,-1.2801210585922003,2.477701488880813,-3.1180425886839624
1772896244375034400,4.372034423828125,-2.032552706310153,4.501448080661893,-6.060372636631131
1772896244385002500,4.38200244140625,-3.403824692901969,3.3067291772842404,-4.244086015242338
1772896244394970000,4.39197021484375,-3.707210258349776,1.3371040517911315,-1.5271353329986332
1772896244404938200,4.401938232421875,-3.556674244445562,-0.3605621815226972,1.9811673869878053
1772896244414906400,4.41190625,-2.882812860095501,-1.4166590884126722,4.42478277413249
1772896244424875300,4.421875244140625,-2.338510752594471,-1.0427821558300405,4.872465751355886
1772896244434843400,4.431843505859375,-2.7803689691871405,0.45374534600228067,3.1891017457693813
1772896244444811300,4.441811279296875,-3.4828795249164104,1.7844053362205623,0.6691622667483985
1772896244454779400,4.451779296875,-3.7073645721286534,3.0301077001214027,-1.7477631202608346
1772896244464747300,4.461747314453125,-2.632222480767965,3.964378262501955,-3.5971439097389575
1772896244474715100,4.471715087890625,-1.3595230966091154,4.130057192741334,-4.259296736116707
1772896244484684300,4.481684326171875,0.03680675887167453,3.5932600540429354,-3.674188570974767
1772896244494652200,4.491652099609375,1.0553151088625192,2.679735927093029,-1.9128053600318728
1772896244504620300,4.501620361328125,1.6542635833084582,1.9695970684424042,-0.4934912270657718
1772896244514588400,4.51158837890625,2.000420368990302,1.4707221025116741,0.02453165305778384
1772896244524556300,4.521556396484375,2.354207503420114,1.4801473718523979,0.004149228633940219
1772896244534525400,4.531525390625,2.6881261542975903,1.7431611794233322,-0.4594863738723099
1772896244544493300,4.541493408203125,2.8132904110580683,1.8343110845096409,-0.8884650890171527
1772896244554461200,4.551461181640625,2.6883675618380307,1.631962027390301,-1.1616539613828063
1772896244564429300,4.56142919921875,2.3090800754487515,1.3499689401917159,-1.0455965556636453
1772896244574397400,4.5713974609375,1.5292472105860708,0.908408975893259,-0.6805158738031983
1772896244584366300,4.581366455078125,0.9019014936953782,0.5090425050061196,-0.28454905529171226
1772896244594334500,4.59133447265625,0.603400193157792,0.2296355983758345,-0.09620806525871158
1772896244604302300,4.60130224609375,0.6839917332202196,-0.07317647803295403,-0.1780534047745168
1772896244614270200,4.611270263671875,1.231379531776905,-0.19372346852263433,-0.3861684780746698
1772896244624238300,4.62123828125,1.6714122865080832,-0.33834611193090675,-0.5929205924585461
1772896244634207200,4.631207275390625,1.6606173362493515,-0.5599439132690429,-0.6113116969347
1772896244644175400,4.64117529296875,1.5973972022265195,-0.6624691988505422,-0.5078339329339564
1772896244654143200,4.651143310546875,1.6422615953475237,-0.7964590054929256,-0.5100663681611418
1772896244664111400,4.661111328125,1.6385463742166757,-0.9475065491158514,-0.5662469589360059
1772896244674079200,4.671079345703125,1.597069869968295,-1.033382970778644,-0.5712095497794449
1772896244684048400,4.68104833984375,1.491173208257556,-1.0555273633737117,-0.6287142287649213
1772896244694016300,4.691016357421875,1.274696110934019,-0.9930255336880683,-0.8279542139530182
1772896244703984400,4.700984375,1.0518506476223468,-0.7704282729838043,-1.0717167930871248
1772896244713952300,4.7109521484375,0.8071493263334035,-0.7401555920559912,-1.2832207781732081
1772896244723920400,4.72092041015625,0.6954343337327241,-0.8099219328518956,-1.2770065798334778
1772896244733888500,4.730888427734375,0.5999082593888044,-1.0088482489809394,-1.1796117890082298
1772896244743857400,4.740857421875,0.4964812026619911,-1.2486211739569901,-0.9905357626989483
1772896244753825300,4.7508251953125,0.4233306262552738,-1.3915258161999284,-0.9227852917701005
1772896244763793200,4.760793212890625,0.3084878570228815,-1.4696353301882743,-0.9734200849860906
1772896244773761300,4.77076123046875,0.14331599952280522,-1.5377372449032962,-0.9664370942309498
1772896244783729400,4.7807294921875,-0.2516992173522711,-1.5999799121960996,-0.6651989160753786
1772896244793698300,4.7906982421875,-0.4956050043493509,-1.6392131675623356,-0.43432679817453024
1772896244803666400,4.80066650390625,-0.2002414173156023,-1.6365791657969355,-0.40089726065099235
1772896244813634300,4.81063427734375,0.2862467991203069,-1.630638377571106,-0.4843351300552487
1772896244823602200,4.820602294921875,0.40370296572148795,-1.553189811709523,-0.566432106244564
1772896244833570300,4.8305703125,0.12472995699644088,-1.4293519812472164,-0.7644679763399064
1772896244843539200,4.840539306640625,0.011114099210500716,-1.1802874232474714,-1.0642033487170934
1772896244853507300,4.85050732421875,0.1948556326240301,-1.006820323349908,-1.5652141576327383
1772896244863475200,4.86047509765625,0.39396600008308885,-0.9759268071100116,-1.9247002343565225
1772896244873443300,4.870443359375,0.4762789571106434,-0.9482007419250905,-2.113654533982277
1772896244883411500,4.880411376953125,0.2942833905816078,-0.9116024381723254,-2.2426330883339047
1772896244893380400,4.89038037109375,-0.2140221053868532,-0.9537281270444392,-2.1048186088368297
1772896244903348200,4.90034814453125,-0.45736558232605456,-1.1385186580542475,-1.8224135798364878
1772896244913316400,4.91031640625,-0.4789660042375326,-1.3363828979097305,-1.4721319693095982
1772896244923284200,4.9202841796875,-0.4805167408108711,-1.5057149438291788,-1.311849199025333
1772896244933252400,4.93025244140625,-0.7689449756234884,-1.6463380510061978,-1.2971703930705785
1772896244943221200,4.94022119140625,-1.5205553700864314,-1.8036149174727498,-1.0574782782457768
1772896244953189400,4.950189453125,-2.173561597934365,-1.9089042609401046,-0.8585473590068519
1772896244963157500,4.960157470703125,-2.618402629730105,-1.8759556388013063,-0.51973991317451
1772896244973125000,4.970125,-2.7981068704515693,-1.5768015734434127,-0.01755392299965024
1772896244983093200,4.98009326171875,-2.474803721612692,-1.134419625237584,0.38026290729269385
1772896244993062100,4.990062255859375,-1.651882241129875,-0.7173392184834927,0.27084011728242036
1772896245003030300,5.0000302734375,-0.8369488367915153,-0.5383217179171741,-0.06508139785006642
1772896245012998400,5.009998291015625,-0.9686907183766365,-0.6891064458854496,-0.2886754875719547
1772896245022966300,5.01996630859375,-2.2164292642801997,-0.7362395145907997,-0.34047201804369687
1772896245032934100,5.02993408203125,-3.8944296970069407,0.007741554037481546,-0.5397491203717887
1772896245042902300,5.03990234375,-5.501652712199092,0.92439944896847,-0.8605795224215835
1772896245052871200,5.04987109375,-6.136321319323778,1.8869541488081216,-1.2188601688783616
1772896245062839300,5.05983935546875,-5.501468003281951,2.667549230214953,-1.0812559711311012
1772896245072807400,5.069807373046875,-3.983755163145065,2.896210686329007,-0.6297240633945912
1772896245082775300,5.079775390625,-2.4040824181795117,2.5596874059110877,-0.17804514840282498
1772896245092743400,5.089743408203125,-1.4006693459898232,2.098445274412632,0.2261785532571375
1772896245102712300,5.09971240234375,-1.1254518904060125,1.8702378456763922,0.27497064121589065
1772896245112680200,5.10968017578125,-1.1917460250467062,1.7459727297127245,0.2243969305373728
1772896245122648300,5.1196484375,-1.2446978630334138,1.733901768168807,0.5390105769641698
1772896245132616200,5.1296162109375,-1.1379016221344471,1.8680784756854176,0.7997625770829617
1772896245142584300,5.139584228515625,-0.7309832014977932,1.93891156893,0.805287331853807
1772896245152553200,5.14955322265625,-0.1004255368232727,2.00324916267544,0.7890624655008316
1772896245162521300,5.159521240234375,0.5988245558053255,2.0354466741859913,0.7063479419350623
1772896245172489500,5.169489501953125,1.118959021255374,1.8880517347864805,0.6589692279055714
1772896245182457000,5.17945703125,1.3543483243197203,1.6595291026212273,0.6846496126070618
1772896245192425200,5.18942529296875,1.366814422661066,1.5421072766810655,0.8183195396453141
1772896245202394400,5.199394287109375,1.305271281939745,1.4515245039582252,0.8805795964643358
1772896245212362200,5.2093623046875,1.3136159164369106,1.3217401861816644,0.8341919392988085
1772896245222330400,5.219330322265625,1.2501298249542712,1.174904341969639,0.8916814207151532
1772896245232298500,5.229298583984375,1.190923602747917,0.9486160447277128,0.857311533601582
1772896245242266000,5.23926611328125,1.4544108730494976,0.7642943002734333,0.7349236096866428
1772896245252235500,5.249235595703125,1.84691556840837,0.6540319176338613,0.44341421386301516
1772896245262203100,5.259203125,2.0478589965134857,0.6232369663976133,0.05105243410617113
1772896245272171300,5.269171142578125,2.0044144070625305,0.4990392531143501,-0.13832476710677147
1772896245282139400,5.279139404296875,2.008557498216629,0.4638853760162368,-0.22697876372411846
1772896245292107300,5.289107177734375,2.167617594838142,0.4997987662447616,-0.3616127134889364
1772896245302076000,5.299075927734375,2.2150410247921943,0.49472898869980125,-0.4298309480600059
1772896245312044800,5.309044921875,2.0824550935983654,0.4428427341179922,-0.3571634789951145
1772896245322013000,5.319012939453125,2.436512277141213,0.4028890189900994,-0.39869492830112574
1772896245331981000,5.32898095703125,2.7441315346360207,0.23018157835341987,-0.47651320425793525
1772896245341949000,5.338948974609375,3.081193159714341,0.12598010318800806,-0.418620110476762
1772896245351917000,5.3489169921875,2.9455519326031205,-0.09510996782369911,-0.1861814739115536
1772896245361886000,5.358885986328125,2.565659466058016,-0.3483706988716498,0.04221051761135459
1772896245371854000,5.36885400390625,2.230974506983161,-0.5784214539196342,0.2816452966742217
1772896245381822000,5.378822021484375,1.9962515588730572,-0.6791789261110126,0.43893575327470896
1772896245391789800,5.388789794921875,1.7380466128885745,-0.6550464284386486,0.4619342054158449
1772896245401758000,5.398758056640625,1.1383756693869829,-0.6520047957204282,0.41275691753178834
1772896245411726800,5.408726806640625,0.5548012896835803,-0.7581248178582638,0.356083720934391
1772896245421695000,5.418695068359375,0.2429220366567373,-0.7778855301871895,0.04259045683965087
1772896245431663000,5.4286630859375,-0.028006781822443007,-0.8743762848448008,-0.43637890839874743
1772896245441631000,5.438630859375,-0.6107359428733586,-1.1176771647512913,-0.6822336375065148
1772896245451598800,5.448598876953125,-1.6017624116986988,-1.4089002909794448,-0.6000004677169024
1772896245461568000,5.458568115234375,-2.634196411189437,-1.818934067157656,0.06030059331431985
1772896245471535900,5.468535888671875,-3.2874189121365545,-2.232373998517543,0.891051306118071
1772896245481504000,5.47850390625,-3.057642188256979,-2.3951997312828897,1.1315306257978082
1772896245491474000,5.488473876953125,-2.182405414125323,-2.3441763771407307,0.8357740939237177
1772896245501442000,5.498442138671875,-1.4548825822144746,-2.306748271500319,0.40655250993371006
1772896245511411000,5.508410888671875,-1.1363730973929167,-2.182964070921391,0.13132862460911274
1772896245521379000,5.518379150390625,-1.0757312894254922,-2.0104569020971654,0.05646233032569289
1772896245531347000,5.528346923828125,-1.1763795290887356,-1.8729133484959601,0.27863047889769077
1772896245541315000,5.538315185546875,-1.4264812481164932,-1.832812224254012,0.8626822668544948
1772896245551283000,5.548282958984375,-1.6697499062538146,-0.9977071156330406,0.7158183655917644
1772896245561251800,5.558251953125,-1.6098942802280187,0.38475389856901016,-0.7109237254180014
1772896245571220000,5.568219970703125,-1.8457412639319895,0.6068119378300383,-0.9213920838460326
1772896245581187800,5.578187744140625,-2.0892665271788835,-0.46205264416374264,0.40221024294570085
1772896245591156000,5.588156005859375,-2.0317565874963996,-1.3261425127938389,1.1908077212832868
1772896245601124000,5.5981240234375,-1.7990309506833553,-1.6725712472848593,1.3204687049411237
1772896245611092000,5.608092041015625,-1.7399363721579313,-1.4612344354592264,1.580432331161201
1772896245621060900,5.618060791015625,-1.9275223060399294,-0.4396491622410714,1.7607491508230566
1772896245631029000,5.628029052734375,-1.7381079876869916,1.1676809665873646,0.9196396872207522
1772896245640996900,5.637996826171875,-1.6062766742527483,1.763485151658207,0.6182567668322474
1772896245650965000,5.647965087890625,-1.2033189739406107,2.2078084431901575,0.22193463207706807
1772896245660933000,5.65793310546875,-0.43305414789021013,2.5303815241888166,-0.23191545294132082
1772896245670902000,5.667902099609375,0.13246493516266344,2.863914682880044,-0.2978297944841906
1772896245680870100,5.6778701171875,0.07820493718683719,3.0415555613309144,-0.1301900855658576
1772896245690837800,5.687837646484375,-0.17837971411943435,3.300411664700508,-0.059898624917306
1772896245700806000,5.697805908203125,0.08675298530161381,3.5453637458801266,-0.20086806131396442
1772896245710774000,5.70777392578125,0.5534826083004474,3.428971409118175,-0.06481832646708935
1772896245720743000,5.717742919921875,0.9116513188153504,3.15247501963973,0.3102618444254622
1772896245730711000,5.7277109375,1.2683166390299796,2.873195721444487,0.533322046466358
1772896245740679000,5.737678955078125,1.3057272090137004,2.522311907240748,0.44331966744735835
1772896245750647000,5.74764697265625,0.9907885684162377,2.270806458894908,0.3152049999160692
1772896245760615000,5.757614990234375,0.6830962456852198,2.0407513564653694,-0.024151531166397035
1772896245770583800,5.767583740234375,0.3547638705074787,1.7953338497310876,-0.4389638833906501
1772896245780552000,5.777552001953125,0.2553179923713207,1.3960947315506635,-0.6735143244780599
1772896245790520000,5.78752001953125,0.4276438132792711,0.9989201446846127,-0.5439702817307784
1772896245800488000,5.797488037109375,0.6061304949045181,0.6148059687912464,-0.2574223807720467
1772896245810456000,5.8074560546875,0.717576022914052,0.1635456810703501,-0.05124580125380307
1772896245820425000,5.817425048828125,0.7205407179385424,-0.21760179050453005,0.16670195314418523
1772896245830393000,5.82739306640625,0.7279542090654373,-0.492306035869196,0.23502989516742526
1772896245840361000,5.83736083984375,0.8829220679372548,-0.6224664934817701,0.028335794581100342
1772896245850328800,5.847328857421875,1.063376250243187,-0.5415840807139873,-0.3470748138422146
1772896245860297000,5.857296875,1.1167664796471595,-0.4736610296972096,-0.6825498638488352
1772896245870265900,5.867265869140625,1.0058990437865256,-0.5046243963029236,-0.7482998086102306
1772896245880234000,5.87723388671875,0.9704852005779743,-0.5763854180473834,-0.6058621262919157
1772896245890202000,5.8872021484375,1.0271750560492277,-0.6576847410529851,-0.5021852595224976
1772896245900169700,5.897169677734375,0.8615893570512533,-0.6087406043376773,-0.5315818882681429
1772896245910137900,5.907137939453125,0.7430301976442336,-0.5282665531750768,-0.7301346218444407
1772896245920107000,5.91710693359375,0.985325626835227,-0.43965727248229086,-0.8891834664195776
1772896245930075000,5.927074951171875,1.3673971909850835,-0.39553229955174024,-0.9248821179188788
1772896245940043000,5.93704296875,1.569189929395914,-0.37678690174520013,-0.8648578573279082
1772896245950011100,5.94701123046875,1.5052449882298706,-0.35937567515186963,-0.7888060795869678
1772896245959979000,5.95697900390625,1.5321306570678948,-0.3857908038686961,-0.90382837010473
1772896245969948200,5.9669482421875,1.677662579074502,-0.3430449372716248,-1.1259564789272845
1772896245979915800,5.976915771484375,1.6954484111338852,-0.24381131364665923,-1.3273375677973032
1772896245989884000,5.9868837890625,1.3645131599813698,-0.16625862982347606,-1.5010250324472785
1772896245999852000,5.99685205078125,0.7275859602749347,-0.1653475793931633,-1.5936984938390553
1772896246009820000,6.00681982421875,0.1779723023623228,-0.18848317498266695,-1.4334540097385644
1772896246019788000,6.0167880859375,0.0854939251512289,-0.37582163690961895,-1.2444839280217885
1772896246029757000,6.0267568359375,0.2496370241254568,-0.6206519914057106,-0.8933755843471736
1772896246039725000,6.03672509765625,0.27743746972084044,-0.7847117229454219,-0.294146904720366
1772896246049693000,6.04669287109375,0.10868716921210288,-0.9901175372868776,0.25198599840439856
1772896246059660800,6.056660888671875,0.1983364604771137,-1.1283737692020832,0.48711212048791347
1772896246069629000,6.06662890625,0.48812487772703167,-1.1962655482977629,0.4113841678738594
1772896246079597800,6.076597900390625,0.7459364404797554,-1.2560036854237318,0.2126632381238043
1772896246089566000,6.08656591796875,0.797957719618082,-1.247010231629014,-0.12084149819053709
1772896246099534000,6.0965341796875,0.44756607284545896,-1.2435630137845872,-0.376416022606194
1772896246109502000,6.106501953125,-0.08386486264467238,-1.1741374492503702,-0.47074601903334257
1772896246119469800,6.1164697265625,-0.4104939410358667,-1.0769657996565103,-0.6981990492057055
1772896246129439000,6.12643896484375,-0.38273207388520236,-1.0354406339608133,-1.114705236268416
1772896246139406800,6.13640673828125,-0.2648310861259699,-1.0273131493456662,-1.5555524491876362
1772896246149375000,6.146375,-0.3639472939163446,-1.0501068726949394,-1.7572567786626516
1772896246159343000,6.156343017578125,-0.6708890905410051,-1.083136451115459,-1.729663253816217
1772896246169311000,6.16631103515625,-0.9241513194262981,-1.1113800373684615,-1.5967812622852622
1772896246179280100,6.176280029296875,-0.9818588275074959,-1.0702744853243231,-1.390326523412764
1772896246189247700,6.186247802734375,-0.877625130572915,-1.0360190914358942,-0.9893624811358749
1772896246199215900,6.1962158203125,-0.6786942113339901,-0.9834293647598474,-0.4328273533970117
1772896246209184000,6.20618408203125,-0.5106196181297302,-0.9903514191079884,0.1484296892747283
1772896246219152000,6.21615185546875,-0.5177005163013935,-0.9250822436008602,0.5496446375727653
1772896246229121000,6.22612109375,-0.7709650832742452,-0.6763534203615039,0.6044822893060744
1772896246239089000,6.2360888671875,-1.2279600787222384,-0.3877119081243872,0.654949909261614
1772896246249057000,6.24605712890625,-1.8429127625077961,0.2121331498350948,0.6063318626955151
1772896246259025000,6.25602490234375,-2.4630261900573966,1.0176074556283652,0.2138769978277385
1772896246268993000,6.265992919921875,-2.921833787885308,1.6817445876911281,0.010164762596413492
1772896246278962000,6.2759619140625,-3.274691532510519,1.965203509658575,0.3672721274901181
1772896246288930000,6.285929931640625,-3.176341632917523,1.8691969583213328,0.8531656659685075
1772896246298897200,6.295897216796875,-2.5819220340728757,1.7414558368101716,0.9677490536123513
1772896246308865000,6.305864990234375,-1.8020289634555577,1.6940864751309155,0.7332361680563538
1772896246318833200,6.315833251953125,-1.2871750687569379,1.5632605393469332,0.43585130432806907
1772896246328802000,6.325802001953125,-1.1693185046613215,1.5220900323078035,0.20159246659837662
1772896246338770200,6.335770263671875,-1.3041431546926499,1.6414323049165307,0.1773006867110729
1772896246348738300,6.34573828125,-1.2934896587312221,1.8870473800495267,0.1618262003339827
1772896246358706200,6.3557060546875,-0.9847849440872669,1.9886524820461868,0.0719981915012002
1772896246368674300,6.36567431640625,-0.47628597137331957,1.7639185746394097,0.2510014443464577
1772896246378642200,6.37564208984375,0.00973579659461975,1.4809887911126016,0.6648163464985788
1772896246388611000,6.385611083984375,0.49456689347326754,1.2443489034652708,1.023517118063569
1772896246398579200,6.3955791015625,0.9402946449756622,0.9898653160914778,1.265666855173558
1772896246408547000,6.405547119140625,1.3865122258216143,0.8119277927815913,1.4396701077744365
1772896246418515200,6.41551513671875,1.7111574369192122,0.6175951611183583,1.4249896943844853
1772896246428483300,6.4254833984375,1.9161989479929207,0.4820756606906652,1.1602476017162202
1772896246438452200,6.4354521484375,1.9618664741903542,0.4180837020451203,0.8658252410553395
1772896246448420400,6.44542041015625,1.6438520794093607,0.3910200462916866,0.4632297981843352
1772896246458388000,6.455387939453125,1.0361632491469384,0.2836903926357627,0.14949688011482357
1772896246468356000,6.465356201171875,0.49437575481534,0.05444766603503376,0.028138153117150067
1772896246478324200,6.47532421875,0.11688684228062629,-0.17053495543580502,-0.07254647303372622
1772896246488293000,6.485293212890625,-0.10321253719329833,-0.30176589182410385,-0.1479478971071541
1772896246498261200,6.49526123046875,-0.16694237430393694,-0.4648944434609264,-0.10084668484479188
1772896246508229400,6.5052294921875,0.020658757147192952,-0.5409749358396977,0.03382175171151757
1772896246518197000,6.515197021484375,0.4447790724754333,-0.5660566605282947,0.13015154365375636
1772896246528165000,6.5251650390625,0.9732032273650169,-0.5852934220483527,0.2309619881413877
1772896246538134000,6.535134033203125,1.4303542901575566,-0.6234745745457708,0.36574718294516206
1772896246548102100,6.54510205078125,1.8416186310440301,-0.6097802495837211,0.3909736863993108
1772896246558070300,6.5550703125,2.0794646796107292,-0.45905678681600837,0.22026859856098888
1772896246568038100,6.5650380859375,2.014612560471892,-0.3318276699475944,0.09756211021617055
1772896246578006300,6.57500634765625,1.817657325220108,-0.2674289205994457,0.06269114171266556
1772896246587975200,6.58497509765625,1.7710533949553966,-0.2670291076269001,0.07816402065455913
1772896246597943000,6.594943115234375,1.7662866189450024,-0.29327731881160285,0.1165912203349173
1772896246607911200,6.6049111328125,1.7984815001070498,-0.5160909622129053,0.11224281586706637
1772896246617879000,6.614879150390625,1.7091794148445127,-0.740059145944193,0.24483517680168151
1772896246627847200,6.62484716796875,1.4541753107279538,-1.0332711079020052,0.18915420611202716
1772896246637816000,6.634816162109375,0.9137176036953926,-1.252263622112572,0.03986629257276654
1772896246647784200,6.6447841796875,-0.0073369187593460075,-1.2958167865045367,0.10492197145968675
1772896246657752300,6.65475244140625,-0.8653595232397318,-1.2996727312803267,0.17250059295296669
1772896246667720200,6.66472021484375,-1.1053232946127654,-1.238175767788291,0.14747662633359432
1772896246677688000,6.67468798828125,-0.4924152683973312,-1.2223146932464093,0.13538418361023066
1772896246687657200,6.6846572265625,0.49362172157764433,-1.306997959601879,0.31936595552042124
1772896246697625000,6.694625,1.1808125431001186,-1.54530212719962,0.6582159253202379
1772896246707593200,6.70459326171875,1.5043109222501516,-1.7767248647205531,1.0621100296996533
1772896246717561300,6.714561279296875,1.5747937407523394,-1.8834379573807118,1.2890728652022778
1772896246727529200,6.724529296875,1.3629758674114942,-1.9563534098573028,1.2696173463650047
1772896246737497000,6.7344970703125,0.7550327701270579,-1.8501881603382526,1.0386717248365283
1772896246747466000,6.744466064453125,-0.18453765222728252,-1.7853529923342166,0.8836496515594422
1772896246757434000,6.75443408203125,-0.9690677349954843,-1.7442765933193265,0.7423065595448016
1772896246767402200,6.76440234375,-1.361954123148322,-1.8496030539266763,0.7812664047971367
1772896246777370000,6.7743701171875,-1.3732716359764336,-1.9294845460236072,1.1181930053189397
1772896246787338200,6.784338134765625,-1.3350287068217992,-1.8721977475725113,1.8966526821322738
1772896246797307100,6.79430712890625,-1.6370137578219175,-1.2012087037883699,2.4899238415941594
1772896246807275000,6.80427490234375,-2.250496953576803,-0.23320425064284353,1.8853855843171476
1772896246817243100,6.8142431640625,-2.9262007509231567,0.23778202515346927,1.0790246318824588
1772896246827211300,6.824211181640625,-3.1090397825390097,0.5059867341646924,0.4128796671286225
1772896246837179100,6.83417919921875,-2.6450328625023363,1.1606423731874673,-1.602836470670998
1772896246847148300,6.844148193359375,-2.2450503786087035,1.6297627637803553,-2.87012259760946
1772896246857116200,6.8541162109375,-2.5423101546525952,1.089679004626721,-1.629924091821909
1772896246867084300,6.864084228515625,-3.1259131759285923,0.4530393166247755,1.3030381160601974
1772896246877052200,6.87405224609375,-2.991374941623211,-0.45143827463630587,4.9387850204378365
1772896246887020000,6.88402001953125,-1.8464795150786637,-0.8298882507555186,6.708786860513687
1772896246896989200,6.8939892578125,-0.047047582378983495,-0.2754794675208628,5.763225088790059
1772896246906957000,6.90395703125,1.416333948111534,1.3592656147167086,3.1287866855382918
1772896246916925200,6.91392529296875,1.919102268218994,3.0532991906166074,0.38638628554381427
1772896246926893300,6.923893310546875,1.2271505159050224,4.0606209606826305,-1.5002584319889545
1772896246936861200,6.933861083984375,0.23552140501141547,4.4196573939427735,-2.342222612724453
1772896246946830300,6.943830322265625,-0.4958446583241224,4.2062835233315825,-2.2457550197467206
1772896246956798000,6.9537978515625,-0.7434002000004053,3.4239050656393166,-1.4939952799409626
1772896246966766000,6.96376611328125,-0.3102110275536775,2.5837685387223956,-0.5199176078289747
1772896246976734200,6.973734130859375,0.6698118166983127,1.9623120260007678,-0.03300049845650792
1772896246986702000,6.9837021484375,1.4180074342817068,1.5206101690135896,0.18833054170422256
1772896246996671200,6.993671142578125,1.7338018149256704,1.252347062612325,0.36635946962460875
1772896247006639400,7.003639404296875,1.396042855232954,0.9770051038660108,0.5053388281825929
1772896247016607200,7.013607177734375,0.747874715065956,0.6742961225055157,0.7657637152388691
1772896247026575000,7.0235751953125,0.2643593769609928,0.3015137071613222,0.9857618262954055
1772896247036543200,7.033543212890625,0.07665244704782963,0.030180691795423625,1.0232954381369053
1772896247046512000,7.04351220703125,0.015854571735858917,-0.06820347539335489,0.7014451915200799
1772896247056480300,7.053480224609375,0.019478022930026054,-0.016215002546086908,0.17881664423197507
1772896247066448100,7.0634482421875,0.05595101980268955,0.11963014963939786,-0.28528222840446976
1772896247076416300,7.073416259765625,0.05362053102850914,0.16187869770620017,-0.8343374121841043
1772896247086384000,7.083384033203125,0.051638417300581926,0.0628189693434164,-1.2306681686371563
1772896247096352000,7.09335205078125,0.24836802710294723,-0.10507193785700947,-1.3404346575185655
1772896247106321200,7.103321044921875,0.5828659391731024,-0.18087690123002975,-1.3574993356965481
1772896247116289000,7.1132890625,0.9035165276765823,-0.35242381018735464,-1.2092379887260496
1772896247126257200,7.123257080078125,1.133030216705799,-0.6237818138640373,-0.7393862151186913
1772896247136225300,7.133225341796875,1.3087000873446464,-0.942747956411913,-0.13395941150411964
1772896247146193200,7.143193115234375,1.3323124336004257,-1.220111849439889,0.45063693165816365
1772896247156162300,7.153162353515625,1.329657535177469,-1.259287529399991,0.7445246009204536
1772896247166130200,7.163130126953125,1.511639657703042,-1.1394689445164055,0.4761326805077493
1772896247176098000,7.17309814453125,1.8114099552631377,-0.9145455789521336,-0.09828794027268886
1772896247186066200,7.183066162109375,1.9349428114295004,-0.7578800493169575,-0.5690346168931574
1772896247196034300,7.193034423828125,1.8286784854501485,-0.7148562425613403,-0.8846065138928592
1772896247206003200,7.203003173828125,1.5498065990120171,-0.7833165422599763,-0.9277436448298394
1772896247215971300,7.212971435546875,1.1773790615200996,-0.8790204573888332,-0.9366723628252744
1772896247225939200,7.222939208984375,0.7780459814459085,-0.9595418548244983,-1.0417167916208505
1772896247235907000,7.232906982421875,0.4980915604680776,-1.04443101901561,-0.9923262263122945
1772896247245875200,7.242875244140625,0.31719197248220443,-1.2482044098496436,-0.7937161365255713
1772896247255844000,7.252843994140625,0.25100772795677184,-1.5272899390384553,-0.5542750007871539
1772896247265812200,7.262812255859375,0.3252425924688577,-1.77731786217764,-0.447575790521875
1772896247275780000,7.272780029296875,0.5052613059669733,-1.9597259550303219,-0.5558907654207199
1772896247285748200,7.282748291015625,0.5763561188876628,-1.9417584827937184,-0.8962393762804567
1772896247295716400,7.29271630859375,0.540529018703103,-1.8459955309540033,-1.3882394880056381
1772896247305685800,7.302685791015625,0.3296341054260731,-1.6614456037670373,-1.7117706003814934
1772896247315654000,7.31265380859375,0.021308160966634748,-1.5683073013424873,-1.714745086147636
1772896247325621500,7.32262158203125,-0.25762626931369303,-1.6157412526905535,-1.432682440844178
1772896247335589600,7.332589599609375,-0.4272480919599533,-1.6534719945393501,-0.9352559201560914
1772896247345557800,7.342557861328125,-0.31656302692890165,-1.7141890597000717,-0.517383559306711
1772896247355526700,7.352526611328125,0.0699742844581604,-1.5625176120251416,-0.3128213561825454
1772896247365494800,7.362494873046875,0.5304091912269592,-0.983978888401389,-0.5225325395677238
1772896247375462700,7.372462646484375,0.731830173715949,-0.3450229593463242,-0.7738805323295295
1772896247385430800,7.3824306640625,0.8077730111896991,0.23819486200436948,-0.5556766112133861
1772896247395398700,7.392398681640625,0.8070353445649147,0.6614940702080726,0.645892231124267
1772896247405367600,7.402367431640625,0.7347557057738304,0.905034384893626,2.6043849180325864
1772896247415335700,7.412335693359375,0.8429074529349804,0.9763689248543233,4.557972516438364
1772896247425303800,7.4223037109375,1.075392266729474,1.3555395799309014,4.433489227679371
1772896247435271700,7.432271728515625,0.7314093179553747,2.2530359705351293,2.2673862751878797
1772896247445239800,7.44223974609375,-0.5516413643479346,3.1309409409627316,0.3354495137065649
1772896247455208700,7.452208740234375,-2.2992811504900454,3.6525849341928955,-0.5142619201548397
1772896247465176800,7.4621767578125,-3.839832429900765,3.871680689582228,-0.6437899250827729
1772896247475144700,7.472144775390625,-4.987941557794809,4.29277668865323,-1.0129496929503976
1772896247485112600,7.482112548828125,-5.290815082067251,4.8693242384597655,-1.3103193591095506
1772896247495080700,7.492080810546875,-4.363506175392866,5.125314138743281,-0.6784446204870939
1772896247505048800,7.502048828125,-2.2000462847560645,4.442216724014282,0.8710346462666988
1772896247515017700,7.512017822265625,-0.15519173075556755,3.0428140369594097,3.2632840033113952
1772896247524985900,7.52198583984375,1.1432248629838229,1.83153402101174,5.128108737897873
1772896247534953700,7.53195361328125,1.6329507461667059,1.1469434451155365,5.347990675228834
1772896247544921600,7.541921630859375,0.870913065713644,1.0943705234438181,4.287807083547115
1772896247554889700,7.5518896484375,-0.47925417352914806,1.2529302693277597,2.7875495283409952
1772896247564858600,7.561858642578125,-1.378228381600976,1.1964420739084483,1.5954142117157577
1772896247574826800,7.57182666015625,-1.781468990507722,0.8444408730473368,0.9099673112511635
1772896247584795000,7.581794921875,-1.7203391067624092,0.303850917937234,0.5401087474644184
1772896247594762800,7.5917626953125,-1.4894412698984145,-0.21478497951813041,0.3989964685309678
1772896247604730600,7.601730712890625,-1.320788000023365,-0.5920774196326732,0.3921335239589214
1772896247614699500,7.611699462890625,-1.0071300468862057,-0.8072286021146923,0.2272572153393179
1772896247624667600,7.621667724609375,-0.6301695421397686,-0.8919635986573994,0.08273330133147537
1772896247634635800,7.6316357421875,-0.16685411149859428,-0.8483295510489494,0.05244688413925468
1772896247644603600,7.641603759765625,0.40415772375166414,-0.5911608893096446,-0.002963891306892037
1772896247654571800,7.65157177734375,1.0587801546245812,-0.1346118840634823,-0.21741218621656297
1772896247664540700,7.661540771484375,1.6147615940034388,0.30788061184473337,-0.3298031783826649
1772896247674508800,7.6715087890625,2.1365502564013004,0.5569607327397912,-0.3385771442078054
1772896247684476700,7.6814765625,2.639173615080118,0.6037691726006568,-0.07815057665109634
1772896247694444500,7.691444580078125,2.8318723619312047,0.49994069546610115,0.3559466505512595
1772896247704412700,7.70141259765625,2.6336037059932944,0.3394816187668592,0.8231186104901135
1772896247714381600,7.711381591796875,2.310029923519492,0.23380071869865057,1.2055692370854318
1772896247724349700,7.721349609375,1.9878233377456664,0.20312449847124517,1.2974483332291245
1772896247734317800,7.73131787109375,1.8875532837450504,0.24025442488268017,1.1662311331052333
1772896247744285700,7.74128564453125,1.863577364873886,0.3004395020585507,0.9242582869321108
1772896247754253600,7.751253662109375,1.6368910082250832,0.288642315954715,0.6568363805953413
1772896247764222700,7.76122265625,1.2362485991179943,0.3145515409760177,0.4641566307056695
1772896247774190600,7.771190673828125,0.8071808905154466,0.27346396297998726,0.24630524935424328
1772896247784158700,7.78115869140625,0.5632715963870286,0.05539499335512518,-0.07520655908845364
1772896247794126800,7.791126953125,0.5017465758442878,-0.1401120158497244,-0.17816892091296613
1772896247804094700,7.8010947265625,0.4792448211789131,-0.24961167048849164,-0.0472055494196713
1772896247814063900,7.81106396484375,0.5660439837098121,-0.3897442176695913,0.12004954409524797
1772896247824031700,7.82103173828125,1.0683972932755947,-0.6000698066260666,0.3306344415750354
1772896247833999600,7.83099951171875,1.7277970215529201,-0.8979168079733848,0.5057969472136348
1772896247843967700,7.8409677734375,2.2589485555797815,-1.0698497571062295,0.6257355052150786
1772896247853935600,7.850935546875,2.479704353135824,-1.1762922891966998,0.6152140381354838
1772896247863904800,7.86090478515625,2.2763713995456696,-1.2364891298756002,0.43062772446088493
1772896247873872600,7.87087255859375,1.6803642392486333,-1.2666400841198862,0.1106537931099534
1772896247883840800,7.8808408203125,0.7358803258895874,-1.1397854631196707,-0.23379575026258825
1772896247893808600,7.89080859375,-0.3438707205712795,-1.1917294392380862,-0.518407349396497
1772896247903776800,7.90077685546875,-1.2016244449824094,-1.3093829550422726,-0.5423724546127021
1772896247913745700,7.91074560546875,-1.6016308942735193,-1.1355571779001503,-0.4852687576435506
1772896247923713800,7.9207138671875,-1.7055898659199475,-0.7705753533042967,-0.42882878528013824
1772896247933681700,7.930681640625,-1.5536106674700974,-0.48648288267366585,-0.8575953189790249
1772896247943649800,7.94064990234375,-1.5893196942329406,-0.5672578895442187,-1.284295421667397
1772896247953618000,7.950617919921875,-1.8565888211607933,-0.9496811897411942,-0.8594307907778769
1772896247963586800,7.9605869140625,-1.9079460834324358,-1.5263335150964557,0.29425116881243885
1772896247973554700,7.9705546875,-2.092713452762365,-1.8709619221672416,1.86066060064435
1772896247983522600,7.9805224609375,-2.574541860693693,-1.6015442389033734,3.3617923083364962
1772896247993490700,7.99049072265625,-2.5942414174199104,-0.7228142158284783,3.438023022840917
1772896248003458800,8.000458740234375,-1.8978145655184984,0.5775331998430192,1.657736812376976
1772896248013427700,8.010427734375,-1.5443588550001381,1.5969339686289428,1.0365865891255437
1772896248023395800,8.020395751953124,-1.4573200384944676,1.6240322573043404,1.2767039436250924
1772896248033363700,8.03036376953125,-1.490684547957778,0.7509637671224773,2.030006236697733
1772896248043331600,8.04033154296875,-1.390277715834975,-0.17886976265870033,2.7836475524663924
1772896248053299700,8.0502998046875,-1.2560732435286044,-0.2550302614711225,2.800625575274229
1772896248063268600,8.0602685546875,-1.4943255348086357,0.2843336589753628,2.4971491166725754
1772896248073236700,8.07023681640625,-2.145388811895251,0.7410602858107537,2.4664509038090703
1772896248083204900,8.080204833984375,-2.216731462097168,1.1598930891901253,2.1997683445975182
1772896248093172700,8.0901728515625,-1.8170961842060087,1.5663009299561381,1.3901852152459322
1772896248103140900,8.100140869140626,-0.6678747111558914,2.0134005543336273,0.4222513065859675
1772896248113108700,8.110108642578124,0.705986707407236,2.142082463826239,-0.30583661186173555
1772896248123077600,8.12007763671875,1.6350848355859517,1.9251994160503147,-0.6455261742908507
1772896248133045800,8.130045654296875,1.7785212466180325,1.5739914844587444,-0.4054099157698452
1772896248143013600,8.140013671875,1.122172138082981,0.9912455914687365,0.32216362341493365
1772896248152981800,8.149981689453124,0.10139525863826274,0.23751645128615198,1.2954580361947416
1772896248162950000,8.159949951171875,-0.7567442502200603,-0.29978154960647224,2.1597214347608387
1772896248172918800,8.169918701171875,-1.1770739410936832,-0.4904744365278631,2.1625798929318782
1772896248182886700,8.17988671875,-1.4271446804612875,-0.488089294956997,1.5437284481421112
1772896248192854500,8.1898544921875,-1.7803659977018833,-0.3488989239968359,0.9520274606063961
1772896248202822700,8.19982275390625,-2.068976018822193,-0.13414726222641765,0.4243095542900264
1772896248212790800,8.209790771484375,-2.1445359944581983,0.07886983083635568,-0.06447678302042185
1772896248222759700,8.219759765625,-1.8105454473882912,0.1500424582336098,-0.4355457455102354
1772896248232727800,8.229727783203124,-1.0979846222877503,0.08788637324571609,-0.4742072654031217
1772896248242696000,8.239696044921875,-0.11349369271099567,-0.004756619942560792,-0.39833033277243374
1772896248252663600,8.24966357421875,0.7537807242393493,-0.014967340572550891,-0.3399116076819598
1772896248262631700,8.259631591796875,1.247224751162529,0.04298113665767014,-0.15126505883112548
1772896248272600600,8.2696005859375,1.8041706516593694,0.15792334767654537,0.19605368330217895
1772896248282568700,8.279568603515624,2.361267358803749,0.24628771369755267,0.48670901957973833
1772896248292536800,8.289536865234375,2.6519372350633144,0.39766273570917543,0.46088908027708525
1772896248302504200,8.299504150390625,2.523793670231104,0.610997735614702,0.20993761255219578
1772896248312472300,8.309472412109375,2.346950079637766,0.81212623796314,-0.0839021259151399
1772896248322441200,8.319441162109374,2.0580910521924496,0.950523997240886,-0.32174422895908356
1772896248332409300,8.329409423828125,1.7288906620085238,0.8394110621865838,-0.3948492126584053
1772896248342377200,8.339377197265625,1.4942805266231298,0.5352179066829383,-0.2602873052164912
1772896248352345300,8.349345458984375,1.137668397900462,0.07566781992465257,0.22295023886039853
1772896248362313200,8.359313232421876,0.7680477345228195,-0.41964784608930344,0.751295337164402
1772896248372282400,8.369282470703125,0.5859077910870313,-0.8361804827675223,0.8359389290966093
1772896248382250200,8.379250244140625,0.48988838026821613,-1.1790162342678754,0.8144677595879882
1772896248392218400,8.38921826171875,0.38397885907590384,-1.3832052932307124,0.7787702040672302
1772896248402186500,8.3991865234375,0.028076924449205398,-1.5032818714633582,0.6525167638305575
1772896248412154000,8.409154052734374,-0.22794424775540828,-1.5478098722368479,0.45517822834961114
1772896248422123300,8.419123291015625,-0.3274059079825878,-1.5345510160826146,0.27902912282645703
1772896248432091100,8.429091064453125,-0.3254354846924543,-1.5990828172259033,0.24673019676804542
1772896248442059300,8.439059326171876,-0.07899111912846565,-1.7494151252515613,0.2486898064032197
1772896248452027400,8.44902734375,0.2658019769847393,-1.9018061193726956,0.37303836286664005
1772896248461995300,8.458995361328125,0.530316252246499,-2.0473772043459117,0.5423354836031794
1772896248471964400,8.46896435546875,0.6790683053433895,-2.1100882198028263,0.7102472874611616
1772896248481932300,8.478932373046876,0.8068436213850975,-2.10111113262102,0.7605483917433769
1772896248491900200,8.488900146484376,0.9875164148777723,-1.9960766406975685,0.5153847867049276
1772896248501868300,8.498868408203125,0.9928875865221023,-1.7814372801952063,0.27583770637400445
1772896248511836400,8.50883642578125,0.7862883246123791,-1.4774107864953576,0.008223638466000556
1772896248521805300,8.518805419921875,0.49395080740153785,-1.0555825276270507,-0.17930917698927223
1772896248531773400,8.5287734375,0.2369184123277664,-0.6271971022002398,-0.4225407179865986
1772896248541741300,8.5387412109375,0.14947159954309464,-0.4687573294341564,-0.5511555535923689
1772896248551709400,8.54870947265625,0.08452361881434917,-0.35264527091830966,-0.3570185175664723
1772896248561677300,8.55867724609375,0.1190127483934164,-0.4548001888174563,-0.10535685574561357
1772896248571646200,8.568646240234376,0.26647943785488604,-0.657259428313002,0.19783910541422664
1772896248581614300,8.5786142578125,0.23634441183209418,-0.9098228612791747,0.49262291979864237
1772896248591582200,8.588582275390625,-0.21241759279966352,-1.1485780605800449,0.7674268992107361
1772896248601550300,8.59855029296875,-0.8520756787747145,-1.329951403557509,0.8615047475077211
1772896248611518500,8.6085185546875,-1.511850085583329,-1.4169963575430213,0.7872517628170549
1772896248621487400,8.6184873046875,-1.8678508044093847,-1.3151768821433185,0.6746312727440148
1772896248631455200,8.628455322265625,-1.7638076616108416,-1.039219567977637,0.5332417843043804
1772896248641423000,8.638423095703125,-1.4153350002020597,-0.6656409607544541,0.7277644586469978
1772896248651391200,8.64839111328125,-0.8961936374425887,-0.316977306818217,1.1219106376025825
1772896248661359400,8.658359375,-0.21257307562232017,0.0910424261238426,1.3948644591033459
1772896248671328300,8.668328369140625,0.4964911395341158,0.4744759993419051,1.2968676107317207
1772896248681296400,8.67829638671875,1.0267226361066102,0.7263689126353711,0.6826961404517292
1772896248691264500,8.688264404296875,1.1754343571931123,0.970745385884121,-0.21853622181043028
1772896248701232000,8.698232177734376,0.8286872044026851,1.1755527228757738,-1.2514883999563753
1772896248711200300,8.7082001953125,0.06184475401639938,1.4378971067525446,-1.9835466833397746
1772896248721169200,8.718169189453125,-1.1115297480374573,1.8251691621549426,-2.1584349020816385
1772896248731137300,8.72813720703125,-1.9025304881244898,2.026036748544872,-1.9725746229484675
1772896248741105400,8.73810546875,-1.5255787512063979,1.9547151411309838,-1.4655555135287344
1772896248751073300,8.7480732421875,-0.5151859031319618,1.5173752787455916,-0.5938239710390567
1772896248761041400,8.75804150390625,0.5753764602005481,0.8894878561936318,0.4393006410643458
1772896248771009300,8.76800927734375,1.243147710981965,0.1996462279014289,1.7480698481224477
1772896248780978200,8.777978271484375,1.4647370367527006,-0.43648507218696175,2.810772875279188
1772896248790946300,8.7879462890625,1.1976613865703343,-0.7583389720655977,3.2871076542302964
1772896248800914200,8.7979140625,0.31253216397762296,-0.5834804178096353,3.2094983448490497
1772896248810882300,8.80788232421875,-1.101015368285775,0.2675553965233266,2.416764205098152
1772896248820850400,8.817850341796875,-2.5537124231547117,0.7918576491773128,1.4330888296879827
1772896248830819300,8.8278193359375,-3.14669409815073,-0.18826485605686902,1.6926548348926007
1772896248840787500,8.837787353515624,-2.7148610164880753,-0.9189100577719509,2.444229865781218
1772896248850755300,8.84775537109375,-1.4873060114353895,-1.1031022575624287,2.56856103271842
1772896248860723200,8.85772314453125,-0.5134755920827389,-1.1281107343517243,1.8840297857940196
1772896248870691300,8.86769140625,-0.15409692125618457,-0.8943193680033087,0.8785759284917265
1772896248880660200,8.87766015625,-0.5568061997652054,-0.5979651624970138,0.4120242193430662
1772896248890628400,8.88762841796875,-1.0810445934027433,-0.2827555960036814,0.19317016375511883
1772896248900596500,8.897596435546875,-1.3168126666516065,-0.023489012137055395,-0.13253726974651217
1772896248910564000,8.907564208984375,-1.1724334218114614,0.1601763873003423,-0.3842640326928347
1772896248920532200,8.9175322265625,-0.6118465344637632,0.3136792881861329,-0.6446343400176614
1772896248930501000,8.927501220703125,0.1131739592373371,0.31561902407705783,-0.8786804848447441
1772896248940469200,8.93746923828125,0.7300877139627933,0.11816643376238643,-0.9226155612263828
1772896248950437400,8.947437255859375,1.1794529451847076,-0.024241730200499294,-0.6601253391381353
1772896248960405200,8.9574052734375,1.5278759222328662,-0.13683335950523615,-0.3092654903318733
1772896248970373400,8.967373291015624,1.6112135461330412,-0.22858619892075657,0.03431991049200296
1772896248980342300,8.97734228515625,1.6857283966302872,-0.2467160951774567,0.2976896918937564
1772896248990310100,8.98731005859375,1.9197282911628484,-0.20191183474585414,0.33565921093448997
1772896249000278300,8.9972783203125,2.1415794827401635,-0.20589483996741473,0.2732298619631678
1772896249010246400,9.007246337890624,2.190402842620015,-0.2674450680166483,0.2594157100137323
1772896249020214300,9.01721435546875,2.085259045103192,-0.37522958930060263,0.2918910155523568
1772896249030183400,9.027183349609375,1.7401485536038874,-0.5250643961329012,0.4536974882725626
1772896249040151300,9.0371513671875,1.1841069084703921,-0.732780094851926,0.7826759062688797
1772896249050119400,9.047119384765624,0.7925672587513923,-0.9147577603980899,1.0656371078472584
1772896249060087300,9.05708740234375,0.5632762725621462,-1.0695880374301225,1.320155547338724
1772896249070053400,9.067053466796875,0.4411497760623693,-1.25179220520854,1.4571502348855137
1772896249080022300,9.077022216796875,0.3551636834800243,-1.3634548831000923,1.4213380400091409
1772896249089990400,9.086990478515625,0.3049976768195629,-1.4811225004948674,1.2829200416609645
1772896249099958300,9.096958251953126,0.11417524523437023,-1.592991076222062,1.3638677016846834
1772896249109926100,9.106926025390624,-0.24641046329438684,-1.7530330234877765,1.5308796340934931
1772896249119894300,9.116894287109375,-0.4673907172560692,-1.9143477671682834,1.6370609579645097
1772896249129863200,9.12686328125,-0.39576106680631634,-2.038114578220993,1.6362456960588692
1772896249139831300,9.136831298828126,-0.2489221538543701,-2.2462273134335873,1.7347051935061812
1772896249149799400,9.14679931640625,-0.2923532993018627,-2.360578499756753,2.0095361339904367
1772896249159767300,9.156767333984375,-0.21862696883380411,-2.423705694799125,2.250445223389566
1772896249169735200,9.166735107421875,0.021093056911230087,-2.405813187494874,2.186531261883676
1772896249179704000,9.1767041015625,0.29213761072456834,-2.250038396154344,2.047733032046258
1772896249189672200,9.186672119140624,0.2923158899009228,-2.021905055567622,1.931336603631079
1772896249199640300,9.196640380859375,0.03855389479994774,-1.8470111377373337,1.8605860741034148
1772896249209608200,9.206608154296875,-0.26004735898077486,-1.5814695652544497,1.867643006877601
1772896249219576300,9.216576416015625,-0.6563479394912719,-1.095290707028657,1.8908090706706047
1772896249229545500,9.22654541015625,-1.1520780315250159,-0.2997137450672686,1.5620634385168553
1772896249239513300,9.236513427734375,-1.808453443545103,0.20324666354618964,1.621806105687469
1772896249249481200,9.246481201171875,-2.6240210541337725,0.2540259797994047,2.103415171779692
1772896249259449300,9.256449462890625,-3.3685172326773403,0.11421243543960154,2.0720463661782444
1772896249269417200,9.266417236328126,-3.3475825811982154,0.20047697963714597,0.5278873445991427
1772896249279386400,9.276386474609374,-2.819616691470146,0.7659713666401803,-1.0728107988689095
1772896249289354200,9.286354248046875,-2.23043499327898,0.36595819534733887,-0.041059411347471174
1772896249299322400,9.296322265625,-1.55459441781044,-0.45871575482599436,1.8388902289934455
1772896249309290800,9.306290771484376,-1.3951245713442564,-0.8254378472179174,3.1297102301239965
1772896249319258400,9.31625830078125,-1.4313701892018318,-0.417607755096443,3.1197754038259387
1772896249329227500,9.3262275390625,-1.292792324116826,0.4517001404428854,2.1359449839845297
1772896249339195400,9.3361953125,-1.2244178760707378,1.3878557493850587,0.4356770437397062
1772896249349163500,9.34616357421875,-1.0082996751874684,2.227520567137003,-1.397485309126228
1772896249359131600,9.356131591796874,-0.6526052458316087,2.820110612466931,-2.6540689863950013
1772896249369099500,9.366099609375,-0.124772627094388,3.0115923847436905,-2.78803497377038
1772896249379068700,9.376068603515625,0.6549310584306717,2.675289176817238,-2.0272516772925853
1772896249389036500,9.38603662109375,1.332712831094861,1.9351535315707324,-0.7958882198676467
1772896249399004400,9.39600439453125,1.716685844951868,1.4232697387240827,0.5588111829120666
1772896249408972500,9.40597265625,1.9448446122407912,1.101947607634589,1.3647092670753598
1772896249418940700,9.415940673828125,1.990256117850542,0.9331556599412113,1.4420473582997917
1772896249428909600,9.42590966796875,2.1089444565951823,1.0104947740789503,1.1132588368523866
1772896249438877700,9.435877685546876,2.3015946881294247,1.1838017880439757,0.6089950905553996
1772896249448845600,9.445845458984374,2.32239899122715,1.2044060385249555,0.07614924676604569
1772896249458813400,9.4558134765625,2.013421304860711,1.11766985822767,-0.2743799087811261
1772896249468781600,9.465781494140625,1.3299445354253052,1.0238376552548258,-0.3685560298208147
1772896249478750500,9.47575048828125,0.4613555287450552,0.8992265023324638,-0.3602496084421873
1772896249488718600,9.485718505859374,-0.17125673037171363,0.6627462622262537,-0.4300935445189476
1772896249498686500,9.4956865234375,-0.3916892873227596,0.47283327363617716,-0.5521860656838864
1772896249508654600,9.505654541015625,-0.3668856854557991,0.38252639524526894,-0.7498864202145487
1772896249518622700,9.515622802734375,-0.24800328544378278,0.3162556049475446,-0.9981167193472384
1772896249528591600,9.525591552734374,-0.11754618297219276,0.2671532819958404,-1.1472780108321456
1772896249538559500,9.5355595703125,-0.017879940083622932,0.21614501582495868,-1.2352983126558363
1772896249548527400,9.54552734375,0.10623568440675735,0.17112060983665286,-1.260835343363881
1772896249558495500,9.55549560546875,0.3684574648171663,0.08381305939219892,-1.305826869995892
1772896249568463600,9.565463623046876,0.5086544555366039,-0.132846701021865,-1.110161382293701
1772896249578432500,9.5754326171875,0.6391583197593689,-0.2865184922011569,-0.7874095837272703
1772896249588400600,9.585400634765625,0.9821054957449435,-0.36883243560940027,-0.6394261769153178
1772896249598368800,9.59536865234375,1.3964309777677058,-0.41328046648185696,-0.5983879910189658
1772896249608336400,9.60533642578125,1.6958680978506802,-0.4004861225668341,-0.48599772950522596
1772896249618304500,9.615304443359374,1.951227006754279,-0.44658334541842337,-0.3710962888881564
1772896249628273400,9.6252734375,2.07075354988873,-0.5669986540861427,-0.09044307199120522
1772896249638241500,9.635241455078125,1.854110448348522,-0.6939571007870138,0.23588899621479212
1772896249648209700,9.645209716796876,1.5140718532860278,-0.7348300131190568,0.3229153185650706
1772896249658177500,9.655177490234376,1.1830308036714792,-0.6918089828424155,0.22525676223710178
1772896249668145700,9.665145751953125,0.8914525803953409,-0.7523206616241485,-0.000986892145499587
1772896249678114600,9.675114501953125,0.7608195368349552,-0.8969491319850087,-0.18440102023556829
1772896249688082400,9.68508251953125,0.5836947912126779,-1.0377784292586147,-0.3109937754292041
1772896249698050600,9.695050537109376,0.24681202983260153,-1.2192124163821338,-0.4187630991440266
1772896249708018400,9.705018310546874,-0.26564240250885485,-1.3889157798320053,-0.25343890062645075
1772896249717986600,9.714986572265625,-0.562606994998455,-1.5623374331526458,-0.010194573212787508
1772896249727955500,9.72495556640625,-0.31493045729100705,-1.7187793100997804,0.10984788355454801
1772896249737923600,9.734923583984376,0.18610884706676006,-1.7755802247300743,0.10253324969224631
1772896249747891700,9.7448916015625,0.6042249535441399,-1.6817931030079722,-0.17945311550460755
1772896249757859600,9.754859619140625,0.8086953867316246,-1.5346920319885013,-0.5223268609277903
1772896249767827500,9.764827392578125,0.7556459335893392,-1.4190722870342432,-0.7107192158218473
1772896249777796600,9.774796630859376,0.44019525181651115,-1.2469491490915416,-0.6758261085517704
1772896249787764500,9.784764404296874,0.08379004384279251,-1.0827739744786173,-0.6318713776215911
1772896249797732600,9.794732666015625,-0.15260463687181472,-0.9642850307635963,-0.4678799620777368
1772896249807700700,9.80470068359375,-0.280418531358242,-1.028910136213526,-0.06891016235798597
1772896249817668400,9.81466845703125,-0.2793868502229452,-1.0907616122316568,0.3578187280334532
1772896249827637500,9.824637451171874,-0.4148579814642668,-1.0742510608050972,0.46583062833249567
1772896249837605400,9.83460546875,-0.642362084236741,-1.221034078851342,0.39835751304030415
1772896249847573500,9.844573486328125,-0.7324152801275253,-1.488508811353892,0.2996577770963311
1772896249857541600,9.854541748046875,-0.7585486692935228,-1.5918163333542643,0.17239304092526433
1772896249867509500,9.864509521484376,-1.0015537080585957,-1.4422832128822802,0.39138592046201226
1772896249877478700,9.874478759765625,-1.5208213275462388,-1.102502465038374,0.8037547154590488
1772896249887446500,9.884446533203125,-1.9089087909847497,-0.7652681137416512,1.0394270732484758
1772896249897414400,9.894414306640625,-1.957377930599451,-0.3544298162475228,0.756723353562504
1772896249907382500,9.904382568359376,-1.967480222418904,0.23898703529536722,-0.03284866889566183
1772896249917350700,9.9143505859375,-2.368760929429531,0.6919235491327941,-0.6248373873315751
1772896249927319600,9.924319580078125,-3.253293939694762,0.9725373108021914,-1.0164031944051384
1772896249937287700,9.93428759765625,-4.179745352756977,1.1240231727771461,-1.3596736109957097
1772896249947255600,9.944255615234376,-4.698187627336383,1.2713969232581555,-1.2036354925438761
1772896249957223700,9.9542236328125,-4.606187973552942,1.2813852333091198,-0.6307891353428363
1772896249967191600,9.964191650390624,-4.061657317993045,1.3043246487393974,-0.21081220342963933
1772896249977160400,9.974160400390625,-3.133161831882596,1.6386568488538265,0.1364699330203235
1772896249987128600,9.984128662109375,-1.9146908815175294,2.033685948123783,0.41328956310376525
1772896249997096400,9.994096435546876,-0.554371081572771,2.238004990141839,0.3420021502204239
1772896250007064600,10.004064697265624,0.7262310385346412,2.4006667645171285,0.028409809665381907
1772896250017032700,10.01403271484375,1.7709271382272243,2.492770755457878,-0.20631430748850105
1772896250027001600,10.024001708984375,2.5809452979952097,2.387219400053471,-0.3916230902187526
1772896250036969700,10.0339697265625,2.992351677700877,2.120742008025199,-0.24885814870744943
1772896250046937300,10.043937255859374,2.698445888260007,1.6444775178313253,0.3267465672910213
1772896250056905500,10.053905517578125,2.0233160914093253,0.9461386948287487,0.8484637718878686
1772896250066873600,10.06387353515625,1.3397913911789654,0.5427672991491854,1.5071327016726135
1772896250076842500,10.073842529296876,0.7067506775170564,0.46133426676131783,1.821468992462754
1772896250086810600,10.083810546875,0.13255670509934425,0.5241624788571149,1.446832546749711
1772896250096778800,10.09377880859375,-0.3208002261072397,0.8137262205056845,0.8953050180397927
1772896250106746400,10.103746337890625,-0.6655319474220276,0.9666405078485607,0.5410001433461904
1772896250116714500,10.113714599609375,-0.8682511530280113,1.1172416228782385,0.17339081979095936
1772896250126683400,10.123683349609376,-0.7496604294389486,1.2395716060608624,-0.11917173834741115
1772896250136651500,10.133651611328125,-0.2662771932810545,1.2086068512156605,-0.11733867770135402
1772896250146619600,10.14361962890625,0.3899912512332201,0.9593228783115744,0.16392741039693354
1772896250156587500,10.15358740234375,1.06249362218976,0.7389869866680353,0.38239348958060143
1772896250166555600,10.1635556640625,1.4681032983154059,0.7210789895337074,0.4710249821051955
1772896250176524500,10.173524658203124,1.7851906413793563,0.6845153917681426,0.5720778570465743
1772896250186492400,10.183492431640625,2.1423738479882477,0.663760773031041,0.5489208533428609
1772896250196460500,10.19346044921875,2.522422966399789,0.7071950602836906,0.28105215308666226
1772896250206428400,10.203428466796876,2.6384195818424225,0.7530321708943695,-0.04728314470052719
1772896250216397600,10.2133974609375,2.4046160866647956,0.746118592113629,-0.14511749598681925
1772896250226365400,10.223365478515625,1.8397072444647549,0.7126856205239892,-0.09619520577713847
1772896250236333600,10.23333349609375,1.3323603643953799,0.5557328349126502,-0.030232495047897098
1772896250246301700,10.2433017578125,1.0431839415639639,0.2625686393530108,0.19600684848576783
1772896250256269600,10.25326953125,0.7197381693840026,-0.15729758046101777,0.4648449782960117
1772896250266238500,10.263238525390625,0.32406887251436706,-0.61700450174883,0.7212104338936507
1772896250276206600,10.27320654296875,-0.059465165403485294,-1.0000048711813985,0.8969475976150483
1772896250286174500,10.283174560546875,-0.42075346924364565,-1.2448005927555261,1.0317191292196513
1772896250296142600,10.293142578125,-0.6464619207710027,-1.4109576619006692,0.9891260420314967
1772896250306110500,10.3031103515625,-0.718495475846529,-1.519905089484155,0.6423365844693034
1772896250316079400,10.313079345703125,-0.7233136897832155,-1.4802781586252152,0.3510326480899006
1772896250326047500,10.323047607421875,-0.7926531834691762,-1.4537145613484084,0.3809280932031572
1772896250336015400,10.333015380859376,-0.6973603333592414,-1.4584770995751022,0.5747662924129515
1772896250345983500,10.3429833984375,-0.42563773415386674,-1.3592755515888333,0.7388329651501029
1772896250355951400,10.352951416015625,-0.12348609441518783,-1.233835692757368,0.9067693919926881
1772896250365919200,10.362919189453125,0.03437631685435772,-1.079321715132892,1.2403985584042965
1772896250375888400,10.372888427734376,0.28323125069141386,-1.1505831898573786,1.6155895692601798
1772896250385856500,10.3828564453125,0.5900228251904249,-1.2137098734430969,1.9965962806575
1772896250395824400,10.392824462890625,0.9317647170394658,-1.077421434469521,2.015456463950127
1772896250405792500,10.40279248046875,1.0353484256327152,-0.7140248332384973,0.9347581997670232
1772896250415761400,10.412761474609376,0.5945996315866708,-0.14673842998584732,-0.3972309932284057
1772896250425729500,10.4227294921875,-0.21840660408139229,0.16979202811401337,-1.0011759607873856
1772896250435697400,10.432697509765624,-1.4968839871197939,0.3421681544370949,-0.8471800156876444
1772896250445665300,10.442665283203125,-2.9933149697750805,0.5120524274118244,-0.3325480931766331
1772896250455633400,10.45263330078125,-3.789389944386482,0.5477998134236782,-0.06419248618632555
1772896250465602300,10.462602294921876,-3.8086353276044127,0.7559493004500866,-0.016554755894467234
1772896250475570400,10.4725703125,-3.5053953081071376,0.991261738885939,0.1662426285367459
1772896250485538600,10.48253857421875,-3.3938492423325775,1.2336582903638482,0.5764509575642645
1772896250495506400,10.49250634765625,-3.2249469661325216,1.3023619703643023,1.2087186410270632
1772896250505474300,10.502474365234375,-2.7140491155833004,1.1829178448162971,2.429013153557479
1772896250515443200,10.512443115234374,-1.919503250235319,0.9337187737166881,4.07565252559781
1772896250525411300,10.522411376953125,-0.8625941501796245,0.6216716167770325,4.756913957071304
1772896250535379500,10.53237939453125,0.161494630292058,0.5328397793747485,4.170667143288254
1772896250545347300,10.542347412109375,0.6250690041303635,0.7789884499277919,2.794016386267543
1772896250555315500,10.5523154296875,0.5298579870849848,1.4263748651325703,1.040370126252249
1772896250565284600,10.56228466796875,0.45573651981949803,2.1042907855704427,-0.4661514943173155
1772896250575252500,10.57225244140625,0.6876555164247751,2.43403741146028,-1.7367951515227555
1772896250585220400,10.582220458984375,1.0335036745488644,2.5850188310444353,-2.4103965697623786
1772896250595188500,10.5921884765625,1.3380068458497523,2.6764590973794458,-2.49169494291991
1772896250605156400,10.60215625,1.6001076302289963,2.4268664969176053,-2.314883354900032
1772896250615125500,10.61212548828125,1.8096347622841595,2.033059048397094,-1.926913672622293
1772896250625093400,10.62209326171875,1.9909727416872978,1.6699924828380346,-1.4293880754739046
1772896250635061500,10.6320615234375,1.9870143594503402,1.2653056206457316,-0.6703104138702154
1772896250645029400,10.642029296875,1.7857418455213308,0.7921716104973107,0.20629008636269716
1772896250654997200,10.651997314453125,1.6385563110888004,0.3774264052251354,0.9135235424280166
1772896250664966400,10.66196630859375,1.3428998785883188,0.22766466362904755,1.2104356740780173
1772896250674934300,10.671934326171876,0.8858598749548197,0.22618691922668366,0.9981790439937264
1772896250684902400,10.68190234375,0.6941711819291114,0.2856973668103106,0.39243703695014115
1772896250694870500,10.69187060546875,0.6074152740180492,0.2902625741003081,-0.07313231009766459
1772896250704838400,10.70183837890625,0.4838263037502765,0.2017290072585456,-0.20320337239373473
1772896250714807600,10.7118076171875,0.43832595081329345,0.03967422233307734,-0.33307650096490976
1772896250724775400,10.721775390625,0.23293548017144203,0.00048186523281037807,-0.4843677902158349
1772896250734743300,10.731743408203124,-0.005744096609950065,-0.014023118524998426,-0.7644752828635275
1772896250744711400,10.74171142578125,0.0017284312278032302,-0.06908452341104858,-1.0893093675967305
1772896250754679600,10.751679443359375,0.02331248652637005,-0.08961778188189491,-1.3010948730379341
1772896250764648400,10.7616484375,0.0764268215984106,-0.08237765629421918,-1.3693372191369533
1772896250774616600,10.771616455078124,0.24907763667702673,0.046705783203989264,-1.3472759017154574
1772896250784584400,10.78158447265625,0.563615879780054,0.14179589554974809,-1.4194045877285302
1772896250794552300,10.79155224609375,0.9436457089692354,0.22503698200657962,-1.5845213540405034
1772896250804520400,10.8015205078125,1.1733037749052047,0.44675468339733776,-1.831693157096207
1772896250814489300,10.8114892578125,0.8768062154054641,0.8160021295484154,-1.8104811499804256
1772896250824457500,10.82145751953125,0.5129144510686398,0.9762027745071798,-1.4312826570488513
1772896250834425300,10.83142529296875,0.5209750079274177,0.9221195213377475,-0.7667259113345295
1772896250844393500,10.8413935546875,0.85331486518085,0.7454809517972171,-0.07110285009667278
1772896250854361600,10.851361572265626,1.0424000977098942,0.5140172246787696,0.44339477851018305
1772896250864330500,10.86133056640625,0.9112199416607618,0.3178067068470642,0.8538401311639696
1772896250874298400,10.87129833984375,0.48367958875596523,0.10904602911975234,1.1923771625570951
1772896250884266500,10.8812666015625,0.1185638355821371,-0.18648805564269422,1.215429975233972
1772896250894234400,10.891234375,0.05870294885933399,-0.4795902370830998,1.1628951936155556
1772896250904202500,10.901202392578124,0.14137889398038386,-0.6725245827883481,0.8052545255627482
1772896250914171400,10.91117138671875,0.16928747612535952,-0.7054105149544775,0.41512320827171206
1772896250924139500,10.921139404296875,-0.04217676147222519,-0.7667175088323652,0.35970940061826256
1772896250934107400,10.931107421875,-0.39047348179221153,-0.9592933599561452,0.4889865360576659
1772896250944075300,10.9410751953125,-0.4839046296834945,-1.1121324631709604,0.6304596111275256
1772896250954043400,10.95104345703125,-0.13479425489306449,-1.2440183563366531,0.4985787594631314
1772896250964012300,10.96101220703125,0.3250491157233715,-1.2982177101664245,0.15750391668807714
1772896250973980400,10.97098046875,0.6393260775417089,-1.29090139580369,-0.27420590392109007
1772896250983948500,10.980948486328124,0.755759915357828,-1.314556996679306,-0.5780364001248032
1772896250993916400,10.99091650390625,0.6436731668353081,-1.3231082596644759,-0.7095290561892091
1772896251003885600,11.000885498046875,0.4927893624067306,-1.3555574078485368,-0.7101613627433776
1772896251013853200,11.010853271484375,0.39770343304574485,-1.3933002785265445,-0.6010843174308538
1772896251023821300,11.0208212890625,0.3101338706642389,-1.5006364715211093,-0.46845257433392107
1772896251033789400,11.03078955078125,0.15592881285846233,-1.7134055081069468,-0.2888819699294865
1772896251043757300,11.04075732421875,-0.043622868627309797,-1.9717454786479471,-0.11846906997077167
1772896251053726500,11.0507265625,-0.2682633986622095,-2.1187240923315285,-0.06368829952385276
1772896251063694600,11.060694580078126,-0.5668851107090711,-2.2011983774006367,0.030951164711266754
1772896251073662500,11.070662353515624,-1.0669722289085388,-2.0879585133202374,0.037638277792371805
1772896251083630300,11.08063037109375,-1.6353279966920613,-1.7263570518776774,-0.007506101313792169
1772896251093598500,11.090598388671875,-2.086425750795007,-1.0630308708716183,0.012722338124737142
1772896251103567400,11.1005673828125,-2.2390859172463418,-0.3883316474579274,0.04589801048506051
1772896251113535500,11.110535400390624,-2.0323925473123787,0.16771189737170933,-0.06142543262578547
1772896251123503400,11.12050341796875,-1.662229447621107,0.7319468588981777,-0.42854083518423136
1772896251133471500,11.130471435546875,-1.3473714710444211,1.1917502628304064,-0.970410235645622
1772896251143439600,11.140439697265625,-1.361165018597245,1.541489144782722,-1.1660177095502615
1772896251153408500,11.150408447265624,-1.8148656486749648,1.6448443053171038,-1.2188085117563605
1772896251163376400,11.16037646484375,-2.3815274720221757,1.5756927354186772,-1.0946389651216566
1772896251173344300,11.17034423828125,-2.806951271164417,1.5701947225242852,-0.8473816757395863
1772896251183312400,11.1803125,-2.9613971519887445,1.5518611934542654,-0.662176937905699
1772896251193280500,11.190280517578126,-2.39737152236402,1.4366979600958525,-0.25621846660869196
1772896251203249400,11.20024951171875,-1.5487258180379866,1.4789426722377539,0.1926048214899376
1772896251213217500,11.210217529296875,-0.813032539153099,1.33893901213333,0.5425736032079905
1772896251223185700,11.220185546875,-0.11703998701572417,1.2509279895946384,0.6831845815557986
1772896251233153300,11.2301533203125,0.8797744175612926,1.379261816301942,0.5410846067592502
1772896251243121400,11.240121337890624,1.7152432449281214,1.478927182407677,0.13253763507269323
1772896251253090300,11.25009033203125,2.087823927155137,1.4799971497267483,-0.11939699847064912
1772896251263058400,11.260058349609375,2.2378660200625657,1.4884518204696475,-0.17874482110477982
1772896251273026600,11.270026611328126,2.190926574233174,1.4948250087633728,-0.22006321218200026
1772896251282994400,11.279994384765626,1.9081144257366656,1.5512348782494663,-0.204542621640861
1772896251292962300,11.28996240234375,1.4820190109431743,1.449732359844446,-0.10737053365558386
1772896251302931200,11.29993115234375,1.1610200473934411,1.1643306332461536,0.05066562674567103
1772896251312899300,11.3098994140625,0.8011299199134111,0.7962460933946073,0.44630219038948415
1772896251322867500,11.319867431640626,0.33306700248420235,0.45531259531900287,0.6935280617199838
1772896251332835300,11.32983544921875,-0.2363566867917776,0.29430596773959694,0.6149271840181202
1772896251342803500,11.339803466796875,-0.7018979767888784,0.2821653384929523,0.41724246544800697
1772896251352772400,11.3497724609375,-1.2448866636037825,0.26123379228636623,0.2725299700655043
1772896251362740500,11.359740478515626,-1.6807915247499943,0.19766181261856108,0.3202236683283001
1772896251372708400,11.369708251953124,-1.8300696475476026,0.20701967927888035,0.3646405368775129
1772896251382676500,11.379676513671875,-1.6724708556503056,0.24751641524229198,0.24918029333390293
1772896251392644400,11.389644287109375,-1.1357838993281126,0.33756087983734906,0.18377770070545374
1772896251402613500,11.399613525390626,-0.3431786466538906,0.4079480924779549,0.1605400329809636
1772896251412581400,11.409581298828124,0.42337621896266936,0.3600746172014624,0.15862850027121603
1772896251422549500,11.419549560546875,0.9801771580308675,0.34767573887743053,0.19667152293957768
1772896251432517600,11.429517578125,1.275206983065605,0.3778304925139993,0.09551321486234664
1772896251442485200,11.4394853515625,1.3360621415227651,0.41497481277696785,-0.04104951100796461
1772896251452454400,11.449454345703124,1.244173546898365,0.4842682388314977,-0.10954546654187142
1772896251462422300,11.45942236328125,1.3756073854476212,0.3646988429360091,-0.07822824499718845
1772896251472390400,11.469390380859375,1.636717989745736,0.21156020878534762,0.07521393867731094
1772896251482358500,11.479358642578125,1.9222382281571626,0.10335602818406187,0.15203027104996145
1772896251492326400,11.489326416015626,2.065641321441531,-0.000710011432878673,0.16096454200334845
1772896251502295600,11.499295654296875,1.9955092160731553,-0.16200272594466805,0.2832227751240134
1772896251512263400,11.509263427734375,1.753006866133213,-0.34518951155226674,0.39385333348885176
1772896251522231300,11.519231201171875,1.383394386062026,-0.49415915292259305,0.36655791480615735
1772896251532199400,11.529199462890626,0.9990215592324733,-0.5356052985653281,0.41140484533570704
1772896251542168300,11.539168212890624,0.7762596825510263,-0.6108595692530274,0.44683563967905937
1772896251552136400,11.549136474609375,0.6920020211964846,-0.6824068751815706,0.44683958520181477
1772896251562104600,11.5591044921875,0.675827715986967,-0.6608436434753239,0.4119007390938699
1772896251572072400,11.569072509765626,0.7139402967602014,-0.7209597470682114,0.394432886942476
1772896251582040300,11.579040283203126,0.7071493214458227,-0.834867208211869,0.5438099400699138
1772896251592009200,11.58900927734375,0.6379267321377993,-1.0170508446589113,0.8137503320336341
1772896251601977300,11.598977294921875,0.5346247630953789,-1.174091637347266,1.1674550488770008
1772896251611945500,11.608945556640625,0.4811860183745622,-1.253701107569784,1.4863582091912626
1772896251621913300,11.618913330078126,0.39354631336629387,-1.2587830870091914,1.7343655862882732
1772896251631881500,11.628881591796874,0.297662511625886,-1.2541327769853174,2.058793062981963
1772896251641850400,11.638850341796875,0.23017653685212133,-1.3104149284385145,2.183150095012784
1772896251651818500,11.648818603515625,0.2169371160507202,-1.3397747323051095,1.7849205922663212
1772896251661786400,11.658786376953126,0.08135551017224789,-1.3482823022790253,1.2336094827860593
1772896251671754200,11.668754150390624,-0.32004502382576466,-1.4528320794254541,0.9653780866973102
1772896251681722400,11.678722412109375,-0.7830623483031988,-1.693377157817781,1.0536335855163632
1772896251691691500,11.68869140625,-1.1594096895873547,-1.656706446415931,1.0813337125424296
1772896251701659400,11.698659423828126,-1.497348097500205,-1.365465200009197,0.9617292088009417
1772896251711627500,11.70862744140625,-1.9536574487715959,-1.0835368486098944,0.8064076411206275
1772896251721595600,11.718595703125,-2.337052370479703,-0.7876101478006691,0.5299359476920217
1772896251731563300,11.728563232421875,-2.7484990821957584,-0.3865883109219372,0.1529838454477489
1772896251741532400,11.738532470703126,-3.294870981708169,0.11373999562226235,-0.13677666088193655
1772896251751500300,11.748500244140626,-3.9380893905133005,0.6563273350946605,-0.406021179535985
1772896251761468400,11.758468505859375,-4.320206547370553,1.1520477825172244,-1.0964987676441669
1772896251771436500,11.7684365234375,-4.448153128325939,1.8461692800857126,-1.7518745011024177
1772896251781404400,11.778404296875,-4.436598299610615,2.621512286183238,-1.5647067926324902
1772896251791373600,11.78837353515625,-4.481172769874334,3.181526342079043,-0.6777016931653023
1772896251801341400,11.798341552734374,-3.5133214249312874,3.027811405877769,1.3682532232925295
1772896251811309300,11.808309326171875,-1.8850065218716858,2.1399578728877007,4.201805501134693
1772896251821277400,11.81827734375,-0.1427279705017805,0.9104983493879437,6.47134705466032
1772896251831245300,11.828245361328126,1.4789169532746076,-0.2713498934354633,7.1523302537143225
1772896251841214500,11.83821435546875,2.3301988513231278,-0.6016417321179062,5.85244417194426
1772896251851182300,11.848182373046875,2.0947037497967482,0.4160105125002563,3.7099002280861137
1772896251861150500,11.858150390625,1.3799696723103523,1.7551444626837969,1.8276828985415399
1772896251871118300,11.868118408203125,0.27151684750020505,2.693813260023296,-0.10575155415162443
1772896251881086500,11.87808642578125,0.06851239521205425,3.2720489090472458,-1.8452365292802453
1772896251891055400,11.888055419921875,-0.38306057518720626,3.6391342087283727,-2.8546465037971736
1772896251901023500,11.8980234375,-0.3369610873132944,3.6336800349757072,-3.6692943691924214
1772896251910991400,11.907991455078125,-0.05863865145146847,3.5451425043448803,-3.967700977183878
1772896251920959500,11.91795947265625,0.28357144243121146,3.3605507838428017,-3.3311350120052694
1772896251930928400,11.927928466796875,0.7199170330822467,2.7162030787467955,-2.0481461428917944
1772896251940896500,11.937896484375,0.8922603896468877,1.7954463701948522,-0.397340956408903
1772896251950864400,11.947864501953125,0.6623077246785164,1.29264955464527,1.6871845867879687
1772896251960832300,11.957832275390626,0.55884910376966,1.118853734249994,2.645805308179557
1772896251970800400,11.96780029296875,1.023584338080883,1.4636758372619747,2.332462120079994
1772896251980769300,11.977769287109375,1.7854326334416866,2.144860988628864,1.279759824064374
1772896251990737400,11.9877373046875,2.3936387655764815,2.499376145072281,0.26574458424169567
1772896252000705500,11.99770556640625,2.5564509082078932,2.495989717504382,-0.31073512449301777
1772896252010673400,12.00767333984375,2.318360529491305,2.335195052175224,-0.6170405959755182
1772896252020641300,12.017641357421875,1.8793892665117977,2.2427865253299473,-0.5880043249748647
1772896252030610400,12.0276103515625,1.3321797471314667,2.0972452509731054,-0.32688761972952635
1772896252040578300,12.037578369140626,0.9106962100476026,1.9836472211048006,-0.1337391928821802
1772896252050546400,12.04754638671875,0.5742115080744028,1.9213846800677477,-0.13209085028641857
1772896252060514600,12.0575146484375,-0.052395957669615745,1.9285864281401037,-0.2229110393611714
1772896252070482400,12.067482421875,-0.6153548348456621,1.9404269419290123,-0.35677075335048136
1772896252080451600,12.07745166015625,-0.7599690574854612,1.9185069326743482,-0.548943065174669
1772896252090419500,12.08741943359375,-0.7215998716026544,1.8636711806371806,-0.6730796593878418
1772896252100387300,12.09738720703125,-0.9657686934500932,1.835522359995544,-0.6506352609328925
1772896252110355500,12.10735546875,-1.289548812150955,1.7711716145075858,-0.5067360546946525
1772896252120323300,12.1173232421875,-1.4202362162470816,1.7092472193837165,-0.12312246700087562
1772896252130292500,12.12729248046875,-1.1425357116758823,1.5487417462594806,0.1885280370377004
1772896252140260400,12.13726025390625,-0.38609833544790745,1.421251823030412,0.24468301844727247
1772896252150228500,12.147228515625,0.5035042331665754,1.4117007353529334,0.018864092282764613
1772896252160196400,12.1571962890625,1.4068424816668033,1.493821384678781,-0.2762803355749696
1772896252170164200,12.167164306640625,2.0373831952065227,1.5655696930721401,-0.5407732027225196
1772896252180133400,12.17713330078125,2.3121564141541717,1.5472124908655882,-0.8508153765153139
1772896252190101500,12.1871015625,2.3147639663040636,1.6077306724533438,-1.0468031549744308
1772896252200069400,12.1970693359375,2.0457856973707673,1.5891759018480778,-1.254968204896152
1772896252210037500,12.20703759765625,1.906177904716134,1.5578396833419799,-1.4253762094840408
1772896252220005600,12.217005615234376,1.8169453775584696,1.6909819332443177,-1.549924087911844
1772896252229974500,12.226974609375,0.990042133963108,1.8947855730861425,-1.6907184600025413
1772896252239942400,12.2369423828125,-0.5046311913698911,1.8819260915130376,-1.4648045490309596
1772896252249910300,12.24691015625,-1.7908447216182946,1.7830648813970387,-1.0347449067816137
1772896252259878400,12.25687841796875,-2.203376305961609,1.5695283675700424,-0.73850965147987
1772896252269847300,12.266847412109374,-1.9886849230110644,1.3800737172067166,-0.41026064373664556
1772896252279815400,12.2768154296875,-1.5724112295299768,1.2402785852864384,-0.2619311816996895
1772896252289783600,12.286783447265625,-1.1013707575947045,1.1103216874219477,-0.3997266459690407
1772896252299751400,12.29675146484375,-0.7604910355329513,1.0879378600478171,-0.5743244303969666
1772896252309719000,12.306718994140626,-0.48413610035181043,0.9935711848720907,-0.7123553656563162
1772896252319688200,12.316688232421875,-0.30522564035654065,0.8452007515039295,-0.910779869743064
1772896252329656000,12.326656005859375,-0.29550913298428055,0.7327181355316191,-0.8805189523182809
1772896252339624200,12.336624267578125,-0.4504559490680694,0.6749766521155833,-0.7196143968738615
1772896252349592300,12.34659228515625,-0.722997463440895,0.5648064778041094,-0.5812152493566274
1772896252359560200,12.356560302734374,-0.8108107714504003,0.4371321013862267,-0.5175567239165306
1772896252369529300,12.366529296875,-0.4687631746530533,0.4070857765601948,-0.5411877748727798
1772896252379497200,12.376497314453125,0.08154957143962382,0.5062141131797805,-0.9537246199131011
1772896252389465000,12.386465087890626,0.5531406629949808,0.621949703066051,-1.7217843371346593
1772896252399433200,12.39643310546875,0.6724936031281947,0.6688916331134737,-2.5189263564556836
1772896252409401000,12.406401123046875,0.5139852951705456,0.5172163129810243,-2.731950098454952
1772896252419370200,12.416370361328125,0.36470541880726814,0.19037625872027128,-2.4045830611780286
1772896252429338000,12.426338134765626,0.2894938182175159,-0.19320914405863732,-1.678475649023056
1772896252439306200,12.43630615234375,0.16573241399228572,-0.421051648472622,-0.7287721743848175
1772896252449274000,12.446274169921875,0.2631371416896581,-0.5768518665153533,0.0809526649923995
1772896252459242000,12.456241943359375,0.5703256065517663,-0.46743108579907566,0.7627818498838692
1772896252469211100,12.466211181640626,0.8389625147014856,-0.30130338887888936,0.9119025170974433
1772896252479179300,12.47617919921875,0.6781710642427206,-0.3024049203800037,0.7791905483711511
1772896252489147100,12.486147216796875,0.2597679575175047,-0.2824195689823478,0.3751109313569963
1772896252499115300,12.496115234375,-0.3732441145718097,-0.28669348344188184,0.3199360104933381
1772896252509083400,12.50608349609375,-1.524886677289009,-0.2853662168934941,0.5980682575453072
1772896252519052300,12.51605224609375,-2.4281144511520862,0.08273892735466361,0.8787073728516698
1772896252529020200,12.526020263671874,-2.4453502481132743,0.5186115667317063,0.8301840188317
1772896252538988000,12.535988037109375,-1.5987848571926355,0.9453585773017257,0.7356176563654094
1772896252548956200,12.5459560546875,-0.31838790426850316,1.2724147219985722,0.5694983984800055
1772896252558925000,12.555925048828126,0.8520791859060526,1.2885410964131354,0.4769023862386122
