time,seconds_elapsed,z,y,x
1772896240070023400,0.0670234375,-0.8919525146484375,-0.2989654541015625,0.042510986328125
1772896240079991000,0.076990966796875,-0.867462158203125,-0.305023193359375,0.0439453125
1772896240089959200,0.086959228515625,-0.8575897216796875,-0.2969818115234375,0.0414276123046875
1772896240099927300,0.09692724609375,-0.8632049560546875,-0.29461669921875,0.0334320068359375
1772896240109895200,0.106895263671875,-0.87042236328125,-0.2928314208984375,0.032928466796875
1772896240119864300,0.1168642578125,-0.8812103271484375,-0.29150390625,0.039093017578125
1772896240129832200,0.126832275390625,-0.8887786865234375,-0.293121337890625,0.0436553955078125
1772896240139800300,0.13680029296875,-0.887908935546875,-0.29296875,0.0474395751953125
1772896240149768200,0.146768310546875,-0.8878326416015625,-0.29107666015625,0.05419921875
1772896240159736000,0.156736083984375,-0.88629150390625,-0.28887939453125,0.06292724609375
1772896240169705200,0.166705322265625,-0.8885955810546875,-0.287445068359375,0.0666046142578125
1772896240179673000,0.176673095703125,-0.8948211669921875,-0.2902374267578125,0.0722808837890625
1772896240189641200,0.18664111328125,-0.8949737548828125,-0.2874603271484375,0.08056640625
1772896240199609300,0.196609375,-0.8939361572265625,-0.2808685302734375,0.0874176025390625
1772896240209577200,0.2065771484375,-0.8936767578125,-0.2730560302734375,0.0905914306640625
1772896240219546400,0.21654638671875,-0.89422607421875,-0.2630157470703125,0.0931243896484375
1772896240229514200,0.22651416015625,-0.893096923828125,-0.253387451171875,0.1000213623046875
1772896240239482000,0.236482177734375,-0.87957763671875,-0.2519989013671875,0.1002655029296875
1772896240249450200,0.2464501953125,-0.8580780029296875,-0.2561492919921875,0.0911865234375
1772896240259418400,0.25641845703125,-0.841796875,-0.2562408447265625,0.0869140625
1772896240269387300,0.26638720703125,-0.848541259765625,-0.239288330078125,0.0924530029296875
1772896240279355400,0.27635546875,-0.864654541015625,-0.2412109375,0.1202239990234375
1772896240289323300,0.2863232421875,-0.8756561279296875,-0.2402801513671875,0.1491851806640625
1772896240299291400,0.29629150390625,-0.88916015625,-0.26312255859375,0.1718292236328125
1772896240309259500,0.306259521484375,-0.8840179443359375,-0.225128173828125,0.211517333984375
1772896240319228400,0.316228515625,-0.85015869140625,-0.2147674560546875,0.222503662109375
1772896240329196500,0.326196533203125,-0.8370513916015625,-0.238922119140625,0.2160797119140625
1772896240339164200,0.3361640625,-0.826324462890625,-0.2368011474609375,0.2327728271484375
1772896240349132300,0.34613232421875,-0.792388916015625,-0.2462005615234375,0.2796173095703125
1772896240359100400,0.356100341796875,-0.7444915771484375,-0.2419281005859375,0.29974365234375
1772896240369069300,0.3660693359375,-0.7010040283203125,-0.236358642578125,0.3060455322265625
1772896240379037400,0.376037353515625,-0.6970062255859375,-0.2149810791015625,0.2813720703125
1772896240389005300,0.38600537109375,-0.722259521484375,-0.2049407958984375,0.25140380859375
1772896240398973200,0.39597314453125,-0.7612762451171875,-0.2132110595703125,0.2529754638671875
1772896240408941300,0.40594140625,-0.7886199951171875,-0.2156829833984375,0.306793212890625
1772896240418910200,0.41591015625,-0.862579345703125,-0.2248992919921875,0.337188720703125
1772896240428878300,0.42587841796875,-0.961578369140625,-0.2275543212890625,0.33416748046875
1772896240438846500,0.435846435546875,-1.005035400390625,-0.2104644775390625,0.334686279296875
1772896240448814300,0.445814453125,-0.9973907470703125,-0.19952392578125,0.35113525390625
1772896240458782500,0.455782470703125,-0.987396240234375,-0.2016143798828125,0.3855743408203125
1772896240468751400,0.46575146484375,-0.9990386962890625,-0.2176971435546875,0.414947509765625
1772896240478719200,0.47571923828125,-1.0522918701171875,-0.2654876708984375,0.382904052734375
1772896240488687400,0.485687255859375,-1.1208648681640625,-0.2933197021484375,0.33807373046875
1772896240498655200,0.4956552734375,-1.1640777587890625,-0.268402099609375,0.309661865234375
1772896240508623400,0.505623291015625,-1.23468017578125,-0.2375946044921875,0.2649688720703125
1772896240518592300,0.51559228515625,-1.30108642578125,-0.2265777587890625,0.1933746337890625
1772896240528560400,0.525560302734375,-1.390289306640625,-0.2382049560546875,0.14337158203125
1772896240538528500,0.535528564453125,-1.4894866943359375,-0.243927001953125,0.14306640625
1772896240548496100,0.54549609375,-1.568023681640625,-0.23724365234375,0.112945556640625
1772896240558464300,0.55546435546875,-1.623443603515625,-0.217559814453125,0.0319366455078125
1772896240568433400,0.565433349609375,-1.591644287109375,-0.190216064453125,-0.037994384765625
1772896240578401300,0.5754013671875,-1.49896240234375,-0.1595001220703125,-0.0980072021484375
1772896240588369400,0.585369384765625,-1.4245758056640625,-0.1466217041015625,-0.1623687744140625
1772896240598337500,0.595337646484375,-1.339599609375,-0.16900634765625,-0.2451171875
1772896240608305400,0.605305419921875,-1.261627197265625,-0.19525146484375,-0.2738037109375
1772896240618273300,0.615273193359375,-1.2689971923828125,-0.231201171875,-0.20343017578125
1772896240628242200,0.6252421875,-1.28228759765625,-0.2715911865234375,-0.1514434814453125
1772896240638210300,0.635210205078125,-1.241851806640625,-0.2801361083984375,-0.135894775390625
1772896240648178400,0.645178466796875,-1.1482391357421875,-0.2444305419921875,-0.1301116943359375
1772896240658146300,0.655146240234375,-1.04931640625,-0.177520751953125,-0.14404296875
1772896240668114400,0.665114501953125,-0.989990234375,-0.12774658203125,-0.176025390625
1772896240678083300,0.675083251953125,-0.959716796875,-0.1148681640625,-0.18597412109375
1772896240688051200,0.68505126953125,-0.93280029296875,-0.11102294921875,-0.1725921630859375
1772896240698019300,0.695019287109375,-0.91546630859375,-0.11260986328125,-0.14837646484375
1772896240707987200,0.7049873046875,-0.898895263671875,-0.1182708740234375,-0.089874267578125
1772896240717955300,0.714955322265625,-0.93115234375,-0.127197265625,-0.0204315185546875
1772896240727924200,0.72492431640625,-0.94744873046875,-0.1414794921875,0.053314208984375
1772896240737892400,0.734892333984375,-0.9819793701171875,-0.1381378173828125,0.186279296875
1772896240747860500,0.744860595703125,-0.988006591796875,-0.153411865234375,0.1902008056640625
1772896240757828400,0.754828369140625,-0.9654998779296875,-0.176513671875,0.1824188232421875
1772896240767796200,0.764796142578125,-0.91363525390625,-0.0970001220703125,0.0677490234375
1772896240777765400,0.774765380859375,-0.850555419921875,-0.0604095458984375,0.0551910400390625
1772896240787733200,0.784733154296875,-0.78009033203125,-0.0608062744140625,0.0937957763671875
1772896240797701400,0.794701416015625,-0.7864837646484375,-0.1347198486328125,0.0878143310546875
1772896240807669500,0.80466943359375,-0.7891387939453125,-0.20758056640625,0.05712890625
1772896240817637400,0.814637451171875,-0.7791595458984375,-0.3083648681640625,0.1691436767578125
1772896240827606500,0.8246064453125,-0.735015869140625,-0.5452117919921875,0.8500518798828125
1772896240837574100,0.83457421875,-0.6785430908203125,-0.618316650390625,0.774932861328125
1772896240847542300,0.844542236328125,-0.4791412353515625,-0.6255950927734375,0.2570037841796875
1772896240857510400,0.854510498046875,-0.65887451171875,-0.3889312744140625,0.231536865234375
1772896240867478300,0.864478271484375,-0.9843902587890625,-0.1036376953125,0.1832427978515625
1772896240877447400,0.874447509765625,-1.079254150390625,-0.0603485107421875,0.0763397216796875
1772896240887415300,0.884415283203125,-1.070098876953125,-0.0708465576171875,-0.073486328125
1772896240897383400,0.894383544921875,-1.0025634765625,-0.0745849609375,-0.1659393310546875
1772896240907351300,0.904351318359375,-0.9216461181640625,-0.1040496826171875,-0.1426239013671875
1772896240917319400,0.9143193359375,-0.855987548828125,-0.1288299560546875,-0.0859222412109375
1772896240927288300,0.924288330078125,-0.844970703125,-0.1860198974609375,-0.0056915283203125
1772896240937256400,0.93425634765625,-0.8595733642578125,-0.2469482421875,0.0898590087890625
1772896240947224300,0.944224365234375,-0.878326416015625,-0.2759857177734375,0.1766357421875
1772896240957192400,0.9541923828125,-0.89727783203125,-0.27960205078125,0.235076904296875
1772896240967160300,0.964160400390625,-0.927337646484375,-0.266754150390625,0.233795166015625
1772896240977129200,0.974129150390625,-0.9724578857421875,-0.2448883056640625,0.188323974609375
1772896240987097300,0.984097412109375,-0.9806671142578125,-0.24066162109375,0.15032958984375
1772896240997065200,0.994065185546875,-1.0032958984375,-0.2441864013671875,0.1876068115234375
1772896241007033300,1.004033447265625,-1.0517120361328125,-0.2319488525390625,0.23114013671875
1772896241017001500,1.01400146484375,-1.051605224609375,-0.2557373046875,0.2591094970703125
1772896241026970400,1.023970458984375,-1.0751953125,-0.2955169677734375,0.2645111083984375
1772896241036938500,1.0339384765625,-1.07464599609375,-0.307891845703125,0.280029296875
1772896241046906000,1.043906005859375,-1.041046142578125,-0.3158721923828125,0.288055419921875
1772896241056874200,1.053874267578125,-0.99688720703125,-0.2981719970703125,0.2923583984375
1772896241066842400,1.06384228515625,-0.962799072265625,-0.27166748046875,0.27496337890625
1772896241076811300,1.073811279296875,-0.94989013671875,-0.2671661376953125,0.2299346923828125
1772896241086779400,1.083779296875,-0.9468841552734375,-0.2718963623046875,0.1873931884765625
1772896241096747500,1.09374755859375,-0.93902587890625,-0.266937255859375,0.1680145263671875
1772896241106715400,1.10371533203125,-0.926910400390625,-0.2556304931640625,0.1624603271484375
1772896241116683300,1.113683349609375,-0.9211273193359375,-0.254486083984375,0.1515655517578125
1772896241126652200,1.123652099609375,-0.9154205322265625,-0.2530670166015625,0.1190948486328125
1772896241136620300,1.133620361328125,-0.90740966796875,-0.2462615966796875,0.0807037353515625
1772896241146588400,1.14358837890625,-0.8966217041015625,-0.241455078125,0.0567169189453125
1772896241156556300,1.153556396484375,-0.894195556640625,-0.244171142578125,0.05743408203125
1772896241166524400,1.1635244140625,-0.889617919921875,-0.256439208984375,0.0593414306640625
1772896241176493300,1.173493408203125,-0.8955230712890625,-0.248687744140625,0.030548095703125
1772896241186461400,1.18346142578125,-0.877349853515625,-0.240478515625,0.0252227783203125
1772896241196429300,1.19342919921875,-0.8559112548828125,-0.241485595703125,0.0352325439453125
1772896241206397200,1.203397216796875,-0.867828369140625,-0.230712890625,0.01824951171875
1772896241216365300,1.213365234375,-0.88214111328125,-0.2180938720703125,0.0345458984375
1772896241226334200,1.223334228515625,-0.8957672119140625,-0.2461395263671875,0.053924560546875
1772896241236302300,1.23330224609375,-0.8844757080078125,-0.24041748046875,0.088348388671875
1772896241246270500,1.2432705078125,-0.8644256591796875,-0.226165771484375,0.094757080078125
1772896241256238300,1.25323828125,-0.868072509765625,-0.231414794921875,0.0838470458984375
1772896241266206200,1.263206298828125,-0.883331298828125,-0.230804443359375,0.0955657958984375
1772896241276175400,1.27317529296875,-0.8985748291015625,-0.2257080078125,0.11602783203125
1772896241286143200,1.283143310546875,-0.92138671875,-0.2239990234375,0.125091552734375
1772896241296112000,1.293112060546875,-0.954803466796875,-0.222503662109375,0.129364013671875
1772896241306079700,1.303079833984375,-0.98907470703125,-0.22491455078125,0.1448822021484375
1772896241316048000,1.3130478515625,-0.9956207275390625,-0.2811126708984375,0.1988983154296875
1772896241326017000,1.32301708984375,-1.0095062255859375,-0.2696533203125,0.2161712646484375
1772896241335985000,1.33298486328125,-1.0040130615234375,-0.2472076416015625,0.2177734375
1772896241345953000,1.342953125,-0.984588623046875,-0.254730224609375,0.2226104736328125
1772896241355921200,1.352921142578125,-0.9613494873046875,-0.2568359375,0.2027435302734375
1772896241365889000,1.362888916015625,-0.95489501953125,-0.251739501953125,0.2063140869140625
1772896241375857000,1.37285693359375,-0.949859619140625,-0.2454833984375,0.2144317626953125
1772896241385825800,1.38282568359375,-0.9429931640625,-0.24346923828125,0.222869873046875
1772896241395794000,1.3927939453125,-0.9357757568359375,-0.2401580810546875,0.2276153564453125
1772896241405762000,1.402761962890625,-0.9282684326171875,-0.2293243408203125,0.221405029296875
1772896241415730000,1.41272998046875,-0.937713623046875,-0.219940185546875,0.2161102294921875
1772896241425698000,1.422697998046875,-0.9487152099609375,-0.2204437255859375,0.2206573486328125
1772896241435667000,1.4326669921875,-0.9354400634765625,-0.2219390869140625,0.2193145751953125
1772896241445635000,1.442635009765625,-0.92010498046875,-0.21441650390625,0.2008209228515625
1772896241455603000,1.45260302734375,-0.8991546630859375,-0.198974609375,0.1827239990234375
1772896241465570800,1.46257080078125,-0.864349365234375,-0.180328369140625,0.1722412109375
1772896241475539000,1.4725390625,-0.8407745361328125,-0.165130615234375,0.1671905517578125
1772896241485507800,1.4825078125,-0.8338470458984375,-0.1530914306640625,0.174957275390625
1772896241495476000,1.49247607421875,-0.824462890625,-0.1457977294921875,0.18890380859375
1772896241505444000,1.502444091796875,-0.802337646484375,-0.1330718994140625,0.1989898681640625
1772896241515412000,1.512411865234375,-0.7674560546875,-0.10443115234375,0.19488525390625
1772896241525379800,1.5223798828125,-0.724395751953125,-0.0708160400390625,0.1840362548828125
1772896241535349000,1.532348876953125,-0.689697265625,-0.0458221435546875,0.18902587890625
1772896241545316900,1.54231689453125,-0.64862060546875,-0.0293731689453125,0.2003021240234375
1772896241555285000,1.552284912109375,-0.603607177734375,-0.0092620849609375,0.204986572265625
1772896241565253000,1.562253173828125,-0.5372314453125,0.014495849609375,0.2068023681640625
1772896241575221000,1.572220947265625,-0.459716796875,0.030670166015625,0.2266998291015625
1772896241585190100,1.582190185546875,-0.663543701171875,0.1014556884765625,0.3598785400390625
1772896241595157800,1.59215771484375,-0.678009033203125,0.0704498291015625,0.32952880859375
1772896241605126000,1.6021259765625,-0.591705322265625,0.041473388671875,0.38653564453125
1772896241615094000,1.612093994140625,-0.673065185546875,0.0688018798828125,0.387664794921875
1772896241625062000,1.622061767578125,-0.789794921875,0.110321044921875,0.3820037841796875
1772896241635031000,1.632031005859375,-0.9467315673828125,0.174835205078125,0.48626708984375
1772896241644999000,1.6419990234375,-1.1169281005859375,0.271270751953125,0.474029541015625
1772896241654967000,1.651967041015625,-1.13775634765625,0.3154296875,0.3635101318359375
1772896241664935000,1.661934814453125,-1.0997161865234375,0.2999420166015625,0.291351318359375
1772896241674903000,1.671903076171875,-1.091217041015625,0.241485595703125,0.2571258544921875
1772896241684872000,1.681871826171875,-1.02984619140625,0.2021331787109375,0.2781829833984375
1772896241694840000,1.691840087890625,-1.0428924560546875,0.232818603515625,0.3321075439453125
1772896241704808000,1.701807861328125,-1.167236328125,0.255096435546875,0.3743743896484375
1772896241714776000,1.711776123046875,-1.321929931640625,0.2072296142578125,0.3734588623046875
1772896241724744200,1.721744140625,-1.4473724365234375,0.1246490478515625,0.4027252197265625
1772896241734713000,1.731713134765625,-1.4986114501953125,0.0132293701171875,0.4318084716796875
1772896241744681000,1.741680908203125,-1.4065399169921875,-0.065185546875,0.4014739990234375
1772896241754648800,1.75164892578125,-1.2489776611328125,-0.076812744140625,0.3817138671875
1772896241764617000,1.761616943359375,-1.1748199462890625,-0.0793304443359375,0.3980560302734375
1772896241774585000,1.771585205078125,-1.169769287109375,-0.1004180908203125,0.37872314453125
1772896241784554000,1.781553955078125,-1.2171630859375,-0.128021240234375,0.323760986328125
1772896241794522000,1.791522216796875,-1.262847900390625,-0.1638031005859375,0.27947998046875
1772896241804489700,1.80148974609375,-1.276580810546875,-0.2114410400390625,0.2375640869140625
1772896241814457900,1.811457763671875,-1.287353515625,-0.27093505859375,0.1920318603515625
1772896241824426000,1.821426025390625,-1.2603302001953125,-0.31658935546875,0.171112060546875
1772896241834395000,1.831394775390625,-1.1917572021484375,-0.3287506103515625,0.1267547607421875
1772896241844363000,1.841363037109375,-1.1361541748046875,-0.328826904296875,0.0673675537109375
1772896241854331100,1.8513310546875,-1.092987060546875,-0.3173065185546875,0.0028228759765625
1772896241864299000,1.861299072265625,-1.0819549560546875,-0.2818603515625,-0.0581512451171875
1772896241874267000,1.871266845703125,-1.1137542724609375,-0.232421875,-0.1166229248046875
1772896241884235000,1.881235107421875,-1.130035400390625,-0.2005157470703125,-0.17022705078125
1772896241894204000,1.891203857421875,-1.1326141357421875,-0.18194580078125,-0.18792724609375
1772896241904172000,1.901172119140625,-1.137115478515625,-0.1671295166015625,-0.18572998046875
1772896241914140000,1.911139892578125,-1.1113739013671875,-0.161651611328125,-0.1871795654296875
1772896241924108000,1.92110791015625,-1.034332275390625,-0.20623779296875,-0.1437530517578125
1772896241934076200,1.931076171875,-0.9658355712890625,-0.5312347412109375,0.2324066162109375
1772896241944045000,1.941045166015625,-0.97332763671875,-0.8774566650390625,0.9847259521484375
1772896241954013000,1.951012939453125,-0.8571319580078125,-0.6901092529296875,1.3701934814453125
1772896241963980800,1.960980712890625,-0.6679229736328125,-0.388519287109375,1.2195587158203125
1772896241973949000,1.970948974609375,-0.6491241455078125,-0.3338623046875,0.8525848388671875
1772896241983917000,1.9809169921875,-0.8416748046875,-0.2262420654296875,0.486724853515625
1772896241993886000,1.990885986328125,-1.041259765625,-0.1115264892578125,0.237213134765625
1772896242003854000,2.00085400390625,-1.11676025390625,-0.0102386474609375,0.064544677734375
1772896242013822000,2.010822021484375,-1.09124755859375,0.0578765869140625,-0.0601654052734375
1772896242023789800,2.020789794921875,-1.021148681640625,0.0771942138671875,-0.08697509765625
1772896242033758000,2.030758056640625,-0.9921875,0.1052093505859375,-0.0215911865234375
1772896242043726800,2.040726806640625,-0.97747802734375,0.1327056884765625,0.048309326171875
1772896242053695000,2.050695068359375,-0.9649505615234375,0.1420135498046875,0.12005615234375
1772896242063663000,2.0606630859375,-0.9559478759765625,0.1803131103515625,0.1918487548828125
1772896242073631000,2.070630859375,-0.9404449462890625,0.186798095703125,0.329742431640625
1772896242083598800,2.080598876953125,-0.9832611083984375,0.228973388671875,0.4351806640625
1772896242093567700,2.090567626953125,-1.0546722412109375,0.248077392578125,0.470550537109375
1772896242103535900,2.100535888671875,-1.0897216796875,0.2103118896484375,0.5281524658203125
1772896242113504000,2.11050390625,-1.1013336181640625,0.3045654296875,0.4231414794921875
1772896242123472000,2.120471923828125,-1.07916259765625,0.1300811767578125,0.446563720703125
1772896242133440000,2.13043994140625,-1.115142822265625,0.083404541015625,0.613128662109375
1772896242143409000,2.140408935546875,-1.191131591796875,0.018707275390625,0.6567535400390625
1772896242153377000,2.150376953125,-1.19000244140625,0.0433502197265625,0.422454833984375
1772896242163345000,2.160344970703125,-1.17095947265625,0.195556640625,-0.0880584716796875
1772896242173313000,2.17031298828125,-1.231719970703125,0.290374755859375,-0.5404815673828125
1772896242183281000,2.180281005859375,-1.2764129638671875,0.23626708984375,-0.6645660400390625
1772896242193249000,2.1902490234375,-1.2614288330078125,0.15069580078125,-0.6058502197265625
1772896242203218000,2.200218017578125,-1.227203369140625,-0.002716064453125,-0.5025634765625
1772896242213186000,2.21018603515625,-1.098785400390625,-0.2715911865234375,-0.1965789794921875
1772896242223154200,2.220154296875,-0.9427337646484375,-0.7739410400390625,0.7421722412109375
1772896242233121800,2.230121826171875,-0.8262939453125,-1.23712158203125,1.56304931640625
1772896242243090000,2.24008984375,-0.63311767578125,-1.008758544921875,1.0639801025390625
1772896242253058800,2.250058837890625,-0.495330810546875,-0.2237396240234375,0.16217041015625
1772896242263027000,2.26002685546875,-0.5875244140625,0.2361907958984375,-0.35009765625
1772896242272995000,2.2699951171875,-0.921417236328125,0.3462677001953125,-0.587677001953125
1772896242282963000,2.279962890625,-1.2148590087890625,0.309356689453125,-0.4789886474609375
1772896242292931000,2.28993115234375,-1.2996368408203125,0.2028961181640625,-0.2335968017578125
1772896242302899500,2.2998994140625,-1.18426513671875,0.089996337890625,-0.0761871337890625
1772896242312867300,2.309867431640625,-1.018951416015625,0.03717041015625,-0.004180908203125
1772896242322835200,2.319835205078125,-0.8910369873046875,0.05242919921875,-0.0374298095703125
1772896242332803300,2.32980322265625,-0.865264892578125,0.101837158203125,-0.1337738037109375
1772896242342771200,2.339771240234375,-0.8365936279296875,0.1349029541015625,-0.248260498046875
1772896242352740400,2.349740234375,-0.887542724609375,0.1216278076171875,-0.3035736083984375
1772896242362708200,2.359708251953125,-1.0742645263671875,0.0805511474609375,-0.3011627197265625
1772896242372676400,2.36967626953125,-1.3110198974609375,0.067169189453125,-0.2430419921875
1772896242382644500,2.37964453125,-1.4881439208984375,0.116973876953125,-0.16766357421875
1772896242392612000,2.389612060546875,-1.5052337646484375,0.0956268310546875,-0.1928253173828125
1772896242402581200,2.399581298828125,-1.34014892578125,0.0671234130859375,-0.261688232421875
1772896242412549400,2.40954931640625,-1.1234588623046875,0.0816497802734375,-0.20965576171875
1772896242422517200,2.419517333984375,-0.9151458740234375,0.0547027587890625,-0.1757049560546875
1772896242432485400,2.4294853515625,-0.731201171875,0.0299224853515625,-0.158477783203125
1772896242442453500,2.43945361328125,-0.6129150390625,-0.006072998046875,-0.1073150634765625
1772896242452422400,2.44942236328125,-0.552947998046875,-0.033172607421875,-0.0040740966796875
1772896242462390300,2.459390380859375,-0.57476806640625,-0.070343017578125,0.118682861328125
1772896242472358100,2.469358154296875,-0.6341705322265625,-0.077056884765625,0.17718505859375
1772896242482326300,2.479326171875,-0.7076416015625,-0.0592193603515625,0.1424102783203125
1772896242492294400,2.48929443359375,-0.7877960205078125,-0.054718017578125,0.0753326416015625
1772896242502263300,2.49926318359375,-0.8146514892578125,-0.06842041015625,0.0052490234375
1772896242512231400,2.5092314453125,-0.7975006103515625,-0.0856170654296875,-0.02899169921875
1772896242522199300,2.51919921875,-0.7551422119140625,-0.0707855224609375,-0.035247802734375
1772896242532167200,2.529167236328125,-0.7647705078125,-0.0301055908203125,0.0272369384765625
1772896242542135300,2.53913525390625,-0.803558349609375,-0.003814697265625,0.05828857421875
1772896242552103200,2.549103271484375,-0.8272552490234375,-0.013885498046875,0.0604705810546875
1772896242562072300,2.559072265625,-0.9071044921875,-0.0029449462890625,0.1009063720703125
1772896242572040200,2.569040283203125,-1.000823974609375,0.044189453125,0.1557769775390625
1772896242582008300,2.57900830078125,-0.9918212890625,0.1352081298828125,0.1349334716796875
1772896242591976400,2.5889765625,-0.96038818359375,0.1882781982421875,0.106658935546875
1772896242601944300,2.5989443359375,-0.95953369140625,0.1623687744140625,0.1263885498046875
1772896242611913200,2.608913330078125,-1.030029296875,0.056976318359375,0.247528076171875
1772896242621881300,2.61888134765625,-1.171295166015625,0.0076904296875,0.322601318359375
1772896242631849200,2.62884912109375,-1.28204345703125,0.006927490234375,0.31866455078125
1772896242641817300,2.6388173828125,-1.3437957763671875,0.043548583984375,0.2789459228515625
1772896242651785500,2.648785400390625,-1.3834228515625,0.1117401123046875,0.2116851806640625
1772896242661754400,2.65875439453125,-1.4039764404296875,0.1830596923828125,0.1519927978515625
1772896242671722500,2.668722412109375,-1.382080078125,0.2364654541015625,0.124725341796875
1772896242681690000,2.678690185546875,-1.330078125,0.25274658203125,0.1790924072265625
1772896242691658200,2.688658203125,-1.2730712890625,0.2425537109375,0.223236083984375
1772896242701626400,2.69862646484375,-1.21978759765625,0.2532806396484375,0.2271270751953125
1772896242711595300,2.70859521484375,-1.1787109375,0.276092529296875,0.266510009765625
1772896242721563400,2.7185634765625,-1.161529541015625,0.3062744140625,0.342376708984375
1772896242731531300,2.72853125,-1.1261749267578125,0.3298187255859375,0.4033966064453125
1772896242741499100,2.7384990234375,-1.065948486328125,0.3503265380859375,0.417449951171875
1772896242751467300,2.74846728515625,-1.009185791015625,0.341583251953125,0.3764495849609375
1772896242761436200,2.758436279296875,-0.99468994140625,0.318267822265625,0.33074951171875
1772896242771404300,2.768404296875,-1.0247650146484375,0.29095458984375,0.27423095703125
1772896242781372400,2.778372314453125,-1.0865020751953125,0.2710723876953125,0.2102813720703125
1772896242791340300,2.78834033203125,-1.164031982421875,0.25177001953125,0.1716156005859375
1772896242801308400,2.798308349609375,-1.2277374267578125,0.222625732421875,0.1673431396484375
1772896242811277300,2.80827734375,-1.2297210693359375,0.1937713623046875,0.1894378662109375
1772896242821245200,2.8182451171875,-1.197357177734375,0.155181884765625,0.247100830078125
1772896242831213300,2.82821337890625,-1.1389312744140625,0.1121978759765625,0.288970947265625
1772896242841181200,2.83818115234375,-1.0501708984375,0.10150146484375,0.2855072021484375
1772896242851149300,2.8481494140625,-0.969207763671875,0.113525390625,0.24774169921875
1772896242861117400,2.858117431640625,-0.92462158203125,0.12652587890625,0.1806640625
1772896242871086300,2.86808642578125,-0.9130401611328125,0.1383514404296875,0.108367919921875
1772896242881054500,2.878054443359375,-0.9031524658203125,0.1510772705078125,0.06390380859375
1772896242891022000,2.88802197265625,-0.863006591796875,0.1614837646484375,0.0374603271484375
1772896242900990200,2.897990234375,-0.81475830078125,0.15545654296875,0.0330963134765625
1772896242910958300,2.907958251953125,-0.758453369140625,0.1485137939453125,0.0407562255859375
1772896242920927200,2.91792724609375,-0.7200775146484375,0.14251708984375,0.0604705810546875
1772896242930895400,2.927895263671875,-0.6976470947265625,0.1302490234375,0.07440185546875
1772896242940863500,2.937863525390625,-0.6760101318359375,0.12200927734375,0.084197998046875
1772896242950831400,2.947831298828125,-0.6595916748046875,0.122467041015625,0.096649169921875
1772896242960799200,2.95779931640625,-0.6811981201171875,0.1306304931640625,0.1005706787109375
1772896242970768100,2.96776806640625,-0.7485198974609375,0.150909423828125,0.0967864990234375
1772896242980736300,2.977736328125,-0.79046630859375,0.1630859375,0.09051513671875
1772896242990704400,2.987704345703125,-0.810394287109375,0.1685943603515625,0.0974578857421875
1772896243000672300,2.99767236328125,-0.80535888671875,0.1430816650390625,0.11297607421875
1772896243010640400,3.007640380859375,-0.8054351806640625,0.10101318359375,0.152862548828125
1772896243020609300,3.017609375,-0.8252105712890625,0.0525970458984375,0.18896484375
1772896243030577200,3.0275771484375,-0.863128662109375,0.009307861328125,0.210418701171875
1772896243040545300,3.037545166015625,-0.9185333251953125,-0.0236053466796875,0.215972900390625
1772896243050513200,3.04751318359375,-0.9689483642578125,-0.0391845703125,0.189056396484375
1772896243060481300,3.057481201171875,-1.0211334228515625,-0.034271240234375,0.1574554443359375
1772896243070450400,3.067450439453125,-1.044036865234375,-0.0335540771484375,0.146392822265625
1772896243080418300,3.077418212890625,-1.0410919189453125,-0.033905029296875,0.1618194580078125
1772896243090386400,3.087386474609375,-1.0348358154296875,-0.0363616943359375,0.1900177001953125
1772896243100354300,3.097354248046875,-1.0316314697265625,-0.0474853515625,0.212554931640625
1772896243110322200,3.107322265625,-1.028564453125,-0.055877685546875,0.2192840576171875
1772896243120291300,3.117291259765625,-1.0431671142578125,-0.0621490478515625,0.22735595703125
1772896243130259200,3.12725927734375,-1.0765533447265625,-0.071014404296875,0.2493743896484375
1772896243140227300,3.137227294921875,-1.0722808837890625,-0.0958099365234375,0.2712249755859375
1772896243150195500,3.147195556640625,-1.0446319580078125,-0.1005401611328125,0.3043060302734375
1772896243160163300,3.157163330078125,-1.06195068359375,-0.0484771728515625,0.350738525390625
1772896243170131200,3.167131103515625,-1.1168060302734375,0.0746612548828125,0.2864990234375
1772896243180100000,3.17710009765625,-1.1598968505859375,0.2234344482421875,0.13958740234375
1772896243190068200,3.187068115234375,-1.213348388671875,0.26837158203125,0.137908935546875
1772896243200036400,3.197036376953125,-1.261993408203125,0.1258392333984375,0.3206329345703125
1772896243210004200,3.207004150390625,-1.2991180419921875,-0.0534820556640625,0.5514984130859375
1772896243219972400,3.216972412109375,-1.288177490234375,-0.11529541015625,0.6976470947265625
1772896243229941200,3.226941162109375,-1.2101287841796875,-0.0541534423828125,0.5426025390625
1772896243239909400,3.236909423828125,-1.1607666015625,0.1685028076171875,0.2213897705078125
1772896243249877200,3.246877197265625,-1.1699676513671875,0.336517333984375,0.1102752685546875
1772896243259845400,3.256845458984375,-1.148712158203125,0.3046722412109375,0.141021728515625
1772896243269813200,3.266813232421875,-1.106903076171875,0.29852294921875,0.19110107421875
1772896243279782400,3.276782470703125,-1.013946533203125,0.30096435546875,0.190093994140625
1772896243289750300,3.286750244140625,-0.923980712890625,0.2944488525390625,0.1593780517578125
1772896243299718400,3.296718505859375,-0.87261962890625,0.2958221435546875,0.1118621826171875
1772896243309686500,3.3066865234375,-0.8544769287109375,0.2964935302734375,0.0702056884765625
1772896243319654400,3.316654296875,-0.8421478271484375,0.2873687744140625,0.0492706298828125
1772896243329623600,3.32662353515625,-0.8191070556640625,0.2702789306640625,0.0640869140625
1772896243339591400,3.33659130859375,-0.7989959716796875,0.2387847900390625,0.1071319580078125
1772896243349559300,3.346559326171875,-0.788787841796875,0.198089599609375,0.1479339599609375
1772896243359527400,3.35652734375,-0.7856597900390625,0.1740264892578125,0.164276123046875
1772896243369495300,3.366495361328125,-0.7985076904296875,0.1559295654296875,0.1448974609375
1772896243379464400,3.37646435546875,-0.849090576171875,0.14013671875,0.1337127685546875
1772896243389432300,3.386432373046875,-0.9068450927734375,0.1292572021484375,0.136932373046875
1772896243399400400,3.396400390625,-0.9487457275390625,0.1164093017578125,0.134674072265625
1772896243409368600,3.40636865234375,-0.9711151123046875,0.104644775390625,0.115325927734375
1772896243419336200,3.416336181640625,-0.964569091796875,0.09814453125,0.082427978515625
1772896243429304300,3.42630419921875,-0.9582672119140625,0.0999908447265625,0.0455322265625
1772896243439273500,3.4362734375,-0.9774017333984375,0.108123779296875,-0.004150390625
1772896243449241300,3.446241455078125,-1.003631591796875,0.1072540283203125,-0.035888671875
1772896243459209500,3.45620947265625,-1.029388427734375,0.1073150634765625,-0.033721923828125
1772896243469177600,3.466177490234375,-1.0427093505859375,0.0976104736328125,-0.014190673828125
1772896243479145500,3.4761455078125,-1.0149993896484375,0.0730133056640625,0.0085296630859375
1772896243489114600,3.486114501953125,-0.968017578125,0.046905517578125,0.0356903076171875
1772896243499082200,3.496082275390625,-0.925811767578125,0.0344085693359375,0.0655364990234375
1772896243509050400,3.50605029296875,-0.8875274658203125,0.025115966796875,0.0988006591796875
1772896243519018500,3.5160185546875,-0.8508148193359375,-0.001312255859375,0.1259307861328125
1772896243528986400,3.525986328125,-0.8155975341796875,-0.0194549560546875,0.146087646484375
1772896243538955500,3.53595556640625,-0.7843475341796875,-0.02264404296875,0.1547698974609375
1772896243548923400,3.54592333984375,-0.764801025390625,-0.016754150390625,0.14837646484375
1772896243558891500,3.5558916015625,-0.771026611328125,0.0031280517578125,0.133331298828125
1772896243568859400,3.565859375,-0.793426513671875,0.0196075439453125,0.1037750244140625
1772896243578827300,3.5758271484375,-0.8302764892578125,0.015777587890625,0.0761260986328125
1772896243588795400,3.58579541015625,-0.8790283203125,0.0055389404296875,0.0764007568359375
1772896243598764500,3.5957646484375,-0.90972900390625,0.00177001953125,0.0646820068359375
1772896243608732400,3.605732421875,-0.927490234375,-0.0060272216796875,0.0453033447265625
1772896243618700500,3.615700439453125,-0.9289703369140625,-0.0127105712890625,0.036773681640625
1772896243628668400,3.62566845703125,-0.915557861328125,-0.01788330078125,0.0198516845703125
1772896243638636300,3.63563623046875,-0.90771484375,-0.02496337890625,0.017120361328125
1772896243648605400,3.64560546875,-0.9313201904296875,-0.0283660888671875,0.0309600830078125
1772896243658573300,3.6555732421875,-0.958648681640625,-0.0281982421875,0.0506439208984375
1772896243668541400,3.66554150390625,-0.9633026123046875,-0.0177459716796875,0.076416015625
1772896243678509600,3.675509521484375,-0.95684814453125,-0.002655029296875,0.0700225830078125
1772896243688477400,3.6854775390625,-0.940948486328125,0.0117645263671875,0.0335693359375
1772896243698446600,3.695446533203125,-0.9368743896484375,0.0290679931640625,0.015380859375
1772896243708414200,3.705414306640625,-0.9344482421875,0.0439300537109375,0.0314483642578125
1772896243718382300,3.71538232421875,-0.942962646484375,0.0550537109375,0.0556488037109375
1772896243728350500,3.7253505859375,-0.9607696533203125,0.06585693359375,0.0788116455078125
1772896243738318300,3.735318359375,-0.9871063232421875,0.063018798828125,0.109130859375
1772896243748287500,3.74528759765625,-1.019805908203125,0.055389404296875,0.1480255126953125
1772896243758255400,3.75525537109375,-1.0709075927734375,0.038055419921875,0.1998138427734375
1772896243768223500,3.765223388671875,-1.1097259521484375,0.0129547119140625,0.234771728515625
1772896243778191400,3.77519140625,-1.131011962890625,0.0053558349609375,0.2416534423828125
1772896243788159500,3.785159423828125,-1.1488037109375,0.03070068359375,0.234649658203125
1772896243798128400,3.79512841796875,-1.166168212890625,0.0700836181640625,0.237518310546875
1772896243808096500,3.805096435546875,-1.1847381591796875,0.1226348876953125,0.2310791015625
1772896243818064400,3.815064453125,-1.2165985107421875,0.166595458984375,0.2209014892578125
1772896243828032500,3.825032470703125,-1.2655029296875,0.1812591552734375,0.214019775390625
1772896243838000600,3.835000732421875,-1.2937469482421875,0.1976470947265625,0.168853759765625
1772896243847969500,3.844969482421875,-1.3250579833984375,0.238494873046875,0.088165283203125
1772896243857937400,3.8549375,-1.3358001708984375,0.2759857177734375,-0.0037384033203125
1772896243867905300,3.8649052734375,-1.3213043212890625,0.3228607177734375,-0.0618896484375
1772896243877873400,3.874873291015625,-1.2783966064453125,0.3752593994140625,-0.1046905517578125
1772896243887841500,3.884841552734375,-1.2223663330078125,0.4063262939453125,-0.1237335205078125
1772896243897809400,3.894809326171875,-1.180938720703125,0.3802947998046875,-0.06243896484375
1772896243907778600,3.904778564453125,-1.1455841064453125,0.31585693359375,0.0753631591796875
1772896243917746400,3.914746337890625,-1.072723388671875,0.252838134765625,0.2255859375
1772896243927714300,3.92471435546875,-0.990081787109375,0.1903228759765625,0.2969512939453125
1772896243937682400,3.934682373046875,-0.9305419921875,0.1465911865234375,0.2937774658203125
1772896243947650600,3.944650634765625,-0.8828887939453125,0.160125732421875,0.27215576171875
1772896243957619500,3.954619384765625,-0.8609161376953125,0.1837005615234375,0.230682373046875
1772896243967587600,3.964587646484375,-0.846649169921875,0.18804931640625,0.1678009033203125
1772896243977555500,3.974555419921875,-0.835601806640625,0.200408935546875,0.1124114990234375
1772896243987523300,3.9845234375,-0.8360748291015625,0.1960906982421875,0.0650177001953125
1772896243997491500,3.994491455078125,-0.8679962158203125,0.1912078857421875,0.0478668212890625
1772896244007460400,4.00446044921875,-0.939361572265625,0.1925201416015625,0.041595458984375
1772896244017428500,4.014428466796875,-1.002197265625,0.19384765625,0.0461578369140625
1772896244027396400,4.024396240234375,-1.054931640625,0.190643310546875,0.0709991455078125
1772896244037364500,4.034364501953125,-1.089630126953125,0.195404052734375,0.082611083984375
1772896244047332600,4.04433251953125,-1.09393310546875,0.2203826904296875,0.084197998046875
1772896244057301500,4.054301513671875,-1.087127685546875,0.2446441650390625,0.1103057861328125
1772896244067269400,4.064269287109375,-1.068328857421875,0.2430877685546875,0.12518310546875
1772896244077237200,4.0742373046875,-1.01202392578125,0.2081298828125,0.1263885498046875
1772896244087205400,4.084205322265625,-0.9059906005859375,0.18096923828125,0.1395111083984375
1772896244097173500,4.094173583984375,-0.8251800537109375,0.15985107421875,0.176177978515625
1772896244107142400,4.104142333984375,-0.787017822265625,0.135894775390625,0.216278076171875
1772896244117110500,4.114110595703125,-0.7415008544921875,0.1388702392578125,0.227569580078125
1772896244127078700,4.12407861328125,-0.6964569091796875,0.1456298828125,0.2177734375
1772896244137046300,4.13404638671875,-0.675811767578125,0.1501007080078125,0.1941986083984375
1772896244147014400,4.144014404296875,-0.706939697265625,0.1198272705078125,0.1783599853515625
1772896244156982500,4.153982421875,-0.789794921875,0.09014892578125,0.20947265625
1772896244166951400,4.163951416015625,-0.873626708984375,0.0652923583984375,0.239105224609375
1772896244176919600,4.17391943359375,-0.9239349365234375,0.0350799560546875,0.231414794921875
1772896244186887400,4.183887451171875,-0.9107208251953125,-0.0124359130859375,0.2080078125
1772896244196855300,4.193855224609375,-0.8899078369140625,-0.050048828125,0.2072296142578125
1772896244206823400,4.203823486328125,-0.867950439453125,-0.095489501953125,0.20867919921875
1772896244216792300,4.213792236328125,-0.86993408203125,-0.1463623046875,0.2163238525390625
1772896244226760400,4.223760498046875,-0.9000244140625,-0.1874542236328125,0.227386474609375
1772896244236728300,4.233728271484375,-0.9200286865234375,-0.2062530517578125,0.1897735595703125
1772896244246696400,4.243696533203125,-0.9365692138671875,-0.187286376953125,0.13165283203125
1772896244256664600,4.25366455078125,-0.9692840576171875,-0.164031982421875,0.1300506591796875
1772896244266633500,4.263633544921875,-1.0279541015625,-0.166015625,0.1643524169921875
1772896244276601300,4.273601318359375,-1.0609893798828125,-0.188995361328125,0.2002105712890625
1772896244286569500,4.283569580078125,-1.0500946044921875,-0.1949920654296875,0.25531005859375
1772896244296537300,4.293537353515625,-1.0024566650390625,-0.197174072265625,0.2734222412109375
1772896244306505200,4.303505126953125,-0.9711761474609375,-0.1871337890625,0.2567901611328125
1772896244316474000,4.31347412109375,-0.9922332763671875,-0.1558074951171875,0.2641754150390625
1772896244326442200,4.323442138671875,-1.0489959716796875,-0.12091064453125,0.304107666015625
1772896244336410400,4.333410400390625,-1.085296630859375,-0.0561676025390625,0.3212127685546875
1772896244346378200,4.343378173828125,-1.118988037109375,0.0318756103515625,0.290252685546875
1772896244356346400,4.353346435546875,-1.1217193603515625,0.171630859375,0.02490234375
1772896244366315300,4.363315185546875,-1.1535186767578125,0.437957763671875,-0.4477996826171875
1772896244376283400,4.373283447265625,-1.2942047119140625,0.429229736328125,-0.400604248046875
1772896244386251300,4.383251220703125,-1.3708953857421875,0.2281951904296875,-0.1624755859375
1772896244396219100,4.39321923828125,-1.3663177490234375,0.0395050048828125,0.179168701171875
1772896244406187300,4.403187255859375,-1.3199920654296875,-0.106475830078125,0.486480712890625
1772896244416155400,4.4131552734375,-1.2419891357421875,-0.1302947998046875,0.6179656982421875
1772896244426124300,4.423124267578125,-1.25225830078125,-0.0085296630859375,0.5205230712890625
1772896244436092400,4.433092529296875,-1.3232879638671875,0.143402099609375,0.27264404296875
1772896244446060300,4.443060302734375,-1.3779296875,0.262176513671875,0.023468017578125
1772896244456028200,4.453028076171875,-1.3134613037109375,0.37939453125,-0.2076263427734375
1772896244465996300,4.462996337890625,-1.182220458984375,0.420440673828125,-0.3191375732421875
1772896244475965200,4.472965087890625,-1.043060302734375,0.3881378173828125,-0.31243896484375
1772896244485933300,4.482933349609375,-0.919769287109375,0.2924957275390625,-0.1580657958984375
1772896244495901400,4.4929013671875,-0.84210205078125,0.2075347900390625,0.02630615234375
1772896244505869300,4.502869384765625,-0.8001556396484375,0.13873291015625,0.1199951171875
1772896244515837200,4.512837158203125,-0.7630767822265625,0.115966796875,0.1504058837890625
1772896244525806000,4.52280615234375,-0.7252197265625,0.1365509033203125,0.125152587890625
1772896244535774200,4.532774169921875,-0.7006988525390625,0.15625,0.0869140625
1772896244545742300,4.542742431640625,-0.7045440673828125,0.1481475830078125,0.055084228515625
1772896244555710200,4.552710205078125,-0.7295379638671875,0.125213623046875,0.05670166015625
1772896244565678300,4.56267822265625,-0.7969512939453125,0.09197998046875,0.0899810791015625
1772896244575647200,4.572647216796875,-0.8726959228515625,0.04937744140625,0.1331939697265625
1772896244585615400,4.582615478515625,-0.9141693115234375,0.0233306884765625,0.1653594970703125
1772896244595583200,4.592583251953125,-0.9235992431640625,-0.0072784423828125,0.167083740234375
1772896244605551400,4.60255126953125,-0.8815155029296875,-0.0217132568359375,0.149200439453125
1772896244615519200,4.612519287109375,-0.824676513671875,-0.030548095703125,0.128387451171875
1772896244625487400,4.6224873046875,-0.8093719482421875,-0.0475006103515625,0.11895751953125
1772896244635456300,4.632456298828125,-0.81951904296875,-0.0601654052734375,0.13043212890625
1772896244645424400,4.64242431640625,-0.8159637451171875,-0.065399169921875,0.1382598876953125
1772896244655392500,4.652392578125,-0.8136749267578125,-0.0782623291015625,0.1350250244140625
1772896244665360100,4.662360107421875,-0.8157196044921875,-0.083770751953125,0.135467529296875
1772896244675328300,4.672328369140625,-0.8234405517578125,-0.0839691162109375,0.1352996826171875
1772896244685297200,4.682297119140625,-0.84075927734375,-0.0770111083984375,0.122039794921875
1772896244695265300,4.692265380859375,-0.863525390625,-0.051849365234375,0.0984954833984375
1772896244705233400,4.7022333984375,-0.8886871337890625,-0.03424072265625,0.070556640625
1772896244715201300,4.712201171875,-0.905792236328125,-0.0337677001953125,0.0630645751953125
1772896244725169200,4.722169189453125,-0.915283203125,-0.0434417724609375,0.06549072265625
1772896244735138300,4.73213818359375,-0.926055908203125,-0.0634307861328125,0.080169677734375
1772896244745106200,4.742106201171875,-0.93487548828125,-0.0780029296875,0.089447021484375
1772896244755074300,4.75207421875,-0.945098876953125,-0.081878662109375,0.084808349609375
1772896244765042400,4.76204248046875,-0.9591522216796875,-0.0849151611328125,0.076385498046875
1772896244775010300,4.77201025390625,-0.9896392822265625,-0.0872802734375,0.094635009765625
1772896244784979500,4.7819794921875,-1.029388427734375,-0.0891571044921875,0.1227874755859375
1772896244794947300,4.791947265625,-1.0187835693359375,-0.087615966796875,0.13232421875
1772896244804915200,4.801915283203125,-0.9691162109375,-0.084075927734375,0.126068115234375
1772896244814883300,4.81188330078125,-0.9385223388671875,-0.0774383544921875,0.1185302734375
1772896244824851200,4.821851318359375,-0.9556732177734375,-0.06390380859375,0.1044158935546875
1772896244834820400,4.8318203125,-0.9801177978515625,-0.0422821044921875,0.0806732177734375
1772896244844788200,4.841788330078125,-0.968505859375,-0.0162506103515625,0.037841796875
1772896244854756400,4.85175634765625,-0.9459381103515625,-0.008056640625,-0.006561279296875
1772896244864724500,4.861724365234375,-0.9318389892578125,-0.0027923583984375,-0.0283660888671875
1772896244874692000,4.871692138671875,-0.9362335205078125,0.0042266845703125,-0.044830322265625
1772896244884660200,4.88166015625,-0.9803009033203125,0.0087127685546875,-0.04248046875
1772896244894629000,4.891629150390625,-1.0205230712890625,-0.002410888671875,-0.0177001953125
1772896244904597200,4.90159716796875,-1.0264129638671875,-0.0189666748046875,0.012359619140625
1772896244914565400,4.9115654296875,-1.0262451171875,-0.03363037109375,0.0394134521484375
1772896244924533200,4.921533203125,-1.0386505126953125,-0.0445556640625,0.036529541015625
1772896244934501400,4.93150146484375,-1.102691650390625,-0.056304931640625,0.052581787109375
1772896244944470500,4.941470458984375,-1.177581787109375,-0.0679168701171875,0.0718841552734375
1772896244954438100,4.951438232421875,-1.2300567626953125,-0.069122314453125,0.0982513427734375
1772896244964406300,4.96140625,-1.2615203857421875,-0.0500640869140625,0.1414642333984375
1772896244974374400,4.97137451171875,-1.251251220703125,-0.007537841796875,0.189849853515625
1772896244984342300,4.98134228515625,-1.1837310791015625,0.036834716796875,0.1916961669921875
1772896244994311400,4.9913115234375,-1.0908966064453125,0.0677490234375,0.1578826904296875
1772896245004279300,5.001279296875,-1.05975341796875,0.067169189453125,0.117950439453125
1772896245014247200,5.0112470703125,-1.151031494140625,0.0511932373046875,0.1044769287109375
1772896245024215300,5.02121533203125,-1.312835693359375,0.102783203125,0.082733154296875
1772896245034183200,5.03118310546875,-1.488494873046875,0.2002410888671875,0.0473175048828125
1772896245044152300,5.04115234375,-1.6005401611328125,0.29437255859375,0.0041656494140625
1772896245054120200,5.0511201171875,-1.583038330078125,0.3840179443359375,-0.007904052734375
1772896245064085200,5.061085205078125,-1.45465087890625,0.4238433837890625,0.03271484375
1772896245074053400,5.071053466796875,-1.286895751953125,0.4024200439453125,0.082275390625
1772896245084021200,5.081021240234375,-1.1571044921875,0.3463134765625,0.129119873046875
1772896245093990400,5.090990478515625,-1.10455322265625,0.30908203125,0.1571502685546875
1772896245103958300,5.100958251953125,-1.1035003662109375,0.28912353515625,0.150390625
1772896245113926400,5.110926513671875,-1.1115875244140625,0.27691650390625,0.17413330078125
1772896245123894300,5.120894287109375,-1.10931396484375,0.281982421875,0.213714599609375
1772896245133862100,5.130862060546875,-1.0788421630859375,0.28887939453125,0.2223358154296875
1772896245143830300,5.140830322265625,-1.02294921875,0.2876434326171875,0.2241363525390625
1772896245153799200,5.150799072265625,-0.9507904052734375,0.2899627685546875,0.21746826171875
1772896245163767300,5.160767333984375,-0.889617919921875,0.278533935546875,0.2092742919921875
1772896245173735400,5.1707353515625,-0.855224609375,0.2520294189453125,0.20745849609375
1772896245183703300,5.180703369140625,-0.8470611572265625,0.23284912109375,0.2151641845703125
1772896245193671200,5.190671142578125,-0.8531646728515625,0.221893310546875,0.225189208984375
1772896245203640300,5.200640380859375,-0.85577392578125,0.208160400390625,0.220245361328125
1772896245213608200,5.210608154296875,-0.8565673828125,0.19146728515625,0.221771240234375
1772896245223576300,5.220576416015625,-0.8686676025390625,0.169189453125,0.223907470703125
1772896245233544400,5.23054443359375,-0.854278564453125,0.1447906494140625,0.2147216796875
1772896245243512300,5.24051220703125,-0.8148345947265625,0.12841796875,0.195343017578125
1772896245253481500,5.2504814453125,-0.7837371826171875,0.122222900390625,0.1567230224609375
1772896245263449000,5.260448974609375,-0.7810821533203125,0.1119232177734375,0.1313934326171875
1772896245273417200,5.270417236328125,-0.7861480712890625,0.1011505126953125,0.12445068359375
1772896245283385300,5.28038525390625,-0.7730865478515625,0.102935791015625,0.116241455078125
1772896245293353200,5.290353271484375,-0.7596435546875,0.1041259765625,0.104248046875
1772896245303322000,5.300322021484375,-0.7743682861328125,0.0967559814453125,0.11614990234375
1772896245313291000,5.310291015625,-0.752960205078125,0.094482421875,0.115570068359375
1772896245323259000,5.3202587890625,-0.71917724609375,0.07794189453125,0.1102142333984375
1772896245333227000,5.33022705078125,-0.6818084716796875,0.06671142578125,0.1084747314453125
1772896245343195000,5.34019482421875,-0.67523193359375,0.0493011474609375,0.1285552978515625
1772896245353163000,5.3501630859375,-0.7099456787109375,0.026702880859375,0.1515045166015625
1772896245363132000,5.3601318359375,-0.7470245361328125,0.004180908203125,0.175201416015625
1772896245373100000,5.37010009765625,-0.775146484375,-0.0073394775390625,0.191802978515625
1772896245383068000,5.38006787109375,-0.797088623046875,-0.0038909912109375,0.1961669921875
1772896245393035800,5.390035888671875,-0.843994140625,0.006683349609375,0.1867828369140625
1772896245403004000,5.40000390625,-0.912384033203125,0.0025634765625,0.17828369140625
1772896245412972800,5.409972900390625,-0.952789306640625,0.0021514892578125,0.1549835205078125
1772896245422941000,5.41994091796875,-0.97894287109375,0.0017547607421875,0.1025543212890625
1772896245432909000,5.429908935546875,-1.022003173828125,-0.014984130859375,0.066253662109375
1772896245442877000,5.439876953125,-1.1101531982421875,-0.041534423828125,0.05908203125
1772896245452844800,5.4498447265625,-1.2178192138671875,-0.0780029296875,0.1058502197265625
1772896245462814000,5.45981396484375,-1.3063201904296875,-0.12713623046875,0.19720458984375
1772896245472781800,5.46978173828125,-1.3190765380859375,-0.15838623046875,0.250152587890625
1772896245482750000,5.47975,-1.2462615966796875,-0.1637115478515625,0.2371978759765625
1772896245492718800,5.48971875,-1.1585540771484375,-0.16302490234375,0.194000244140625
1772896245502687000,5.49968701171875,-1.112457275390625,-0.1595306396484375,0.1598052978515625
1772896245512656000,5.50965576171875,-1.0973052978515625,-0.1465606689453125,0.1444854736328125
1772896245522624000,5.5196240234375,-1.103729248046875,-0.1352691650390625,0.1570587158203125
1772896245532592000,5.529592041015625,-1.1211395263671875,-0.1356964111328125,0.2057037353515625
1772896245542559700,5.539559814453125,-1.1538848876953125,-0.099334716796875,0.2452850341796875
1772896245552528000,5.54952783203125,-1.1544342041015625,0.0370635986328125,0.12603759765625
1772896245562497000,5.5594970703125,-1.1636810302734375,0.1124267578125,0.0330352783203125
1772896245572465000,5.56946484375,-1.196533203125,0.032318115234375,0.1314849853515625
1772896245582433000,5.57943310546875,-1.201629638671875,-0.0816497802734375,0.2447967529296875
1772896245592401200,5.589401123046875,-1.184112548828125,-0.1407623291015625,0.2711181640625
1772896245602369000,5.599369140625,-1.1647796630859375,-0.1413421630859375,0.2733306884765625
1772896245612337000,5.6093369140625,-1.1857757568359375,-0.0792388916015625,0.3033599853515625
1772896245622305800,5.619305908203125,-1.1814117431640625,0.0886688232421875,0.2296600341796875
1772896245632274000,5.62927392578125,-1.16436767578125,0.18670654296875,0.1527252197265625
1772896245642242000,5.639241943359375,-1.1414794921875,0.2318572998046875,0.1137237548828125
1772896245652210000,5.6492099609375,-1.072998046875,0.2688751220703125,0.04913330078125
1772896245662178000,5.659177978515625,-1.000335693359375,0.3031005859375,0.0191802978515625
1772896245672147000,5.66914697265625,-0.9813995361328125,0.3259124755859375,0.02532958984375
1772896245682115000,5.679114990234375,-1.011383056640625,0.3447113037109375,0.0381011962890625
1772896245692083000,5.6890830078125,-1.005889892578125,0.37445068359375,0.026580810546875
1772896245702050800,5.69905078125,-0.959320068359375,0.3749237060546875,0.0263214111328125
1772896245712019000,5.70901904296875,-0.9190826416015625,0.3494720458984375,0.059783935546875
1772896245721987800,5.71898779296875,-0.8824615478515625,0.3242034912109375,0.0926971435546875
1772896245731956000,5.7289560546875,-0.8605804443359375,0.2926025390625,0.0909576416015625
1772896245741924000,5.738924072265625,-0.88531494140625,0.2674102783203125,0.0784759521484375
1772896245751892000,5.74889208984375,-0.91705322265625,0.2487030029296875,0.0513916015625
1772896245761859800,5.75885986328125,-0.9509735107421875,0.230072021484375,0.00836181640625
1772896245771829000,5.7688291015625,-0.972747802734375,0.1983184814453125,-0.0243377685546875
1772896245781796900,5.778796875,-0.9625701904296875,0.1591796875,-0.0255279541015625
1772896245791765000,5.788764892578125,-0.9424591064453125,0.1242523193359375,0.0045318603515625
1772896245801733000,5.798733154296875,-0.927978515625,0.0840301513671875,0.0279388427734375
1772896245811701000,5.808700927734375,-0.923004150390625,0.044891357421875,0.049957275390625
1772896245821670100,5.818670166015625,-0.925201416015625,0.0164031982421875,0.06634521484375
1772896245831637800,5.8286376953125,-0.9146728515625,0.0006256103515625,0.0560302734375
1772896245841606000,5.83860595703125,-0.894775390625,0.004974365234375,0.0233917236328125
1772896245851574000,5.848573974609375,-0.88250732421875,0.01947021484375,-0.0139923095703125
1772896245861542000,5.8585419921875,-0.8885345458984375,0.022186279296875,-0.028564453125
1772896245871511000,5.868510986328125,-0.8974151611328125,0.0202178955078125,-0.01617431640625
1772896245881479000,5.87847900390625,-0.8919830322265625,0.0131988525390625,0.0020751953125
1772896245891447000,5.888447021484375,-0.8980712890625,0.0157623291015625,0.010406494140625
1772896245901415000,5.898414794921875,-0.9180755615234375,0.0253753662109375,0.000762939453125
1772896245911383000,5.908383056640625,-0.90594482421875,0.0361328125,-0.0156707763671875
1772896245921352000,5.91835205078125,-0.8686065673828125,0.0440216064453125,-0.0184173583984375
1772896245931320000,5.928320068359375,-0.836334228515625,0.0474090576171875,-0.013916015625
1772896245941288000,5.938287841796875,-0.8365478515625,0.0531463623046875,-0.0004119873046875
1772896245951256000,5.948256103515625,-0.8389739990234375,0.0532379150390625,-0.0051116943359375
1772896245961224200,5.95822412109375,-0.8270263671875,0.057861328125,-0.02374267578125
1772896245971193000,5.968193115234375,-0.8158721923828125,0.0706787109375,-0.0474090576171875
1772896245981161000,5.978160888671875,-0.835296630859375,0.085601806640625,-0.0661163330078125
1772896245991128800,5.98812890625,-0.8902587890625,0.092864990234375,-0.08380126953125
1772896246001097000,5.998096923828125,-0.95599365234375,0.0972137451171875,-0.076751708984375
1772896246011065000,6.008065185546875,-0.9828033447265625,0.0890350341796875,-0.05877685546875
1772896246021033000,6.018032958984375,-0.9720611572265625,0.0671234130859375,-0.032135009765625
1772896246031002000,6.028002197265625,-0.9569244384765625,0.0504302978515625,0.0213623046875
1772896246040969700,6.0379697265625,-0.97314453125,0.03515625,0.0853271484375
1772896246050937900,6.047937744140625,-0.9751434326171875,0.0177459716796875,0.1239471435546875
1772896246060906000,6.057906005859375,-0.949981689453125,0.0114898681640625,0.12969970703125
1772896246070873900,6.067873779296875,-0.92022705078125,0.0053558349609375,0.116546630859375
1772896246080843000,6.077843017578125,-0.903045654296875,0.0059814453125,0.0923614501953125
1772896246090811100,6.08781103515625,-0.923004150390625,0.0081787109375,0.0633544921875
1772896246100779000,6.097779052734375,-0.9740447998046875,0.0124359130859375,0.056854248046875
1772896246110747000,6.107746826171875,-1.018829345703125,0.0233917236328125,0.04736328125
1772896246120715000,6.117715087890625,-1.0272369384765625,0.027801513671875,0.0175018310546875
1772896246130684000,6.127683837890625,-1.0141448974609375,0.029144287109375,-0.02105712890625
1772896246140652000,6.137652099609375,-1.012054443359375,0.0241546630859375,-0.045135498046875
1772896246150620000,6.147619873046875,-1.038818359375,0.019317626953125,-0.0407867431640625
1772896246160588000,6.157588134765625,-1.0678558349609375,0.0097808837890625,-0.022003173828125
1772896246170556200,6.16755615234375,-1.081085205078125,0.0072021484375,0.00244140625
1772896246180525000,6.177525146484375,-1.0758819580078125,0.005401611328125,0.040283203125
1772896246190493000,6.187492919921875,-1.0576934814453125,0.0050048828125,0.0979461669921875
1772896246200460800,6.197460693359375,-1.0383758544921875,0.00323486328125,0.1561126708984375
1772896246210429000,6.207428955078125,-1.0311279296875,-0.0007171630859375,0.20867919921875
1772896246220397000,6.21739697265625,-1.04876708984375,0.0180816650390625,0.2204742431640625
1772896246230366000,6.227365966796875,-1.089263916015625,0.04315185546875,0.2169036865234375
1772896246240334000,6.237333984375,-1.1473846435546875,0.090179443359375,0.213653564453125
1772896246250302000,6.247302001953125,-1.2155914306640625,0.1702880859375,0.17401123046875
1772896246260269800,6.257269775390625,-1.2681121826171875,0.246337890625,0.1279754638671875
1772896246270238000,6.267238037109375,-1.312744140625,0.2918853759765625,0.1345672607421875
1772896246280206800,6.277206787109375,-1.3241424560546875,0.2909698486328125,0.1779937744140625
1772896246290175000,6.287175048828125,-1.2814178466796875,0.2723541259765625,0.2007598876953125
1772896246300143000,6.29714306640625,-1.203765869140625,0.2635955810546875,0.1824188232421875
1772896246310110200,6.307110107421875,-1.1380767822265625,0.249908447265625,0.1516571044921875
1772896246320078000,6.317078125,-1.1109619140625,0.2362518310546875,0.1265411376953125
1772896246330047200,6.327047119140625,-1.1191864013671875,0.2385101318359375,0.1230010986328125
1772896246340015000,6.33701513671875,-1.126312255859375,0.2539215087890625,0.1331634521484375
1772896246349983200,6.346983154296875,-1.10589599609375,0.2689361572265625,0.13470458984375
1772896246359951400,6.356951416015625,-1.0572967529296875,0.24932861328125,0.150238037109375
1772896246369919000,6.3669189453125,-1.0056304931640625,0.2139129638671875,0.1974029541015625
1772896246379887000,6.37688720703125,-0.9544830322265625,0.18353271484375,0.2461395263671875
1772896246389856000,6.38685595703125,-0.9077301025390625,0.1523284912109375,0.2795257568359375
1772896246399824100,6.39682421875,-0.8609466552734375,0.1290130615234375,0.3041229248046875
1772896246409792300,6.406792236328125,-0.82177734375,0.10687255859375,0.312530517578125
1772896246419760000,6.416760009765625,-0.7975921630859375,0.090576171875,0.291656494140625
1772896246429728300,6.426728271484375,-0.7847442626953125,0.079864501953125,0.2601165771484375
1772896246439697200,6.436697265625,-0.802276611328125,0.0808563232421875,0.22021484375
1772896246449665000,6.4466650390625,-0.8570709228515625,0.0746917724609375,0.177398681640625
1772896246459633200,6.456633056640625,-0.9192352294921875,0.0592041015625,0.156036376953125
1772896246469601300,6.466601318359375,-0.963623046875,0.0357208251953125,0.1423492431640625
1772896246479569200,6.476569091796875,-0.9922332763671875,0.0211639404296875,0.13037109375
1772896246489538300,6.486538330078125,-1.0058441162109375,0.007293701171875,0.1284027099609375
1772896246499506200,6.496506103515625,-0.9971466064453125,-0.0068511962890625,0.1413116455078125
1772896246509474300,6.506474365234375,-0.961883544921875,-0.0100555419921875,0.1535186767578125
1772896246519442200,6.516442138671875,-0.9092864990234375,-0.014129638671875,0.164337158203125
1772896246529410000,6.52641015625,-0.8587646484375,-0.01812744140625,0.1793060302734375
1772896246539379200,6.536379150390625,-0.8153076171875,-0.02154541015625,0.1895904541015625
1772896246549347000,6.54634716796875,-0.781402587890625,-0.0107269287109375,0.179718017578125
1772896246559315200,6.556315185546875,-0.7766876220703125,0.0051116943359375,0.1629486083984375
1772896246569283300,6.566283447265625,-0.795623779296875,0.0146484375,0.1583251953125
1772896246579251200,6.576251220703125,-0.8067474365234375,0.015869140625,0.1569366455078125
1772896246589220400,6.586220458984375,-0.80755615234375,0.0169830322265625,0.162200927734375
1772896246599188000,6.59618798828125,-0.8051300048828125,0.0019378662109375,0.160614013671875
1772896246609156000,6.606156005859375,-0.8082275390625,-0.020355224609375,0.16876220703125
1772896246619124200,6.616124267578125,-0.8270263671875,-0.044464111328125,0.1736602783203125
1772896246629092000,6.626092041015625,-0.8697662353515625,-0.0698699951171875,0.1558074951171875
1772896246639061200,6.636061279296875,-0.9495086669921875,-0.076751708984375,0.1541900634765625
1772896246649029400,6.646029296875,-1.0475311279296875,-0.078125,0.1649017333984375
1772896246658997000,6.6559970703125,-1.1009368896484375,-0.0752410888671875,0.1689453125
1772896246668965000,6.665965087890625,-1.068511962890625,-0.0742645263671875,0.167694091796875
1772896246678933200,6.675933349609375,-0.972900390625,-0.0826263427734375,0.184722900390625
1772896246688902100,6.685902099609375,-0.8846435546875,-0.1054229736328125,0.220184326171875
1772896246698870300,6.695870361328125,-0.8402557373046875,-0.1359100341796875,0.268402099609375
1772896246708838100,6.705838134765625,-0.82171630859375,-0.1525726318359375,0.305419921875
1772896246718806300,6.71580615234375,-0.83135986328125,-0.1644287109375,0.3198394775390625
1772896246728774100,6.725774169921875,-0.8752899169921875,-0.1606903076171875,0.305145263671875
1772896246738742000,6.735741943359375,-0.9625396728515625,-0.152618408203125,0.28948974609375
1772896246748711200,6.745711181640625,-1.053131103515625,-0.149566650390625,0.2766265869140625
1772896246758679000,6.755678955078125,-1.108612060546875,-0.1586456298828125,0.273345947265625
1772896246768647200,6.765647216796875,-1.12261962890625,-0.1736297607421875,0.2964324951171875
1772896246778615300,6.775615234375,-1.1150970458984375,-0.1805267333984375,0.35650634765625
1772896246788583200,6.785583251953125,-1.131744384765625,-0.143096923828125,0.435577392578125
1772896246798552300,6.79555224609375,-1.188201904296875,-0.0435638427734375,0.4029998779296875
1772896246808520200,6.805520263671875,-1.26092529296875,0.026947021484375,0.2938690185546875
1772896246818488000,6.815488037109375,-1.31097412109375,0.0579071044921875,0.21148681640625
1772896246828456200,6.825456298828125,-1.28424072265625,0.1077117919921875,0.040435791015625
1772896246838424300,6.83542431640625,-1.234130859375,0.18426513671875,-0.180908203125
1772896246848393200,6.845393310546875,-1.23455810546875,0.1557159423828125,-0.1560821533203125
1772896246858361300,6.855361328125,-1.2993927001953125,0.0969696044921875,0.0716705322265625
1772896246868329200,6.8653291015625,-1.318359375,0.002838134765625,0.43316650390625
1772896246878297000,6.875297119140625,-1.2439422607421875,-0.0685577392578125,0.7108917236328125
1772896246888265200,6.88526513671875,-1.0707855224609375,-0.0586090087890625,0.715789794921875
1772896246898234000,6.895234130859375,-0.9018096923828125,0.0686798095703125,0.4974517822265625
1772896246908202200,6.9052021484375,-0.8048858642578125,0.2538909912109375,0.210906982421875
1772896246918170000,6.915170166015625,-0.836029052734375,0.386810302734375,-0.018646240234375
1772896246928138200,6.92513818359375,-0.9373016357421875,0.44989013671875,-0.14373779296875
1772896246938106000,6.935106201171875,-1.024688720703125,0.453277587890625,-0.167236328125
1772896246948075000,6.945074951171875,-1.0700531005859375,0.39324951171875,-0.114501953125
1772896246958043100,6.955043212890625,-1.055084228515625,0.3025665283203125,-0.01220703125
1772896246968011300,6.96501123046875,-0.967010498046875,0.231353759765625,0.0594482421875
1772896246977979100,6.974979248046875,-0.8764190673828125,0.1807708740234375,0.0860443115234375
1772896246987947300,6.984947265625,-0.82537841796875,0.1513519287109375,0.107086181640625
1772896246997916200,6.994916259765625,-0.834686279296875,0.1298828125,0.1187286376953125
1772896247007884300,7.00488427734375,-0.8961181640625,0.105712890625,0.137664794921875
1772896247017852200,7.01485205078125,-0.955596923828125,0.075408935546875,0.1612091064453125
1772896247027820000,7.024820068359375,-0.9849700927734375,0.0462188720703125,0.1683349609375
1772896247037788200,7.0347880859375,-0.99456787109375,0.0355224609375,0.15008544921875
1772896247047757000,7.044757080078125,-0.995849609375,0.038116455078125,0.0963134765625
1772896247057725200,7.05472509765625,-0.99285888671875,0.054656982421875,0.04986572265625
1772896247067693300,7.064693359375,-0.9899444580078125,0.065338134765625,-0.0012664794921875
1772896247077661200,7.0746611328125,-0.992706298828125,0.06341552734375,-0.047149658203125
1772896247087629000,7.084629150390625,-0.98077392578125,0.0465240478515625,-0.0622711181640625
1772896247097597200,7.09459716796875,-0.949554443359375,0.037261962890625,-0.05908203125
1772896247107566000,7.104566162109375,-0.9136199951171875,0.0264892578125,-0.04736328125
1772896247117534200,7.1145341796875,-0.88720703125,0.00262451171875,-0.005035400390625
1772896247127502000,7.124502197265625,-0.8652496337890625,-0.0253448486328125,0.05950927734375
1772896247137470200,7.13447021484375,-0.85711669921875,-0.0556793212890625,0.1258392333984375
1772896247147438300,7.144438232421875,-0.8577880859375,-0.06597900390625,0.1748046875
1772896247157407200,7.1544072265625,-0.84814453125,-0.056549072265625,0.1715545654296875
1772896247167375000,7.164375,-0.8172760009765625,-0.033416748046875,0.1205902099609375
1772896247177343200,7.17434326171875,-0.7958221435546875,-0.0095977783203125,0.066986083984375
1772896247187311000,7.18431103515625,-0.798248291015625,0.003448486328125,0.0278778076171875
1772896247197279200,7.194279296875,-0.8209075927734375,0.0039825439453125,0.010986328125
1772896247207248100,7.204248046875,-0.8553314208984375,-0.0006561279296875,0.012664794921875
1772896247217216300,7.21421630859375,-0.8970794677734375,-0.00634765625,-0.000030517578125
1772896247227184000,7.22418408203125,-0.9302520751953125,-0.0095672607421875,-0.00384521484375
1772896247237152000,7.234152099609375,-0.9523468017578125,-0.0219879150390625,0.0085906982421875
1772896247247120100,7.2441201171875,-0.96368408203125,-0.0466766357421875,0.030792236328125
1772896247257089000,7.254089111328125,-0.962371826171875,-0.0714263916015625,0.047943115234375
1772896247267057200,7.26405712890625,-0.9452972412109375,-0.09307861328125,0.0439453125
1772896247277025300,7.274025390625,-0.9325714111328125,-0.098388671875,0.0197906494140625
1772896247286993200,7.2839931640625,-0.9320220947265625,-0.0897216796875,-0.0267791748046875
1772896247296961000,7.2939609375,-0.94622802734375,-0.0753326416015625,-0.066162109375
1772896247306930700,7.3039306640625,-0.9756622314453125,-0.060546875,-0.0767974853515625
1772896247316898800,7.31389892578125,-1.00592041015625,-0.0644683837890625,-0.05517578125
1772896247326866700,7.32386669921875,-1.0292205810546875,-0.072998046875,-0.0082550048828125
1772896247336834600,7.33383447265625,-1.0306243896484375,-0.0825653076171875,0.0416107177734375
1772896247346802700,7.343802734375,-1.0003509521484375,-0.0862884521484375,0.071990966796875
1772896247356771600,7.353771484375,-0.9535064697265625,-0.0460662841796875,0.06689453125
1772896247366739700,7.36373974609375,-0.91925048828125,0.0158843994140625,0.033721923828125
1772896247376707800,7.373707763671875,-0.9150543212890625,0.0713348388671875,0.0302734375
1772896247386675700,7.38367578125,-0.906585693359375,0.1174163818359375,0.11456298828125
1772896247396643600,7.3936435546875,-0.916259765625,0.1443939208984375,0.290557861328125
1772896247406612700,7.40361279296875,-0.913055419921875,0.1504364013671875,0.5149383544921875
1772896247416580600,7.41358056640625,-0.8884429931640625,0.1663055419921875,0.6116943359375
1772896247426548700,7.423548828125,-0.891082763671875,0.2392578125,0.45477294921875
1772896247436516900,7.433516845703125,-0.9868316650390625,0.3391571044921875,0.23712158203125
1772896247446484700,7.443484619140625,-1.1557769775390625,0.4079437255859375,0.1165924072265625
1772896247456454000,7.453453857421875,-1.32159423828125,0.447662353515625,0.0863189697265625
1772896247466421500,7.46342138671875,-1.460845947265625,0.4753570556640625,0.0655364990234375
1772896247476389600,7.4733896484375,-1.526336669921875,0.540679931640625,0.01519775390625
1772896247486357800,7.483357666015625,-1.4873046875,0.58038330078125,0.037261962890625
1772896247496325600,7.49332568359375,-1.3012542724609375,0.552642822265625,0.158172607421875
1772896247506293800,7.503293701171875,-1.0742645263671875,0.42132568359375,0.37481689453125
1772896247516262700,7.5132626953125,-0.914337158203125,0.2847747802734375,0.60772705078125
1772896247526230800,7.523230712890625,-0.8277740478515625,0.1944122314453125,0.690887451171875
1772896247536198700,7.53319873046875,-0.8573150634765625,0.1711273193359375,0.620697021484375
1772896247546166800,7.543166748046875,-0.98834228515625,0.19122314453125,0.46820068359375
1772896247556134700,7.553134765625,-1.1029052734375,0.2016754150390625,0.324249267578125
1772896247566103800,7.563103759765625,-1.1617279052734375,0.18231201171875,0.2274627685546875
1772896247576071700,7.57307177734375,-1.1744537353515625,0.1340179443359375,0.174957275390625
1772896247586039800,7.583039794921875,-1.1497955322265625,0.0845794677734375,0.143524169921875
1772896247596008000,7.593008056640625,-1.1339263916015625,0.0398101806640625,0.13665771484375
1772896247605975600,7.6029755859375,-1.1076507568359375,0.0157012939453125,0.1199798583984375
1772896247615944700,7.61294482421875,-1.07177734375,0.0018463134765625,0.098236083984375
1772896247625912600,7.62291259765625,-1.028045654296875,0.0007476806640625,0.0869903564453125
1772896247635880700,7.632880615234375,-0.9751739501953125,0.0165252685546875,0.084930419921875
1772896247645848800,7.642848876953125,-0.909576416015625,0.0534820556640625,0.066925048828125
1772896247655816700,7.652816650390625,-0.847900390625,0.099853515625,0.0484619140625
1772896247665785900,7.662785888671875,-0.7980499267578125,0.12823486328125,0.0481109619140625
1772896247675753700,7.672753662109375,-0.739959716796875,0.138397216796875,0.06048583984375
1772896247685721600,7.6827216796875,-0.7079315185546875,0.130279541015625,0.104095458984375
1772896247695689700,7.692689697265625,-0.714263916015625,0.1134185791015625,0.1496734619140625
1772896247705657600,7.70265771484375,-0.745452880859375,0.09881591796875,0.1937713623046875
1772896247715626800,7.712626708984375,-0.78076171875,0.0945281982421875,0.2135009765625
1772896247725595000,7.722594970703125,-0.8004913330078125,0.0957794189453125,0.2021636962890625
1772896247735562800,7.732562744140625,-0.8023529052734375,0.1052093505859375,0.17901611328125
1772896247745530600,7.742530517578125,-0.815521240234375,0.1085052490234375,0.147369384765625
1772896247755498800,7.752498779296875,-0.852508544921875,0.1112213134765625,0.12310791015625
1772896247765467600,7.762467529296875,-0.89581298828125,0.115936279296875,0.1020965576171875
1772896247775435800,7.772435791015625,-0.9305572509765625,0.1002655029296875,0.0726165771484375
1772896247785403600,7.782403564453125,-0.9412841796875,0.0782318115234375,0.051422119140625
1772896247795371800,7.792371826171875,-0.9434814453125,0.0653228759765625,0.0634918212890625
1772896247805340000,7.80233984375,-0.943084716796875,0.0514678955078125,0.0853424072265625
1772896247815308800,7.812308837890625,-0.9068145751953125,0.0309600830078125,0.1119842529296875
1772896247825276700,7.822276611328125,-0.841522216796875,-0.0004425048828125,0.1392364501953125
1772896247835244500,7.83224462890625,-0.778106689453125,-0.0259857177734375,0.16180419921875
1772896247845212700,7.842212646484375,-0.742828369140625,-0.03924560546875,0.17437744140625
1772896247855180800,7.852180908203125,-0.7447967529296875,-0.0466766357421875,0.1699066162109375
1772896247865149700,7.862149658203125,-0.7910919189453125,-0.051361083984375,0.14727783203125
1772896247875117800,7.872117919921875,-0.8741912841796875,-0.0414581298828125,0.117095947265625
1772896247885085700,7.882085693359375,-0.9825592041015625,-0.033782958984375,0.08441162109375
1772896247895053600,7.892053466796875,-1.082855224609375,-0.0462646484375,0.070709228515625
1772896247905021700,7.902021728515625,-1.1410064697265625,-0.04022216796875,0.0748291015625
1772896247914990600,7.911990478515625,-1.1610107421875,-0.0052642822265625,0.079620361328125
1772896247924958700,7.921958740234375,-1.155120849609375,0.02972412109375,0.05938720703125
1772896247934926800,7.9319267578125,-1.1433258056640625,0.036865234375,-0.001861572265625
1772896247944894700,7.941894775390625,-1.1703033447265625,0.0089874267578125,0.0042877197265625
1772896247954862600,7.951862548828125,-1.1831817626953125,-0.0467071533203125,0.0963897705078125
1772896247964831700,7.961831787109375,-1.1911468505859375,-0.096282958984375,0.23797607421875
1772896247974799600,7.971799560546875,-1.23590087890625,-0.09332275390625,0.39398193359375
1772896247984767700,7.981767822265625,-1.2660064697265625,-0.02227783203125,0.455810546875
1772896247994735600,7.991735595703125,-1.217010498046875,0.105743408203125,0.3018035888671875
1772896248004703700,8.001703857421875,-1.157562255859375,0.2354888916015625,0.1387481689453125
1772896248014672600,8.011672607421875,-1.1452484130859375,0.288818359375,0.1322174072265625
1772896248024640800,8.021640869140626,-1.1443939208984375,0.227142333984375,0.172637939453125
1772896248034608600,8.031608642578124,-1.1412353515625,0.1236572265625,0.2642364501953125
1772896248044576800,8.04157666015625,-1.1252288818359375,0.0724639892578125,0.30535888671875
1772896248054544600,8.051544677734375,-1.1299285888671875,0.1139678955078125,0.2918853759765625
1772896248064513800,8.061513671875,-1.190216064453125,0.15863037109375,0.295867919921875
1772896248074481700,8.071481689453124,-1.2225799560546875,0.1995697021484375,0.29901123046875
1772896248084449800,8.08144970703125,-1.2030181884765625,0.230438232421875,0.254119873046875
1772896248094418000,8.09141796875,-1.1115264892578125,0.274017333984375,0.161407470703125
1772896248104385500,8.101385498046875,-0.971038818359375,0.2961273193359375,0.0850830078125
1772896248114353700,8.111353759765626,-0.8535003662109375,0.2830047607421875,0.0354766845703125
1772896248124322600,8.121322509765625,-0.805908203125,0.25164794921875,0.0394744873046875
1772896248134290700,8.131290771484375,-0.84521484375,0.2034149169921875,0.0974578857421875
1772896248144258800,8.1412587890625,-0.942901611328125,0.1317291259765625,0.1905517578125
1772896248154226700,8.151226806640626,-1.040802001953125,0.0648345947265625,0.290557861328125
1772896248164194800,8.16119482421875,-1.1005401611328125,0.03509521484375,0.3307647705078125
1772896248174163700,8.171163818359375,-1.1266937255859375,0.0297698974609375,0.2814788818359375
1772896248184131600,8.181131591796875,-1.15899658203125,0.040374755859375,0.2184295654296875
1772896248194099700,8.191099609375,-1.193145751953125,0.0605316162109375,0.163970947265625
1772896248204067600,8.201067626953124,-1.2109375,0.0836029052734375,0.1136932373046875
1772896248214035700,8.21103564453125,-1.1935272216796875,0.0959320068359375,0.07061767578125
1772896248224004900,8.2210048828125,-1.134674072265625,0.091583251953125,0.0567474365234375
1772896248233972700,8.23097265625,-1.041046142578125,0.078582763671875,0.068328857421875
1772896248243940900,8.24094091796875,-0.942626953125,0.071319580078125,0.077392578125
1772896248253908700,8.25090869140625,-0.880706787109375,0.072967529296875,0.0944671630859375
1772896248263876600,8.260876708984375,-0.828033447265625,0.0810699462890625,0.1275634765625
1772896248273845800,8.270845703125,-0.7696685791015625,0.0919647216796875,0.166259765625
1772896248283813600,8.280813720703126,-0.7238616943359375,0.102569580078125,0.179351806640625
1772896248293781800,8.29078173828125,-0.7246856689453125,0.1268463134765625,0.160919189453125
1772896248303749400,8.300749267578125,-0.7427215576171875,0.1492919921875,0.13226318359375
1772896248313717200,8.31071728515625,-0.7654876708984375,0.1717071533203125,0.1042938232421875
1772896248323686400,8.320686279296876,-0.800994873046875,0.1746368408203125,0.0888519287109375
1772896248333654500,8.330654541015624,-0.826629638671875,0.1542816162109375,0.09210205078125
1772896248343622100,8.3406220703125,-0.8563690185546875,0.1197967529296875,0.1217803955078125
1772896248353590300,8.35059033203125,-0.89752197265625,0.0716094970703125,0.1808013916015625
1772896248363558400,8.360558349609375,-0.9232330322265625,0.0337677001953125,0.19952392578125
1772896248373527300,8.37052734375,-0.9351043701171875,-0.001007080078125,0.1932373046875
1772896248383495400,8.380495361328125,-0.9421844482421875,-0.02044677734375,0.1878814697265625
1772896248393463300,8.39046337890625,-0.969696044921875,-0.031463623046875,0.17559814453125
1772896248403431400,8.400431396484375,-1.0039825439453125,-0.0351715087890625,0.1551971435546875
1772896248413399300,8.4103994140625,-1.0172882080078125,-0.031463623046875,0.1316375732421875
1772896248423368200,8.4203681640625,-1.0227813720703125,-0.0314788818359375,0.122589111328125
1772896248433336300,8.43033642578125,-1.0070953369140625,-0.04290771484375,0.1195831298828125
1772896248443304200,8.44030419921875,-0.9728546142578125,-0.056732177734375,0.1276092529296875
1772896248453272300,8.450272216796876,-0.9407806396484375,-0.071441650390625,0.1449127197265625
1772896248463240400,8.460240478515624,-0.9220733642578125,-0.081085205078125,0.1644287109375
1772896248473209300,8.470209228515625,-0.9085235595703125,-0.0824127197265625,0.181396484375
1772896248483177200,8.48017724609375,-0.8913421630859375,-0.0767364501953125,0.1696014404296875
1772896248493145300,8.490145263671875,-0.88079833984375,-0.0602569580078125,0.149749755859375
1772896248503113200,8.50011328125,-0.8949127197265625,-0.032745361328125,0.1267547607421875
1772896248513081300,8.510081298828124,-0.92254638671875,0.0025177001953125,0.107818603515625
1772896248523050200,8.52005029296875,-0.95208740234375,0.0501708984375,0.08856201171875
1772896248533018400,8.530018310546875,-0.9676055908203125,0.0729522705078125,0.0643157958984375
1772896248542986500,8.539986572265626,-0.9738006591796875,0.085357666015625,0.073028564453125
1772896248552954000,8.5499541015625,-0.9769744873046875,0.082916259765625,0.0943450927734375
1772896248562922200,8.559922119140625,-0.964599609375,0.0641021728515625,0.1207733154296875
1772896248572891100,8.56989111328125,-0.95635986328125,0.038665771484375,0.1478424072265625
1772896248582859300,8.579859375,-0.9877777099609375,0.01470947265625,0.174957275390625
1772896248592827400,8.589827392578124,-1.0477294921875,-0.0079193115234375,0.1919708251953125
1772896248602795300,8.599795166015625,-1.11761474609375,-0.0208740234375,0.1871185302734375
1772896248612763400,8.609763427734375,-1.169952392578125,-0.0210418701171875,0.179351806640625
1772896248622732300,8.619732177734376,-1.175689697265625,-0.0025787353515625,0.163330078125
1772896248632700200,8.6297001953125,-1.14727783203125,0.030517578125,0.17156982421875
1772896248642668300,8.639668212890625,-1.10089111328125,0.0619049072265625,0.2120208740234375
1772896248652636400,8.649636474609375,-1.0371246337890625,0.0960540771484375,0.2532806396484375
1772896248662604300,8.659604248046875,-0.96221923828125,0.1347198486328125,0.267822265625
1772896248672573400,8.669573486328124,-0.898284912109375,0.161773681640625,0.2332305908203125
1772896248682541300,8.679541259765625,-0.8655548095703125,0.185394287109375,0.1592559814453125
1772896248692509400,8.689509521484375,-0.87908935546875,0.2096710205078125,0.0651702880859375
1772896248702477300,8.699477294921875,-0.941497802734375,0.234893798828125,-0.0198516845703125
1772896248712445200,8.709445068359376,-1.0469818115234375,0.2747650146484375,-0.052825927734375
1772896248722414300,8.719414306640624,-1.1554107666015625,0.3090362548828125,-0.0454864501953125
1772896248732382200,8.72938232421875,-1.1652679443359375,0.3125457763671875,-0.0079193115234375
1772896248742350300,8.739350341796875,-1.073883056640625,0.28448486328125,0.0671844482421875
1772896248752318500,8.749318359375,-0.9616851806640625,0.226959228515625,0.1589508056640625
1772896248762286000,8.7592861328125,-0.8734588623046875,0.161224365234375,0.282379150390625
1772896248772254200,8.769254150390625,-0.83624267578125,0.0938568115234375,0.4054718017578125
1772896248782223000,8.77922314453125,-0.8408355712890625,0.049407958984375,0.4761505126953125
1772896248792191200,8.789191162109375,-0.9078369140625,0.0488128662109375,0.491119384765625
1772896248802159400,8.799159423828126,-1.033294677734375,0.11199951171875,0.4352264404296875
1772896248812127200,8.809127197265624,-1.193603515625,0.2096405029296875,0.3185272216796875
1772896248822095400,8.819095458984375,-1.2913970947265625,0.155914306640625,0.2836151123046875
1772896248832064500,8.829064453125,-1.29046630859375,0.0549468994140625,0.3540496826171875
1772896248842032000,8.8390322265625,-1.1844024658203125,0.020965576171875,0.3894805908203125
1772896248852000300,8.849000244140624,-1.068084716796875,0.0105133056640625,0.34423828125
1772896248861968400,8.858968505859375,-1.0058135986328125,0.0252227783203125,0.236785888671875
1772896248871936300,8.868936279296875,-1.0207061767578125,0.0557403564453125,0.1593170166015625
1772896248881905400,8.878905517578126,-1.079833984375,0.087677001953125,0.132171630859375
1772896248891873300,8.888873291015624,-1.1154022216796875,0.1168670654296875,0.0973358154296875
1772896248901841400,8.89884130859375,-1.118133544921875,0.1352996826171875,0.0646820068359375
1772896248911809300,8.908809326171875,-1.075897216796875,0.15057373046875,0.0366668701171875
1772896248921777200,8.918777099609375,-1.004913330078125,0.1548309326171875,0.0084686279296875
1772896248931746300,8.928746337890624,-0.935211181640625,0.1372833251953125,-0.006927490234375
1772896248941714200,8.938714111328125,-0.8862152099609375,0.1147308349609375,0.0095367431640625
1772896248951682300,8.948682373046875,-0.844573974609375,0.1007080078125,0.0462646484375
1772896248961650400,8.958650390625,-0.8264007568359375,0.086639404296875,0.0839691162109375
1772896248971618300,8.968618408203126,-0.822845458984375,0.077423095703125,0.1190032958984375
1772896248981587500,8.97858740234375,-0.804534912109375,0.0787200927734375,0.1334381103515625
1772896248991555300,8.988555419921875,-0.7783050537109375,0.078033447265625,0.13043212890625
1772896249001523200,8.998523193359375,-0.7667694091796875,0.0727386474609375,0.127166748046875
1772896249011491300,9.0084912109375,-0.771209716796875,0.0628662109375,0.128875732421875
1772896249021459500,9.01845947265625,-0.79571533203125,0.0500030517578125,0.1364593505859375
1772896249031428400,9.028428466796875,-0.8491058349609375,0.031005859375,0.164306640625
1772896249041396500,9.038396484375,-0.8973236083984375,0.010101318359375,0.190399169921875
1772896249051364000,9.048364013671875,-0.926971435546875,-0.0038299560546875,0.214324951171875
1772896249061332200,9.058332275390624,-0.9424896240234375,-0.02288818359375,0.2263336181640625
1772896249071299300,9.06829931640625,-0.95306396484375,-0.0349884033203125,0.226104736328125
1772896249081268200,9.078268310546875,-0.9591217041015625,-0.0458526611328125,0.2038726806640625
1772896249091236400,9.088236328125,-0.9707489013671875,-0.055511474609375,0.1986846923828125
1772896249101204500,9.09820458984375,-1.003753662109375,-0.068328857421875,0.209686279296875
1772896249111172000,9.108172119140624,-1.035675048828125,-0.0849761962890625,0.2210845947265625
1772896249121140200,9.11814013671875,-1.0383453369140625,-0.097015380859375,0.2222442626953125
1772896249131109000,9.128109130859375,-1.0223541259765625,-0.11590576171875,0.2252655029296875
1772896249141077200,9.1380771484375,-1.019989013671875,-0.1327056884765625,0.24969482421875
1772896249151045400,9.14804541015625,-1.021087646484375,-0.1420745849609375,0.2823028564453125
1772896249161013200,9.15801318359375,-1.000946044921875,-0.1464691162109375,0.2933502197265625
1772896249170981400,9.1679814453125,-0.9719696044921875,-0.138397216796875,0.2844696044921875
1772896249180950500,9.177950439453125,-0.9580535888671875,-0.1189117431640625,0.281219482421875
1772896249190918100,9.187918212890626,-0.976776123046875,-0.1022491455078125,0.28021240234375
1772896249200886300,9.19788623046875,-1.006103515625,-0.084075927734375,0.286407470703125
1772896249210854400,9.2078544921875,-1.040679931640625,-0.0478973388671875,0.2980499267578125
1772896249220822300,9.217822265625,-1.08831787109375,0.02130126953125,0.2821502685546875
1772896249230791400,9.22779150390625,-1.1472625732421875,0.0914764404296875,0.258026123046875
1772896249240759300,9.23775927734375,-1.2274627685546875,0.107818603515625,0.2990264892578125
1772896249250727400,9.2477275390625,-1.311798095703125,0.1014404296875,0.3128814697265625
1772896249260695300,9.2576953125,-1.3479766845703125,0.0887451171875,0.2129669189453125
1772896249270663200,9.2676630859375,-1.3014068603515625,0.14111328125,-0.00738525390625
1772896249280632300,9.27763232421875,-1.2491455078125,0.14166259765625,-0.004791259765625
1772896249290600200,9.28760009765625,-1.17529296875,0.055419921875,0.174224853515625
1772896249300568300,9.297568359375,-1.13897705078125,-0.0107269287109375,0.34234619140625
1772896249310536700,9.30753662109375,-1.142303466796875,-0.0035858154296875,0.3916473388671875
1772896249320504600,9.317504638671876,-1.13360595703125,0.0690765380859375,0.3260040283203125
1772896249330473700,9.3274736328125,-1.1243438720703125,0.1588287353515625,0.18292236328125
1772896249340441300,9.33744140625,-1.110076904296875,0.244720458984375,-0.007293701171875
1772896249350409500,9.347409423828125,-1.0776214599609375,0.313018798828125,-0.163848876953125
1772896249360377600,9.357377685546876,-1.0332794189453125,0.34442138671875,-0.224212646484375
1772896249370345500,9.367345458984374,-0.9615936279296875,0.329986572265625,-0.174102783203125
1772896249380314600,9.377314697265625,-0.883209228515625,0.2587127685546875,-0.0635833740234375
1772896249390282800,9.38728271484375,-0.834228515625,0.1913299560546875,0.0791473388671875
1772896249400250400,9.39725048828125,-0.80517578125,0.15093994140625,0.193511962890625
1772896249410218500,9.407218505859374,-0.79443359375,0.1233673095703125,0.230743408203125
1772896249420186600,9.4171865234375,-0.787567138671875,0.1197509765625,0.213409423828125
1772896249430155500,9.427155517578125,-0.7677764892578125,0.1382598876953125,0.1702728271484375
1772896249440123600,9.43712353515625,-0.75628662109375,0.14862060546875,0.114990234375
1772896249450091500,9.447091552734374,-0.7740020751953125,0.14654541015625,0.0696258544921875
1772896249460059600,9.4570595703125,-0.8301544189453125,0.1407623291015625,0.04803466796875
1772896249470027500,9.467027587890625,-0.9166107177734375,0.13641357421875,0.0444488525390625
1772896249479996400,9.476996337890625,-0.9940643310546875,0.119720458984375,0.0361328125
1772896249489967600,9.486967529296875,-1.031982421875,0.100555419921875,0.022216796875
1772896249499935700,9.496935791015625,-1.036224365234375,0.09210205078125,0.003082275390625
1772896249509903400,9.5069033203125,-1.0261993408203125,0.0874481201171875,-0.02191162109375
1772896249519871500,9.51687158203125,-1.01251220703125,0.0830078125,-0.039093017578125
1772896249529840400,9.52684033203125,-1.0007781982421875,0.0801544189453125,-0.0454864501953125
1772896249539808500,9.53680859375,-0.990142822265625,0.0743255615234375,-0.0434417724609375
1772896249549776600,9.546776611328125,-0.966888427734375,0.0705108642578125,-0.0409393310546875
1772896249559744500,9.55674462890625,-0.944610595703125,0.0506134033203125,-0.024261474609375
1772896249569712600,9.566712646484374,-0.9346160888671875,0.031646728515625,0.015380859375
1772896249579681500,9.576681640625,-0.9071197509765625,0.021209716796875,0.0456390380859375
1772896249589649400,9.5866494140625,-0.8638763427734375,0.016021728515625,0.0553741455078125
1772896249599617500,9.596617431640626,-0.8281402587890625,0.0171356201171875,0.0690460205078125
1772896249609585400,9.60658544921875,-0.800811767578125,0.0184783935546875,0.0809478759765625
1772896249619554600,9.616554443359375,-0.78057861328125,0.0125885009765625,0.1016998291015625
1772896249629522700,9.626522705078125,-0.7883148193359375,0.002410888671875,0.1360015869140625
1772896249639490600,9.636490478515626,-0.8238067626953125,0.0001068115234375,0.15277099609375
1772896249649458700,9.646458740234374,-0.8550567626953125,0.0066986083984375,0.1465911865234375
1772896249659426600,9.656426513671875,-0.8902587890625,0.0110931396484375,0.1236114501953125
1772896249669394400,9.66639453125,-0.9077911376953125,0.001800537109375,0.09942626953125
1772896249679363600,9.676363525390625,-0.921539306640625,-0.0084381103515625,0.0836029052734375
1772896249689331500,9.68633154296875,-0.9491424560546875,-0.02117919921875,0.0692596435546875
1772896249699299600,9.696299560546874,-0.995880126953125,-0.037322998046875,0.0729217529296875
1772896249709267700,9.706267822265625,-1.041748046875,-0.05340576171875,0.1019439697265625
1772896249719235600,9.716235595703125,-1.0354461669921875,-0.0702056884765625,0.1181182861328125
1772896249729204700,9.726204833984376,-0.9890594482421875,-0.082122802734375,0.1274566650390625
1772896249739172400,9.73617236328125,-0.9409942626953125,-0.07794189453125,0.1101837158203125
1772896249749140500,9.746140380859375,-0.91021728515625,-0.064178466796875,0.07818603515625
1772896249759108600,9.756108642578125,-0.9056854248046875,-0.0524444580078125,0.053466796875
1772896249769076500,9.766076416015625,-0.927764892578125,-0.037872314453125,0.0552215576171875
1772896249779045600,9.776045654296874,-0.9660797119140625,-0.021484375,0.063751220703125
1772896249789013500,9.786013427734375,-0.9944000244140625,-0.007476806640625,0.0771331787109375
1772896249798981400,9.7959814453125,-1.0117645263671875,-0.0079193115234375,0.1128387451171875
1772896249808949500,9.805949462890625,-1.01434326171875,-0.0207366943359375,0.1638641357421875
1772896249818918400,9.81591845703125,-1.020172119140625,-0.02130126953125,0.1923370361328125
1772896249828886500,9.825886474609375,-1.042449951171875,-0.030548095703125,0.1929168701171875
1772896249838854700,9.835854736328125,-1.05804443359375,-0.0595703125,0.19073486328125
1772896249848822500,9.845822509765625,-1.0589752197265625,-0.0809326171875,0.181671142578125
1772896249858790700,9.855790771484376,-1.07135009765625,-0.0774993896484375,0.1944732666015625
1772896249868759600,9.865759521484375,-1.1162261962890625,-0.049652099609375,0.240386962890625
1772896249878727400,9.8757275390625,-1.16455078125,-0.0177764892578125,0.2811126708984375
1772896249888695600,9.885695556640625,-1.1813812255859375,0.01446533203125,0.280548095703125
1772896249898663400,9.895663330078126,-1.1776885986328125,0.066741943359375,0.216827392578125
1772896249908631600,9.905631591796874,-1.1990966796875,0.1172027587890625,0.141815185546875
1772896249918600400,9.915600341796875,-1.2764129638671875,0.1511383056640625,0.0961456298828125
1772896249928568600,9.925568603515625,-1.3748931884765625,0.169158935546875,0.0492706298828125
1772896249938536700,9.93553662109375,-1.4506378173828125,0.1837921142578125,0.03607177734375
1772896249948504300,9.94550439453125,-1.46295166015625,0.1872100830078125,0.0807037353515625
1772896249958472400,9.955472412109375,-1.4250946044921875,0.1786041259765625,0.132781982421875
1772896249968441600,9.965441650390625,-1.3432769775390625,0.1915130615234375,0.168853759765625
1772896249978409500,9.975409423828125,-1.229827880859375,0.2256927490234375,0.206787109375
1772896249988377600,9.985377685546876,-1.0923004150390625,0.242706298828125,0.2197723388671875
1772896249998345700,9.995345703125,-0.9566192626953125,0.2494659423828125,0.196868896484375
1772896250008313600,10.005313720703125,-0.837860107421875,0.253814697265625,0.1741485595703125
1772896250018282800,10.01528271484375,-0.7466583251953125,0.244537353515625,0.15692138671875
1772896250028250400,10.02525048828125,-0.6841888427734375,0.215789794921875,0.155487060546875
1772896250038218500,10.035218505859374,-0.687042236328125,0.1755523681640625,0.2021636962890625
1772896250048186600,10.0451865234375,-0.748565673828125,0.10693359375,0.2550811767578125
1772896250058154500,10.055154541015625,-0.82220458984375,0.0500640869140625,0.30767822265625
1772896250068123600,10.06512353515625,-0.8885040283203125,0.03497314453125,0.3539276123046875
1772896250078091500,10.075091552734374,-0.9534759521484375,0.03594970703125,0.3269500732421875
1772896250088059600,10.0850595703125,-1.0048980712890625,0.0622711181640625,0.2593231201171875
1772896250098027500,10.095027587890625,-1.046539306640625,0.08624267578125,0.2059173583984375
1772896250107995400,10.104995361328125,-1.07452392578125,0.1003265380859375,0.163482666015625
1772896250117964500,10.114964599609374,-1.0778961181640625,0.1144561767578125,0.1225433349609375
1772896250127932700,10.1249326171875,-1.0402374267578125,0.1166534423828125,0.1093597412109375
1772896250137900500,10.134900634765625,-0.9791107177734375,0.0959320068359375,0.130523681640625
1772896250147868700,10.14486865234375,-0.9064178466796875,0.0642547607421875,0.1617279052734375
1772896250157836500,10.15483642578125,-0.8544921875,0.053741455078125,0.1766204833984375
1772896250167805400,10.164805419921874,-0.82061767578125,0.0498199462890625,0.18927001953125
1772896250177773600,10.174773681640625,-0.7868804931640625,0.043487548828125,0.1962890625
1772896250187741400,10.184741455078125,-0.74542236328125,0.045806884765625,0.1787109375
1772896250197709600,10.19470947265625,-0.7215728759765625,0.05169677734375,0.14404296875
1772896250207677700,10.204677734375,-0.731109619140625,0.0551910400390625,0.1234893798828125
1772896250217646600,10.214646484375,-0.77935791015625,0.05523681640625,0.1258087158203125
1772896250227614700,10.22461474609375,-0.83856201171875,0.0486297607421875,0.1280670166015625
1772896250237582300,10.234582275390625,-0.8746795654296875,0.026214599609375,0.1434783935546875
1772896250247550500,10.244550537109374,-0.9044647216796875,-0.007781982421875,0.165771484375
1772896250257518600,10.2545185546875,-0.9436187744140625,-0.050750732421875,0.18768310546875
1772896250267487500,10.264487548828125,-0.98516845703125,-0.088897705078125,0.203704833984375
1772896250277455600,10.27445556640625,-1.0237274169921875,-0.11541748046875,0.211761474609375
1772896250287423500,10.284423583984376,-1.05389404296875,-0.1301116943359375,0.2125396728515625
1772896250297391600,10.2943916015625,-1.0669708251953125,-0.14312744140625,0.1826629638671875
1772896250307359500,10.304359375,-1.067840576171875,-0.1434783935546875,0.1436767578125
1772896250317328400,10.314328369140625,-1.073394775390625,-0.138458251953125,0.1355438232421875
1772896250327296500,10.324296630859376,-1.0721588134765625,-0.1421051025390625,0.1538543701171875
1772896250337264600,10.3342646484375,-1.04931640625,-0.13946533203125,0.1769256591796875
1772896250347232300,10.344232177734375,-1.0168609619140625,-0.1311798095703125,0.1953125
1772896250357200400,10.354200439453125,-0.995086669921875,-0.1202392578125,0.227569580078125
1772896250367169300,10.364169189453126,-0.9753875732421875,-0.12164306640625,0.2698974609375
1772896250377137400,10.374137451171874,-0.944000244140625,-0.138916015625,0.3109893798828125
1772896250387105500,10.38410546875,-0.91033935546875,-0.1343536376953125,0.3399658203125
1772896250397073400,10.394073486328125,-0.8834075927734375,-0.112152099609375,0.275543212890625
1772896250407041300,10.404041259765625,-0.90850830078125,-0.0570526123046875,0.1321868896484375
1772896250417010400,10.414010498046874,-0.978057861328125,-0.012725830078125,0.0422821044921875
1772896250426978300,10.423978271484375,-1.0887908935546875,0.0059051513671875,0.03021240234375
1772896250436946400,10.433946533203125,-1.242919921875,0.0258636474609375,0.077178955078125
1772896250446914600,10.44391455078125,-1.3591461181640625,0.030792236328125,0.1106109619140625
1772896250456882400,10.45388232421875,-1.38848876953125,0.0438690185546875,0.11163330078125
1772896250466851600,10.4638515625,-1.3623199462890625,0.0703277587890625,0.105621337890625
1772896250476819500,10.4738193359375,-1.34661865234375,0.0978546142578125,0.1178741455078125
1772896250486787300,10.483787353515625,-1.3351287841796875,0.1179046630859375,0.1505126953125
1772896250496755500,10.49375537109375,-1.3016357421875,0.112030029296875,0.222747802734375
1772896250506723300,10.503723388671874,-1.227203369140625,0.092010498046875,0.3735198974609375
1772896250516692500,10.5136923828125,-1.1318511962890625,0.0576171875,0.48138427734375
1772896250526660400,10.523660400390625,-1.0173492431640625,0.0348968505859375,0.4639434814453125
1772896250536628500,10.53362841796875,-0.945404052734375,0.0436553955078125,0.3509674072265625
1772896250546596600,10.5435966796875,-0.938751220703125,0.0935516357421875,0.189300537109375
1772896250556564200,10.553564208984374,-0.953216552734375,0.164093017578125,0.0307159423828125
1772896250566533400,10.563533447265625,-0.94049072265625,0.210296630859375,-0.095458984375
1772896250576501200,10.573501220703125,-0.9063720703125,0.224517822265625,-0.18218994140625
1772896250586469400,10.583469482421876,-0.872161865234375,0.2386474609375,-0.1989288330078125
1772896250596437500,10.5934375,-0.843963623046875,0.2266387939453125,-0.184722900390625
1772896250606406400,10.603406494140625,-0.8203887939453125,0.189910888671875,-0.14984130859375
1772896250616374500,10.61337451171875,-0.8009796142578125,0.1544189453125,-0.1048431396484375
1772896250626342700,10.6233427734375,-0.7915191650390625,0.1192169189453125,-0.0410919189453125
1772896250636310300,10.633310302734374,-0.8082733154296875,0.0778045654296875,0.044158935546875
1772896250646278400,10.6432783203125,-0.8258209228515625,0.0342254638671875,0.12127685546875
1772896250656247300,10.653247314453125,-0.847320556640625,0.0133514404296875,0.164459228515625
1772896250666215400,10.66321533203125,-0.892547607421875,0.01422119140625,0.157196044921875
1772896250676183600,10.67318359375,-0.925018310546875,0.0230712890625,0.1013946533203125
1772896250686151400,10.6831513671875,-0.9332275390625,0.030487060546875,0.0382537841796875
1772896250696119300,10.693119384765625,-0.9464263916015625,0.02899169921875,0.01116943359375
1772896250706088200,10.703088134765625,-0.9534912109375,0.0166778564453125,-0.0008392333984375
1772896250716056300,10.713056396484374,-0.964599609375,0.0092010498046875,-0.0177154541015625
1772896250726024400,10.7230244140625,-0.9940643310546875,0.0124664306640625,-0.0392608642578125
1772896250735992300,10.732992431640625,-1.0011444091796875,0.0083160400390625,-0.0716552734375
1772896250745960400,10.74296044921875,-0.9974822998046875,0.0070648193359375,-0.0947113037109375
1772896250755929300,10.752929443359376,-0.9942779541015625,0.00634765625,-0.1021728515625
1772896250765897500,10.7628974609375,-0.9825897216796875,0.0167999267578125,-0.09527587890625
1772896250775865300,10.772865234375,-0.9535675048828125,0.0295867919921875,-0.09088134765625
1772896250785833500,10.78283349609375,-0.91741943359375,0.037811279296875,-0.0947723388671875
1772896250795801300,10.79280126953125,-0.8804931640625,0.0525665283203125,-0.1106414794921875
1772896250805770500,10.8027705078125,-0.8923492431640625,0.08990478515625,-0.1142730712890625
1772896250815738400,10.81273828125,-0.9324493408203125,0.1167449951171875,-0.0844573974609375
1772896250825706500,10.82270654296875,-0.9496917724609375,0.1201019287109375,-0.023895263671875
1772896250835674600,10.832674560546875,-0.9232025146484375,0.1077880859375,0.047515869140625
1772896250845642200,10.842642333984376,-0.893646240234375,0.088653564453125,0.1047210693359375
1772896250855611400,10.852611328125,-0.895233154296875,0.0706787109375,0.1416473388671875
1772896250865579300,10.862579345703125,-0.928955078125,0.05596923828125,0.1770477294921875
1772896250875547400,10.87254736328125,-0.9759063720703125,0.0335693359375,0.1843414306640625
1772896250885515500,10.882515625,-0.9911651611328125,0.0059967041015625,0.175079345703125
1772896250895483400,10.8924833984375,-0.9879150390625,-0.0149078369140625,0.1504669189453125
1772896250905452500,10.90245263671875,-0.9784393310546875,-0.01934814453125,0.1008758544921875
1772896250915420400,10.91242041015625,-0.9906463623046875,-0.0176239013671875,0.0820770263671875
1772896250925388300,10.92238818359375,-1.0240631103515625,-0.0309295654296875,0.0899200439453125
1772896250935356400,10.9323564453125,-1.0483856201171875,-0.04632568359375,0.108856201171875
1772896250945324500,10.942324462890625,-1.0274200439453125,-0.059112548828125,0.1092529296875
1772896250955293400,10.95229345703125,-0.980224609375,-0.0662841796875,0.0849151611328125
1772896250965261600,10.962261474609376,-0.9398956298828125,-0.0656280517578125,0.0463409423828125
1772896250975229400,10.9722294921875,-0.921112060546875,-0.065185546875,0.013397216796875
1772896250985197300,10.982197265625,-0.92266845703125,-0.0652313232421875,-0.002471923828125
1772896250995165400,10.99216552734375,-0.9405364990234375,-0.065826416015625,-0.0030517578125
1772896251005134300,11.00213427734375,-0.950347900390625,-0.067108154296875,0.003326416015625
1772896251015102500,11.0121025390625,-0.959686279296875,-0.0722808837890625,0.0176544189453125
1772896251025070300,11.0220703125,-0.9712371826171875,-0.0870513916015625,0.028076171875
1772896251035038500,11.03203857421875,-0.9919891357421875,-0.111724853515625,0.04669189453125
1772896251045006600,11.042006591796875,-1.0129241943359375,-0.1280670166015625,0.049285888671875
1772896251054975500,11.0519755859375,-1.0391693115234375,-0.1375732421875,0.0544281005859375
1772896251064943400,11.061943359375,-1.0827484130859375,-0.1322784423828125,0.0566558837890625
1772896251074911200,11.0719111328125,-1.1402740478515625,-0.1053009033203125,0.0508270263671875
1772896251084879400,11.08187939453125,-1.1929779052734375,-0.047637939453125,0.0475311279296875
1772896251094847500,11.091847412109376,-1.2223052978515625,0.0240631103515625,0.0534515380859375
1772896251104816400,11.10181640625,-1.2134246826171875,0.08135986328125,0.0471954345703125
1772896251114784500,11.111784423828125,-1.179412841796875,0.13800048828125,0.0223541259765625
1772896251124752600,11.121752685546875,-1.142791748046875,0.188720703125,-0.0352325439453125
1772896251134720300,11.13172021484375,-1.1280975341796875,0.2310638427734375,-0.07415771484375
1772896251144688400,11.1416884765625,-1.15899658203125,0.2535858154296875,-0.0863037109375
1772896251154657300,11.1516572265625,-1.2180633544921875,0.2537994384765625,-0.0894317626953125
1772896251164625400,11.16162548828125,-1.267486572265625,0.2498321533203125,-0.0677947998046875
1772896251174593500,11.171593505859375,-1.2977142333984375,0.253143310546875,-0.050933837890625
1772896251184561400,11.1815615234375,-1.2699127197265625,0.23883056640625,-0.0162353515625
1772896251194529500,11.191529541015624,-1.1848602294921875,0.235198974609375,0.036376953125
1772896251204498400,11.20149853515625,-1.1058502197265625,0.225341796875,0.0858154296875
1772896251214466300,11.21146630859375,-1.0359954833984375,0.2024993896484375,0.120452880859375
1772896251224434400,11.221434326171876,-0.946624755859375,0.202362060546875,0.1316986083984375
1772896251234402300,11.23140234375,-0.845794677734375,0.2100982666015625,0.110504150390625
1772896251244370400,11.241370361328125,-0.791717529296875,0.2064056396484375,0.0894012451171875
1772896251254339600,11.251339599609375,-0.7679595947265625,0.2019500732421875,0.09124755859375
1772896251264307500,11.261307373046876,-0.76409912109375,0.198486328125,0.0977783203125
1772896251274275300,11.271275390625,-0.782684326171875,0.200347900390625,0.103179931640625
1772896251284243500,11.281243408203125,-0.823883056640625,0.1975860595703125,0.1149749755859375
1772896251294212400,11.29121240234375,-0.8603973388671875,0.172882080078125,0.127197265625
1772896251304180500,11.301180419921875,-0.8946685791015625,0.13800048828125,0.1577301025390625
1772896251314148400,11.3111484375,-0.937469482421875,0.1006317138671875,0.1898651123046875
1772896251324116500,11.321116455078124,-0.9949951171875,0.077850341796875,0.1861419677734375
1772896251334084600,11.331084716796875,-1.0475921630859375,0.073699951171875,0.1601715087890625
1772896251344053500,11.341053466796875,-1.0981903076171875,0.0751495361328125,0.1323394775390625
1772896251354021400,11.351021484375,-1.15313720703125,0.0688934326171875,0.1220703125
1772896251363989200,11.3609892578125,-1.17962646484375,0.0660552978515625,0.122100830078125
1772896251373957400,11.370957275390625,-1.17681884765625,0.0674591064453125,0.1094970703125
1772896251383925500,11.380925537109375,-1.1371002197265625,0.0706939697265625,0.0931396484375
1772896251393894400,11.390894287109376,-1.063629150390625,0.0770721435546875,0.08953857421875
1772896251403862500,11.400862548828124,-0.9810028076171875,0.071929931640625,0.08514404296875
1772896251413830400,11.410830322265625,-0.915557861328125,0.06414794921875,0.09063720703125
1772896251423798300,11.42079833984375,-0.8753204345703125,0.0640869140625,0.087188720703125
1772896251433766400,11.430766357421875,-0.8599700927734375,0.063140869140625,0.0732574462890625
1772896251443735300,11.4407353515625,-0.8678436279296875,0.0692901611328125,0.06597900390625
1772896251453703400,11.450703369140625,-0.864410400390625,0.06103515625,0.0640411376953125
1772896251463671600,11.460671630859375,-0.8409423828125,0.0421905517578125,0.0768280029296875
1772896251473639400,11.470639404296875,-0.8114471435546875,0.0263824462890625,0.0887603759765625
1772896251483607600,11.480607666015626,-0.7894134521484375,0.016082763671875,0.0873565673828125
1772896251493576400,11.490576416015625,-0.7890167236328125,0.0001220703125,0.0936431884765625
1772896251503544300,11.50054443359375,-0.8076629638671875,-0.0177764892578125,0.105682373046875
1772896251513512400,11.510512451171875,-0.8416290283203125,-0.036285400390625,0.1039276123046875
1772896251523480300,11.520480224609376,-0.882354736328125,-0.0442657470703125,0.10205078125
1772896251533448400,11.530448486328124,-0.9128265380859375,-0.0499114990234375,0.1059417724609375
1772896251543417300,11.540417236328125,-0.92559814453125,-0.0610809326171875,0.1039276123046875
1772896251553385500,11.550385498046875,-0.9294281005859375,-0.063323974609375,0.1011962890625
1772896251563353600,11.560353515625,-0.9272308349609375,-0.066497802734375,0.0952606201171875
1772896251573321200,11.5703212890625,-0.92498779296875,-0.0796966552734375,0.1041412353515625
1772896251583289300,11.580289306640625,-0.9303436279296875,-0.097412109375,0.12957763671875
1772896251593258500,11.590258544921875,-0.9396514892578125,-0.1206512451171875,0.1658172607421875
1772896251603226400,11.600226318359375,-0.947174072265625,-0.1350250244140625,0.2058258056640625
1772896251613194500,11.610194580078126,-0.95343017578125,-0.143585205078125,0.23712158203125
1772896251623162600,11.62016259765625,-0.963226318359375,-0.1473236083984375,0.27203369140625
1772896251633130200,11.630130126953125,-0.9716033935546875,-0.1568603515625,0.30364990234375
1772896251643099400,11.640099365234375,-0.9728851318359375,-0.166778564453125,0.2852783203125
1772896251653067300,11.6500673828125,-0.9792633056640625,-0.17266845703125,0.2330169677734375
1772896251663035400,11.660035400390624,-1.010009765625,-0.1813201904296875,0.1917877197265625
1772896251673003500,11.67000341796875,-1.058197021484375,-0.2072906494140625,0.193115234375
1772896251682971400,11.679971435546875,-1.09912109375,-0.221893310546875,0.2026519775390625
1772896251692940500,11.6899404296875,-1.1338043212890625,-0.20013427734375,0.195159912109375
1772896251702908400,11.699908447265624,-1.17535400390625,-0.1742095947265625,0.181304931640625
1772896251712876300,11.709876220703125,-1.218658447265625,-0.148681640625,0.1610565185546875
1772896251722844400,11.719844482421875,-1.25665283203125,-0.1171722412109375,0.126739501953125
1772896251732813300,11.729813232421876,-1.3062896728515625,-0.0722503662109375,0.088836669921875
1772896251742781400,11.739781494140624,-1.3726348876953125,-0.0191497802734375,0.059051513671875
1772896251752749600,11.74974951171875,-1.4252777099609375,0.0344390869140625,-0.0105743408203125
1772896251762717400,11.759717529296875,-1.449066162109375,0.09991455078125,-0.1167144775390625
1772896251772685600,11.769685546875,-1.4490509033203125,0.187042236328125,-0.1638946533203125
1772896251782654500,11.779654541015624,-1.4605865478515625,0.25946044921875,-0.136138916015625
1772896251792622300,11.789622314453124,-1.405853271484375,0.2769012451171875,-0.0070037841796875
1772896251802590500,11.799590576171875,-1.2524871826171875,0.2047119140625,0.2418060302734375
1772896251812558300,11.809558349609375,-1.0754852294921875,0.0833587646484375,0.4941253662109375
1772896251822526500,11.8195263671875,-0.9006195068359375,-0.04949951171875,0.63189697265625
1772896251832495400,11.829495361328124,-0.775360107421875,-0.13079833984375,0.5744171142578125
1772896251842463500,11.83946337890625,-0.76141357421875,-0.0716400146484375,0.3839263916015625
1772896251852431600,11.849431640625,-0.82354736328125,0.0686187744140625,0.2014007568359375
1772896251862399200,11.859399169921875,-0.9343719482421875,0.18133544921875,0.018829345703125
1772896251872367400,11.869367431640624,-0.984527587890625,0.2584075927734375,-0.152740478515625
1772896251882336300,11.879336181640625,-1.022125244140625,0.3065032958984375,-0.27337646484375
1772896251892304400,11.889304443359375,-1.0404052734375,0.3238677978515625,-0.3508453369140625
1772896251902272500,11.8992724609375,-1.0167236328125,0.3176116943359375,-0.4050140380859375
1772896251912240400,11.909240478515626,-0.9840087890625,0.3096160888671875,-0.376434326171875
1772896251922208300,11.919208251953124,-0.9419708251953125,0.2678985595703125,-0.2595977783203125
1772896251932177400,11.929177490234375,-0.909942626953125,0.1782379150390625,-0.11236572265625
1772896251942145300,11.939145263671875,-0.9192962646484375,0.1101226806640625,0.100616455078125
1772896251952113400,11.949113525390626,-0.945465087890625,0.0818328857421875,0.256744384765625
1772896251962081500,11.95908154296875,-0.91815185546875,0.09271240234375,0.27142333984375
1772896251972049400,11.96904931640625,-0.847564697265625,0.1566009521484375,0.1889190673828125
1772896251982018600,11.9790185546875,-0.772979736328125,0.2081756591796875,0.0781402587890625
1772896251991986400,11.988986328125,-0.739410400390625,0.220489501953125,0.00811767578125
1772896252001954300,11.998954345703124,-0.74993896484375,0.2072906494140625,-0.0323638916015625
1772896252011922400,12.00892236328125,-0.7889862060546875,0.1982269287109375,-0.0426177978515625
1772896252021890300,12.018890380859375,-0.8426513671875,0.189178466796875,-0.023406982421875
1772896252031859500,12.028859375,-0.8931732177734375,0.17852783203125,-0.0007476806640625
1772896252041827300,12.038827392578124,-0.9261474609375,0.174957275390625,0.0041046142578125
1772896252051795500,12.04879541015625,-0.9780426025390625,0.1754913330078125,-0.0056610107421875
1772896252061763600,12.058763671875,-1.0454864501953125,0.180511474609375,-0.0178680419921875
1772896252071731500,12.0687314453125,-1.07659912109375,0.1810302734375,-0.035186767578125
1772896252081700400,12.078700439453126,-1.073272705078125,0.177734375,-0.050811767578125
1772896252091668500,12.08866845703125,-1.0854644775390625,0.1753387451171875,-0.0488433837890625
1772896252101636400,12.09863623046875,-1.1205291748046875,0.170684814453125,-0.0373992919921875
1772896252111604500,12.1086044921875,-1.14227294921875,0.1642913818359375,-0.0018463134765625
1772896252121573400,12.118573486328126,-1.1338348388671875,0.151275634765625,0.041290283203125
1772896252131541500,12.12854150390625,-1.07073974609375,0.13189697265625,0.05950927734375
1772896252141509600,12.138509521484375,-0.982421875,0.1261749267578125,0.0490875244140625
1772896252151477200,12.148477294921875,-0.8892059326171875,0.13055419921875,0.01910400390625
1772896252161445400,12.1584453125,-0.81072998046875,0.1413116455078125,-0.0087890625
1772896252171414300,12.168414306640624,-0.7705841064453125,0.1448211669921875,-0.042266845703125
1772896252181382400,12.17838232421875,-0.759796142578125,0.1518096923828125,-0.0702056884765625
1772896252191350500,12.1883505859375,-0.7796783447265625,0.1611480712890625,-0.0960693359375
1772896252201318400,12.198318359375,-0.80389404296875,0.1637115478515625,-0.1233367919921875
1772896252211286300,12.208286376953126,-0.8056640625,0.17852783203125,-0.1476898193359375
1772896252221255400,12.21825537109375,-0.85675048828125,0.2116546630859375,-0.169189453125
1772896252231223300,12.228223388671875,-0.990142822265625,0.2258148193359375,-0.1747589111328125
1772896252241191400,12.23819140625,-1.1411590576171875,0.2248077392578125,-0.1367645263671875
1772896252251159600,12.24815966796875,-1.2190704345703125,0.211456298828125,-0.1070556640625
1772896252261127400,12.25812744140625,-1.2127532958984375,0.1905364990234375,-0.078765869140625
1772896252271096600,12.2680966796875,-1.1769256591796875,0.178253173828125,-0.053436279296875
1772896252281064400,12.278064453125,-1.1274871826171875,0.164642333984375,-0.0579071044921875
1772896252291032300,12.2880322265625,-1.0874176025390625,0.1608734130859375,-0.076141357421875
1772896252301000400,12.29800048828125,-1.058258056640625,0.1577911376953125,-0.085357666015625
1772896252310968000,12.307968017578125,-1.0344085693359375,0.144927978515625,-0.0998992919921875
1772896252320937200,12.317937255859375,-1.027374267578125,0.1324615478515625,-0.1009521484375
1772896252330905000,12.327905029296875,-1.0360565185546875,0.12725830078125,-0.0789794921875
1772896252340873200,12.337873291015624,-1.06201171875,0.118865966796875,-0.05419921875
1772896252350841300,12.34784130859375,-1.082305908203125,0.1047515869140625,-0.037353515625
1772896252360809000,12.35780908203125,-1.0630340576171875,0.094940185546875,-0.0242767333984375
1772896252370778000,12.367778076171875,-1.0117340087890625,0.099456787109375,-0.042022705078125
1772896252380746200,12.377746337890626,-0.956146240234375,0.1101226806640625,-0.1005401611328125
1772896252390714000,12.387714111328124,-0.9289093017578125,0.11859130859375,-0.1820220947265625
1772896252400682200,12.39768212890625,-0.9372406005859375,0.1094207763671875,-0.223480224609375
1772896252410651100,12.407651123046875,-0.956268310546875,0.0829620361328125,-0.203155517578125
1772896252420619300,12.417619384765626,-0.9636077880859375,0.04052734375,-0.1424407958984375
1772896252430587100,12.427587158203124,-0.97607421875,0.0114288330078125,-0.045745849609375
1772896252440555000,12.437554931640625,-0.9774322509765625,-0.009124755859375,0.039093017578125
1772896252450523100,12.447523193359375,-0.9523773193359375,-0.0084075927734375,0.1148529052734375
1772896252460492000,12.457491943359376,-0.9200286865234375,0.0116119384765625,0.144744873046875
1772896252470460200,12.467460205078124,-0.9125518798828125,0.0226593017578125,0.1303863525390625
1772896252480428300,12.47742822265625,-0.96063232421875,0.0211334228515625,0.0908660888671875
1772896252490396200,12.487396240234375,-1.001617431640625,0.034210205078125,0.06134033203125
1772896252500364000,12.497364013671875,-1.1077423095703125,0.03125,0.0717010498046875
1772896252510333200,12.507333251953124,-1.2181854248046875,0.0606689453125,0.1022796630859375
1772896252520301000,12.517301025390625,-1.2584075927734375,0.1076202392578125,0.10205078125
1772896252530269200,12.527269287109375,-1.20062255859375,0.151458740234375,0.089141845703125
1772896252540237300,12.5372373046875,-1.080657958984375,0.19000244140625,0.07220458984375
1772896252550205200,12.547205078125,-0.951171875,0.204010009765625,0.05523681640625
1772896252560174300,12.55717431640625,-0.857086181640625,0.1881103515625,0.0691986083984375
1772896252570142200,12.56714208984375,-0.7938385009765625,0.1674041748046875,0.1070404052734375
1772896252580110000,12.577110107421875,-0.75799560546875,0.1424407958984375,0.125518798828125
1772896252590078200,12.587078125,-0.7576446533203125,0.1323089599609375,0.1299285888671875
1772896252600046000,12.597046142578124,-0.7963409423828125,0.1352691650390625,0.1042938232421875
1772896252610015200,12.60701513671875,-0.8516082763671875,0.1379547119140625,0.0633087158203125
1772896252619983000,12.616983154296875,-0.8762359619140625,0.1400146484375,0.031494140625
1772896252629951200,12.626951171875,-0.86737060546875,0.1390533447265625,-0.0007476806640625
1772896252639919400,12.63691943359375,-0.8681640625,0.1182861328125,-0.01171875
1772896252649887000,12.646886962890624,-0.91339111328125,0.082672119140625,0.00543212890625
1772896252659856100,12.656856201171875,-0.97808837890625,0.050933837890625,0.0309906005859375
1772896252669824000,12.666823974609375,-1.0330810546875,0.0318603515625,0.05133056640625
1772896252679792000,12.676792236328126,-1.082763671875,0.01025390625,0.0701446533203125
1772896252689760300,12.68676025390625,-1.091888427734375,-0.0099334716796875,0.0865020751953125
1772896252699729200,12.696729248046875,-1.0749359130859375,-0.016845703125,0.0923004150390625
1772896252709697300,12.706697265625,-1.0587158203125,-0.0195159912109375,0.0944671630859375
1772896252719665400,12.71666552734375,-1.056304931640625,-0.0225067138671875,0.0827178955078125
1772896252729633000,12.726633056640624,-1.0691986083984375,-0.0313262939453125,0.06475830078125
1772896252739601200,12.73660107421875,-1.1126861572265625,-0.04559326171875,0.0599822998046875
1772896252749570000,12.746570068359375,-1.16973876953125,-0.0662384033203125,0.074462890625
1772896252759538200,12.7565380859375,-1.202728271484375,-0.085662841796875,0.09075927734375
1772896252769506300,12.76650634765625,-1.188934326171875,-0.09991455078125,0.0947418212890625
1772896252779474200,12.77647412109375,-1.154388427734375,-0.1002044677734375,0.0991363525390625
1772896252789442000,12.786442138671875,-1.11383056640625,-0.092376708984375,0.104888916015625
1772896252799411000,12.796410888671875,-1.0614776611328125,-0.0793914794921875,0.102874755859375
1772896252809379000,12.806379150390624,-1.0137176513671875,-0.0600433349609375,0.0877838134765625
1772896252819347200,12.81634716796875,-0.9972381591796875,-0.0304412841796875,0.0591278076171875
1772896252829315000,12.826315185546875,-1.015472412109375,0.0030517578125,0.0292510986328125
1772896252839283200,12.836283203125,-1.042633056640625,0.0278472900390625,-0.0020294189453125
1772896252849252000,12.846252197265626,-1.047637939453125,0.044921875,-0.013275146484375
1772896252859220200,12.85622021484375,-1.0406646728515625,0.035064697265625,0.0168914794921875
1772896252869188000,12.86618798828125,-1.019683837890625,0.0031890869140625,0.0769805908203125
1772896252879156200,12.87615625,-0.9788665771484375,-0.02911376953125,0.155181884765625
1772896252889124000,12.8861240234375,-0.934417724609375,-0.0489654541015625,0.2178497314453125
1772896252899093200,12.89609326171875,-0.89276123046875,-0.0423736572265625,0.2342376708984375
1772896252909061000,12.90606103515625,-0.86676025390625,-0.0127105712890625,0.210693359375
1772896252919029200,12.916029296875,-0.8688507080078125,0.0111083984375,0.1967010498046875
1772896252928997400,12.925997314453125,-0.8895721435546875,0.01593017578125,0.2192840576171875
