time,seconds_elapsed,z,y,x
1772896240078742300,0.0757421875,0.07030369341373444,-0.00899804849177599,-0.004679922945797443
1772896240088710400,0.08571044921875,0.04793338477611542,-0.013797333464026451,-0.052506111562252045
1772896240098678000,0.095677978515625,0.014920576475560665,-0.03279232978820801,-0.0939536914229393
1772896240108646100,0.105646240234375,-0.012324800714850426,-0.06837215274572372,-0.13548904657363892
1772896240118615000,0.115614990234375,-0.03610336780548096,-0.1181037575006485,-0.17049071192741394
1772896240128583200,0.125583251953125,-0.057466860860586166,-0.15981709957122803,-0.2008790820837021
1772896240138551300,0.13555126953125,-0.06612879782915115,-0.1976957768201828,-0.23328495025634766
1772896240148519200,0.145519287109375,-0.08334789425134659,-0.22993707656860352,-0.2653020918369293
1772896240158487300,0.1554873046875,-0.08187863230705261,-0.24017906188964844,-0.2899928092956543
1772896240168456200,0.165456298828125,-0.08315881341695786,-0.23467618227005005,-0.3060540556907654
1772896240178424000,0.175424072265625,-0.07687881588935852,-0.23876573145389557,-0.3171389400959015
1772896240188392200,0.18539208984375,-0.07498259097337723,-0.22697195410728455,-0.3143288195133209
1772896240198360300,0.1953603515625,-0.07565157860517502,-0.1876564919948578,-0.29981887340545654
1772896240208328200,0.205328125,-0.0806272029876709,-0.16916587948799133,-0.28091752529144287
1772896240218296300,0.21529638671875,-0.08489731699228287,-0.17410977184772491,-0.26091691851615906
1772896240228265200,0.22526513671875,-0.09443581849336624,-0.1806185245513916,-0.24021457135677338
1772896240238233300,0.2352333984375,-0.091213658452034,-0.18476586043834686,-0.23918206989765167
1772896240248201200,0.245201171875,-0.08499495685100555,-0.17180025577545166,-0.2564927637577057
1772896240258169000,0.255169189453125,-0.08660297095775604,-0.07341271638870239,-0.2718626856803894
1772896240268137200,0.26513720703125,-0.09914613515138626,-0.001570473425090313,-0.2487667053937912
1772896240278106000,0.275106201171875,-0.09872668981552124,0.06289426982402802,-0.24149946868419647
1772896240288074200,0.28507421875,-0.10901464521884918,0.09594167768955231,-0.15468266606330872
1772896240298042400,0.29504248046875,-0.22795142233371735,0.21255351603031158,-0.0764688104391098
1772896240308010200,0.30501025390625,-0.2492005079984665,0.24412904679775238,-0.014085089787840843
1772896240317978400,0.314978271484375,-0.28540217876434326,0.2711835503578186,0.03297802433371544
1772896240327947300,0.324947265625,-0.33599141240119934,0.3340863287448883,0.07089589536190033
1772896240337915400,0.334915283203125,-0.3516784906387329,0.35398492217063904,0.09885455667972565
1772896240347883300,0.34488330078125,-0.3277170956134796,0.3499830365180969,0.10229216516017914
1772896240357851400,0.354851318359375,-0.29155853390693665,0.36912691593170166,0.04074198007583618
1772896240367819300,0.3648193359375,-0.27310243248939514,0.4375445544719696,-0.07463276386260986
1772896240377788400,0.374788330078125,-0.2827033996582031,0.5426198244094849,-0.20637241005897522
1772896240387756300,0.38475634765625,-0.3117450177669525,0.6592513918876648,-0.32461854815483093
1772896240397724400,0.394724365234375,-0.33152350783348083,0.7859405875205994,-0.4432424008846283
1772896240407692500,0.404692626953125,-0.2942420244216919,0.9560865163803101,-0.5043339133262634
1772896240417660200,0.41466015625,-0.20258481800556183,1.1209559440612793,-0.43058860301971436
1772896240427629300,0.42462939453125,-0.14215970039367676,1.2207584381103516,-0.2574479579925537
1772896240437597200,0.43459716796875,-0.12319905310869217,1.240063190460205,-0.1449432522058487
1772896240447565300,0.4445654296875,-0.14491823315620422,1.2242032289505005,-0.19907936453819275
1772896240457533400,0.454533447265625,-0.15910755097866058,1.2172396183013916,-0.40061381459236145
1772896240467501300,0.464501220703125,-0.09468753635883331,1.12092125415802,-0.6994174718856812
1772896240477470500,0.474470458984375,0.051346901804208755,0.846777081489563,-1.0091094970703125
1772896240487438300,0.484438232421875,0.184623584151268,0.4877994656562805,-1.2551689147949219
1772896240497406200,0.49440625,0.2916403114795685,0.272957980632782,-1.405989646911621
1772896240507374300,0.504374267578125,0.3641066253185272,0.2586701512336731,-1.4637247323989868
1772896240517342200,0.51434228515625,0.4283561706542969,0.346468985080719,-1.4108625650405884
1772896240527311400,0.524311279296875,0.5243903994560242,0.4274783730506897,-1.2419016361236572
1772896240537279500,0.534279541015625,0.6787344217300415,0.32537248730659485,-0.9872597455978394
1772896240547247400,0.544247314453125,0.8456291556358337,0.017209600657224655,-0.7173998951911926
1772896240557215500,0.554215576171875,0.9343203902244568,-0.3815649449825287,-0.524000883102417
1772896240567183400,0.564183349609375,0.9108479022979736,-0.789831817150116,-0.4219350516796112
1772896240577152300,0.57415234375,0.818995475769043,-1.0801440477371216,-0.33978214859962463
1772896240587120400,0.584120361328125,0.6802411079406738,-1.1930474042892456,-0.23043064773082733
1772896240597088300,0.594088134765625,0.5129096508026123,-1.1444801092147827,-0.13587696850299835
1772896240607056400,0.604056396484375,0.4700537323951721,-1.040297269821167,-0.06591489166021347
1772896240617024500,0.6140244140625,0.6206936240196228,-1.0103849172592163,0.08203888684511185
1772896240626993400,0.623993408203125,0.8543449640274048,-0.9884557127952576,0.3270646035671234
1772896240636961300,0.633961181640625,1.045466423034668,-0.7856919169425964,0.5865893363952637
1772896240646929200,0.64392919921875,1.109872579574585,-0.3761206567287445,0.8331900238990784
1772896240656897300,0.653897216796875,1.0000014305114746,0.09579040855169296,1.0159196853637695
1772896240666865400,0.663865478515625,0.7665945887565613,0.38300061225891113,1.070121169090271
1772896240676834300,0.673834228515625,0.5112901329994202,0.4204856753349304,1.0001705884933472
1772896240686802400,0.683802490234375,0.2889220118522644,0.30727362632751465,0.8567240834236145
1772896240696770300,0.693770263671875,0.086341992020607,0.22255128622055054,0.7304940223693848
1772896240706738200,0.70373828125,-0.04765767604112625,0.26948288083076477,0.6762062907218933
1772896240716706300,0.713706298828125,-0.10245408117771149,0.331598699092865,0.7462769746780396
1772896240726675200,0.72367529296875,-0.11966708302497864,0.28854334354400635,0.7867794632911682
1772896240736643300,0.733643310546875,-0.13773928582668304,-0.08361876010894775,0.7816715240478516
1772896240746611500,0.743611572265625,-0.033731043338775635,-0.40379542112350464,0.8043345808982849
1772896240756579300,0.753579345703125,-0.011874479241669178,-0.8973684310913086,0.7536018490791321
1772896240766547500,0.76354736328125,-0.15105147659778595,-1.185621976852417,0.6081211566925049
1772896240776516400,0.773516357421875,-0.48981836438179016,-1.3729801177978516,0.3559415936470032
1772896240786484200,0.783484130859375,-0.6150994896888733,-1.3938329219818115,0.35010477900505066
1772896240796452400,0.793452392578125,-0.6944124102592468,-1.1338006258010864,0.42877188324928284
1772896240806420200,0.803420166015625,-0.7281383275985718,-0.6390862464904785,0.557083249092102
1772896240816388400,0.813388427734375,-0.8076959848403931,0.03527567908167839,0.7155809998512268
1772896240826357200,0.823357177734375,-0.6279079914093018,0.41136249899864197,0.568555474281311
1772896240836325400,0.833325439453125,0.5258069038391113,0.7016265392303467,0.3996213376522064
1772896240846293500,0.84329345703125,0.7597785592079163,0.42688310146331787,0.14596346020698547
1772896240856261400,0.853261474609375,0.7095145583152771,0.19806219637393951,-0.10624055564403534
1772896240866229200,0.863229248046875,0.5985915064811707,0.17438828945159912,-0.15955014526844025
1772896240876198400,0.873198486328125,0.3710947036743164,0.19274066388607025,0.03097771480679512
1772896240886166300,0.883166259765625,0.07848701626062393,0.2768358588218689,0.286355197429657
1772896240896134400,0.893134521484375,-0.1447218358516693,0.41926994919776917,0.4253282845020294
1772896240906102500,0.9031025390625,-0.28202906250953674,0.5980993509292603,0.43595102429389954
1772896240916070100,0.913070068359375,-0.32017138600349426,0.7083480954170227,0.3520747721195221
1772896240926039600,0.92303955078125,-0.2630627751350403,0.7192113995552063,0.20987217128276825
1772896240936007200,0.933007080078125,-0.13129037618637085,0.6984831690788269,0.03917713463306427
1772896240945975300,0.942975341796875,0.03291784226894379,0.6426489353179932,-0.1445946991443634
1772896240955943400,0.952943359375,0.16438212990760803,0.5539973974227905,-0.3333997428417206
1772896240965911300,0.962911376953125,0.22761864960193634,0.5031552314758301,-0.45368632674217224
1772896240975879400,0.97287939453125,0.21693457663059235,0.5324302911758423,-0.4492622911930084
1772896240985848300,0.982848388671875,0.1513550877571106,0.561504065990448,-0.33834758400917053
1772896240995816200,0.992816162109375,0.07615567743778229,0.49391090869903564,-0.28666868805885315
1772896241005784300,1.002784423828125,0.0008194968104362488,0.3241887092590332,-0.27539318799972534
1772896241015752200,1.012752197265625,-0.028676610440015793,0.24019233882427216,-0.22980117797851562
1772896241025721300,1.022721435546875,-0.04524495080113411,0.19187301397323608,-0.12929993867874146
1772896241035689500,1.032689453125,-0.07510032504796982,0.1294458508491516,-0.007173239253461361
1772896241045657300,1.0426572265625,-0.08154083788394928,0.07361321896314621,0.051769983023405075
1772896241055625500,1.05262548828125,-0.09170559048652649,-0.04239407554268837,0.029394375160336494
1772896241065593300,1.06259326171875,-0.10436689853668213,-0.22633622586727142,-0.03765590116381645
1772896241075561200,1.072561279296875,-0.11195451021194458,-0.4330878257751465,-0.11793982237577438
1772896241085530400,1.0825302734375,-0.11935927718877792,-0.6250471472740173,-0.18265296518802643
1772896241095498200,1.092498291015625,-0.11517863720655441,-0.7819510102272034,-0.220232293009758
1772896241105466400,1.10246630859375,-0.08868253231048584,-0.8758649230003357,-0.2619057595729828
1772896241115434500,1.1124345703125,-0.058379486203193665,-0.9079890251159668,-0.29977670311927795
1772896241125402400,1.12240234375,-0.038529619574546814,-0.8889418840408325,-0.3046143352985382
1772896241135371500,1.13237158203125,-0.031605932861566544,-0.8169838190078735,-0.2800205647945404
1772896241145339100,1.142339111328125,-0.015065047889947891,-0.6956440210342407,-0.233290433883667
1772896241155307300,1.152307373046875,0.023239996284246445,-0.4856463372707367,-0.16607943177223206
1772896241165275400,1.162275390625,0.03633970394730568,-0.42044177651405334,-0.12250415980815887
1772896241175243300,1.1722431640625,0.03774372488260269,-0.3138604760169983,-0.09303228557109833
1772896241185212400,1.18221240234375,0.006736682262271643,-0.089569590985775,-0.07858352363109589
1772896241195180500,1.1921806640625,-0.012259646318852901,0.03743203356862068,-0.06647679209709167
1772896241205148200,1.202148193359375,-0.051043540239334106,0.04016523435711861,-0.06871282309293747
1772896241215116300,1.2121162109375,-0.11300411075353622,0.0738571509718895,-0.07732308655977249
1772896241225084400,1.22208447265625,-0.13873383402824402,0.14020076394081116,-0.06770159304141998
1772896241235053300,1.23205322265625,-0.1563945859670639,0.19117845594882965,-0.0763198509812355
1772896241245021400,1.242021484375,-0.19234474003314972,0.24582412838935852,-0.10103221237659454
1772896241254989300,1.2519892578125,-0.22299720346927643,0.24060994386672974,-0.1492982804775238
1772896241264957400,1.26195751953125,-0.2437288761138916,0.20750471949577332,-0.205444797873497
1772896241274925300,1.27192529296875,-0.261515349149704,0.20093417167663574,-0.2624415159225464
1772896241284894200,1.281894287109375,-0.2829476296901703,0.1675570011138916,-0.3065877854824066
1772896241294862300,1.2918623046875,-0.29450973868370056,0.11787761002779007,-0.3253058195114136
1772896241304831000,1.3018310546875,-0.26709792017936707,0.12630653381347656,-0.31807997822761536
1772896241314799000,1.311799072265625,-0.17315277457237244,0.15413495898246765,-0.261657178401947
1772896241324767000,1.32176708984375,-0.11298808455467224,0.08667920529842377,-0.23798127472400665
1772896241334736000,1.33173583984375,-0.06127322465181351,0.027870487421751022,-0.24979373812675476
1772896241344704000,1.3417041015625,-0.017985563725233078,0.005052270367741585,-0.28691673278808594
1772896241354671900,1.351671875,0.010871117934584618,0.006352957338094711,-0.32412615418434143
1772896241364640000,1.361639892578125,0.04320941120386124,0.003722800873219967,-0.33987635374069214
1772896241374608100,1.371608154296875,0.06545080244541168,0.0062051331624388695,-0.3305020332336426
1772896241384577000,1.381576904296875,0.08530564606189728,0.029124822467565536,-0.33525076508522034
1772896241394545200,1.391545166015625,0.1017133891582489,0.039768945425748825,-0.35458025336265564
1772896241404512800,1.4015126953125,0.1201271265745163,0.014557607471942902,-0.38597503304481506
1772896241414481000,1.41148095703125,0.1498597115278244,-0.08640362322330475,-0.38702884316444397
1772896241424449000,1.421448974609375,0.1829826831817627,-0.1719645857810974,-0.36848005652427673
1772896241434418000,1.43141796875,0.20327410101890564,-0.21529795229434967,-0.3388766348361969
1772896241444386000,1.441385986328125,0.20213432610034943,-0.25023889541625977,-0.3101094663143158
1772896241454354000,1.45135400390625,0.16529056429862976,-0.2694549262523651,-0.2980237603187561
1772896241464321800,1.46132177734375,0.1188640296459198,-0.253691166639328,-0.30544936656951904
1772896241474290000,1.4712900390625,0.05122479796409607,-0.21611660718917847,-0.33422723412513733
1772896241484258800,1.4812587890625,-0.020887088030576706,-0.21729984879493713,-0.36234626173973083
1772896241494227000,1.49122705078125,-0.07773199677467346,-0.2620132565498352,-0.3928360044956207
1772896241504195000,1.501195068359375,-0.1132451742887497,-0.32639995217323303,-0.43090856075286865
1772896241514163000,1.511162841796875,-0.15243493020534515,-0.3945537209510803,-0.47249966859817505
1772896241524131000,1.521131103515625,-0.194088414311409,-0.4721779227256775,-0.49242886900901794
1772896241534100000,1.531099853515625,-0.24025484919548035,-0.48564234375953674,-0.45931699872016907
1772896241544067800,1.54106787109375,-0.30197256803512573,-0.40567612648010254,-0.3538346588611603
1772896241554036000,1.551035888671875,-0.35635751485824585,-0.1836944818496704,-0.23073509335517883
1772896241564003800,1.56100390625,-0.38512489199638367,0.38668644428253174,-0.16501398384571075
1772896241573972000,1.570971923828125,-0.45716819167137146,0.725283145904541,-0.09757048636674881
1772896241583940000,1.580940185546875,-0.6047541499137878,0.6063772439956665,-0.09047076851129532
1772896241593909000,1.590908935546875,-0.7033405303955078,1.3085991144180298,-0.2500440776348114
1772896241603877000,1.600877197265625,-0.6548974514007568,1.6948809623718262,-0.46687430143356323
1772896241613845000,1.610844970703125,-0.5411983132362366,1.8819057941436768,-0.6998410224914551
1772896241623812900,1.620812744140625,-0.370243102312088,1.998744010925293,-0.852281928062439
1772896241633782000,1.630781982421875,-0.3680894076824188,1.3935805559158325,-1.0568923950195312
1772896241643750000,1.64075,-0.5047319531440735,1.1491183042526245,-0.9839532971382141
1772896241653718000,1.650718017578125,-0.9006140232086182,1.2971906661987305,-0.6302348971366882
1772896241663686100,1.66068603515625,-1.127859354019165,1.0674424171447754,-0.4217328429222107
1772896241673654000,1.670654052734375,-1.2284821271896362,1.128746747970581,-0.5041528940200806
1772896241683622000,1.680621826171875,-1.4065738916397095,1.2297409772872925,-0.7157294750213623
1772896241693590800,1.6905908203125,-1.537475347518921,1.2594821453094482,-0.8897790312767029
1772896241703559000,1.700558837890625,-1.5436921119689941,1.2397462129592896,-0.9543595910072327
1772896241713527000,1.710527099609375,-1.4949374198913574,1.2705044746398926,-0.7992054224014282
1772896241723495000,1.720494873046875,-1.3510005474090576,1.472824215888977,-0.4266228973865509
1772896241733464000,1.730464111328125,-1.146386981010437,1.6716371774673462,-0.07568483799695969
1772896241743432000,1.740431884765625,-0.9760904312133789,1.6575011014938354,-0.003463922068476677
1772896241753399800,1.75039990234375,-0.8378885984420776,1.4257595539093018,-0.23447290062904358
1772896241763368000,1.760367919921875,-0.7111855745315552,0.9942274689674377,-0.6241491436958313
1772896241773335800,1.770335693359375,-0.587310254573822,0.47554123401641846,-0.9981288909912109
1772896241783304000,1.780303955078125,-0.46626925468444824,0.016153398901224136,-1.238511085510254
1772896241793273000,1.790273193359375,-0.327401340007782,-0.3472365140914917,-1.350569248199463
1772896241803241000,1.800240966796875,-0.19867581129074097,-0.571649968624115,-1.3272489309310913
1772896241813209000,1.810208984375,-0.0325629897415638,-0.719140350818634,-1.26981782913208
1772896241823177000,1.820177001953125,0.1656021773815155,-0.8969544768333435,-1.2428652048110962
1772896241833144800,1.830144775390625,0.3445884585380554,-1.0337176322937012,-1.2712148427963257
1772896241843114000,1.840114013671875,0.4733920991420746,-1.1103054285049438,-1.3301600217819214
1772896241853081900,1.850081787109375,0.5325760245323181,-1.1285206079483032,-1.364688754081726
1772896241863050000,1.860050048828125,0.5157239437103271,-1.0788004398345947,-1.3092235326766968
1772896241873018000,1.87001806640625,0.40155506134033203,-1.0154579877853394,-1.1522715091705322
1772896241882986000,1.879986083984375,0.25354647636413574,-0.9315977692604065,-0.927259624004364
1772896241892955100,1.889955078125,0.11811888217926025,-0.8157313466072083,-0.635711133480072
1772896241902922800,1.8999228515625,-0.0167163647711277,-0.6710615158081055,-0.302202433347702
1772896241912891000,1.909890869140625,-0.16182509064674377,-0.5082858800888062,-0.005830699577927589
1772896241922859000,1.91985888671875,-0.3031807243824005,-0.36915382742881775,0.1716136485338211
1772896241932827000,1.929826904296875,-0.21845625340938568,-0.4586496353149414,0.18460534512996674
1772896241942796000,1.939796142578125,0.4193352460861206,-0.44375374913215637,0.2495936155319214
1772896241952764200,1.94976416015625,0.8517199158668518,-0.4125545620918274,0.1389286071062088
1772896241962732000,1.95973193359375,1.0316221714019775,-0.4603910744190216,-0.07188093662261963
1772896241972700000,1.969699951171875,0.9754199385643005,-0.42223089933395386,-0.21324844658374786
1772896241982668000,1.97966796875,0.8365694284439087,-0.27936163544654846,-0.15436133742332458
1772896241992637000,1.989636962890625,0.7251350283622742,-0.15451422333717346,0.06413132697343826
1772896242002605000,1.99960498046875,0.6282082200050354,-0.06317606568336487,0.3022131621837616
1772896242012573000,2.009572998046875,0.5054101347923279,-0.016994455829262733,0.4536474347114563
1772896242022541000,2.019541015625,0.4150122404098511,0.04436798766255379,0.526643693447113
1772896242032509000,2.029509033203125,0.3416256308555603,0.0608617402613163,0.5949268937110901
1772896242042476800,2.039476806640625,0.24177122116088867,0.08519051969051361,0.6725016236305237
1772896242052446000,2.049446044921875,0.06899039447307587,0.1311524212360382,0.7564772367477417
1772896242062413800,2.059413818359375,-0.18804337084293365,0.21823564171791077,0.7872229814529419
1772896242072382000,2.0693818359375,-0.4212484061717987,0.2903149127960205,0.7459807395935059
1772896242082350000,2.07935009765625,-0.7030115127563477,0.16814742982387543,0.677872359752655
1772896242092318000,2.08931787109375,-0.8974899053573608,-0.11968808621168137,0.6203632950782776
1772896242102287000,2.099287109375,-1.1128296852111816,-0.597437858581543,0.4436092972755432
1772896242112255000,2.1092548828125,-1.2675691843032837,-1.0543491840362549,0.1759195178747177
1772896242122222800,2.119222900390625,-1.1984248161315918,-1.4789068698883057,-0.11072517186403275
1772896242132191000,2.12919091796875,-0.8602623343467712,-2.0839765071868896,-0.29508063197135925
1772896242142159000,2.1391591796875,-0.4517201781272888,-2.7714672088623047,-0.4682985544204712
1772896242152128000,2.1491279296875,-0.20120353996753693,-3.4718430042266846,-0.7427799105644226
1772896242162096000,2.15909619140625,-0.3297496438026428,-3.746569871902466,-0.9570737481117249
1772896242172064000,2.16906396484375,-0.6072906851768494,-3.592834711074829,-0.8716251254081726
1772896242182032000,2.179031982421875,-0.7875306606292725,-2.9780750274658203,-0.5166513919830322
1772896242192000000,2.189,-0.8473244905471802,-2.0707390308380127,-0.00687548890709877
1772896242201969000,2.198968994140625,-0.7867821455001831,-1.1334989070892334,0.47251707315444946
1772896242211937000,2.20893701171875,-0.21784384548664093,-0.37001800537109375,0.7162088751792908
1772896242221905000,2.21890478515625,1.3054311275482178,-0.07971668243408203,0.6386647820472717
1772896242231873000,2.228873046875,3.0190250873565674,-0.0822346955537796,0.2923095226287842
1772896242241841200,2.238841064453125,3.7489116191864014,-0.1723877638578415,-0.20934942364692688
1772896242251810000,2.24881005859375,3.708057165145874,-0.08832429349422455,-0.7107835412025452
1772896242261778000,2.25877783203125,3.1073484420776367,0.10785560309886932,-0.8441737294197083
1772896242271746000,2.26874609375,2.255948305130005,0.23789431154727936,-0.5210174918174744
1772896242281714000,2.2787138671875,1.519844651222229,0.22590526938438416,0.014414660632610321
1772896242291682000,2.28868212890625,0.9928202033042908,-0.021280819550156593,0.3619422912597656
1772896242301650200,2.298650146484375,0.588028073310852,-0.4462518095970154,0.3912715017795563
1772896242311618300,2.308618408203125,0.2620404064655304,-0.7978487610816956,0.2220771312713623
1772896242321586400,2.31858642578125,-0.04405367374420166,-1.1007918119430542,-0.03864361345767975
1772896242331554300,2.32855419921875,-0.33156001567840576,-1.1564399003982544,-0.2826951742172241
1772896242341522200,2.338522216796875,-0.567892849445343,-0.936047375202179,-0.5439340472221375
1772896242351491300,2.3484912109375,-0.70282381772995,-0.4079003930091858,-0.734947144985199
1772896242361459200,2.358459228515625,-0.7652482986450195,0.15081720054149628,-0.7398560643196106
1772896242371427300,2.36842724609375,-0.783749520778656,0.6804032921791077,-0.5313752889633179
1772896242381395500,2.3783955078125,-0.7802230715751648,1.1183700561523438,-0.11740395426750183
1772896242391363300,2.38836328125,-0.9052534699440002,1.4748159646987915,0.3150625228881836
1772896242401331200,2.398331298828125,-1.0807158946990967,1.82197904586792,0.599440336227417
1772896242411300000,2.408300048828125,-1.2376378774642944,2.1269736289978027,0.7426456809043884
1772896242421268200,2.418268310546875,-1.4206414222717285,2.324361801147461,0.7275536060333252
1772896242431236400,2.428236328125,-1.6107674837112427,2.404602289199829,0.6009548902511597
1772896242441204200,2.438204345703125,-1.7662328481674194,2.382962942123413,0.430076539516449
1772896242451172400,2.44817236328125,-1.8170030117034912,2.348379611968994,0.29179322719573975
1772896242461141200,2.458141357421875,-1.669459342956543,2.205479860305786,0.21823345124721527
1772896242471109400,2.468109375,-1.4255822896957397,1.9383879899978638,0.186651811003685
1772896242481077200,2.4780771484375,-1.2020066976547241,1.6282767057418823,0.21472686529159546
1772896242491045000,2.488045166015625,-1.0702664852142334,1.3106627464294434,0.305694043636322
1772896242501013200,2.49801318359375,-1.0216753482818604,1.0771629810333252,0.38466089963912964
1772896242510982400,2.507982421875,-1.074887990951538,0.8957421779632568,0.34791994094848633
1772896242520950300,2.5179501953125,-1.1215354204177856,0.659087061882019,0.20053468644618988
1772896242530918400,2.52791845703125,-1.0743476152420044,0.245174840092659,0.06081220507621765
1772896242540886500,2.537886474609375,-0.9687727689743042,-0.19549281895160675,-0.06719328463077545
1772896242550854100,2.547854248046875,-0.8491291999816895,-0.43951135873794556,-0.16429081559181213
1772896242560823300,2.5578232421875,-0.6578255295753479,-0.5292367339134216,-0.11360495537519455
1772896242570791200,2.567791259765625,-0.5227345824241638,-0.5907858610153198,-0.00721646286547184
1772896242580759300,2.57775927734375,-0.4911044239997864,-0.5916087627410889,0.04387199506163597
1772896242590727400,2.5877275390625,-0.5644997954368591,-0.486523300409317,-0.016644878312945366
1772896242600695300,2.5976953125,-0.5349013805389404,-0.2654809355735779,-0.13784752786159515
1772896242610664400,2.60766455078125,-0.3694103956222534,-0.010693935677409172,-0.20329764485359192
1772896242620632300,2.61763232421875,-0.17210248112678528,0.1981831043958664,-0.17310650646686554
1772896242630600200,2.62760009765625,-0.033406659960746765,0.38209861516952515,-0.08457718044519424
1772896242640568300,2.637568359375,0.027158964425325394,0.5339300036430359,0.024893134832382202
1772896242650536200,2.6475361328125,-0.010356452316045761,0.5844120979309082,0.1568192094564438
1772896242660505300,2.65750537109375,-0.1216781958937645,0.524383544921875,0.2883024215698242
1772896242670473200,2.66747314453125,-0.275346577167511,0.3654429614543915,0.3832017779350281
1772896242680441300,2.67744140625,-0.3829140067100525,0.19909843802452087,0.4251382052898407
1772896242690409200,2.6874091796875,-0.45639941096305847,0.11478569358587265,0.40255460143089294
1772896242700377300,2.69737744140625,-0.486629843711853,0.027719486504793167,0.30224841833114624
1772896242710345200,2.70734521484375,-0.4341522455215454,-0.08751416206359863,0.17148080468177795
1772896242720314400,2.717314453125,-0.3358473479747772,-0.15916785597801208,0.07545880228281021
1772896242730282200,2.7272822265625,-0.21223434805870056,-0.13145072758197784,0.035942550748586655
1772896242740250400,2.73725048828125,-0.09843176603317261,-0.009586337022483349,0.0019964762032032013
1772896242750218500,2.747218505859375,0.03217737749218941,0.033338762819767,-0.12064529210329056
1772896242760186000,2.75718603515625,0.18613140285015106,0.07853765040636063,-0.25602033734321594
1772896242770155300,2.7671552734375,0.32230761647224426,0.06335709989070892,-0.3424319326877594
1772896242780123100,2.777123046875,0.4152618646621704,-0.0609736330807209,-0.3872905373573303
1772896242790091300,2.78709130859375,0.46995094418525696,-0.23633132874965668,-0.3595459759235382
1772896242800059400,2.797059326171875,0.4963507056236267,-0.4141812026500702,-0.2311273068189621
1772896242810027300,2.80702734375,0.516799807548523,-0.5907166004180908,-0.0659537985920906
1772896242819996400,2.816996337890625,0.553054928779602,-0.7424126267433167,0.1038263589143753
1772896242829964300,2.82696435546875,0.5759738087654114,-0.888153612613678,0.18237948417663574
1772896242839932200,2.83693212890625,0.5582234859466553,-1.0564147233963013,0.1326453536748886
1772896242849900300,2.846900390625,0.49775347113609314,-1.1643528938293457,0.04709611088037491
1772896242859868400,2.856868408203125,0.3694847524166107,-1.1466317176818848,0.0028148507699370384
1772896242869837300,2.86683740234375,0.2122916877269745,-1.0265252590179443,0.011779849417507648
1772896242879805400,2.876805419921875,0.046082958579063416,-0.8409064412117004,0.06785813719034195
1772896242889773300,2.886773193359375,-0.1179983913898468,-0.65286785364151,0.11745152622461319
1772896242899741400,2.896741455078125,-0.25538912415504456,-0.46592244505882263,0.1305689513683319
1772896242909709300,2.906709228515625,-0.3688315153121948,-0.2906334400177002,0.12328706681728363
1772896242919678200,2.91667822265625,-0.46136802434921265,-0.18046940863132477,0.07504672557115555
1772896242929646300,2.926646240234375,-0.5308935642242432,-0.10896620154380798,0.00632571941241622
1772896242939614200,2.9366142578125,-0.5649622678756714,-0.05020780488848686,-0.07495127618312836
1772896242949582300,2.946582275390625,-0.5820237994194031,0.009490148164331913,-0.15810395777225494
1772896242959550500,2.956550537109375,-0.6039689779281616,0.0792202353477478,-0.18454620242118835
1772896242969519400,2.966519287109375,-0.6549570560455322,0.12532354891300201,-0.12954339385032654
1772896242979487200,2.9764873046875,-0.7301426529884338,0.16495190560817719,-0.03275539353489876
1772896242989455000,2.986455078125,-0.8080718517303467,0.19166846573352814,0.04835623502731323
1772896242999423200,2.99642333984375,-0.853251576423645,0.1879858672618866,0.05999300256371498
1772896243009391400,3.006391357421875,-0.8267736434936523,0.10560149699449539,-0.007402552291750908
1772896243019360300,3.0163603515625,-0.7168719172477722,-0.027653736993670464,-0.11588314175605774
1772896243029328400,3.026328369140625,-0.5470802187919617,-0.11975383758544922,-0.20656350255012512
1772896243039296500,3.036296630859375,-0.3605557084083557,-0.12750846147537231,-0.25126999616622925
1772896243049264000,3.04626416015625,-0.18533432483673096,0.012247573584318161,-0.20790866017341614
1772896243059232300,3.056232177734375,-0.061908986419439316,0.2428371012210846,-0.06001421809196472
1772896243069200400,3.066200439453125,0.014315741136670113,0.49788403511047363,0.09496603906154633
1772896243079169300,3.076169189453125,0.055890921503305435,0.7319628596305847,0.2175658792257309
1772896243089137400,3.086137451171875,0.07149837911128998,0.9484858512878418,0.30788302421569824
1772896243099105300,3.096105224609375,0.05792219936847687,1.1885839700698853,0.40228039026260376
1772896243109073400,3.106073486328125,0.01563146524131298,1.4625862836837769,0.5260353684425354
1772896243119041300,3.116041259765625,-0.019898593425750732,1.7449721097946167,0.7005231380462646
1772896243129010200,3.12601025390625,-0.01821361482143402,1.9036738872528076,0.8896225094795227
1772896243138978300,3.135978271484375,-0.0037493081763386726,1.9031295776367188,0.9626360535621643
1772896243148946200,3.1459462890625,0.021771231666207314,1.7409003973007202,0.9166320562362671
1772896243158914300,3.155914306640625,-0.0028619226068258286,1.3563746213912964,0.835329532623291
1772896243168882400,3.16588232421875,-0.19139641523361206,0.8488211035728455,0.7598915100097656
1772896243178851300,3.175851318359375,-0.49142196774482727,0.2617306411266327,0.6582701206207275
1772896243188819500,3.1858193359375,-0.6790224313735962,-0.4483930170536041,0.4542815685272217
1772896243198787300,3.195787353515625,-0.5208508372306824,-1.0533288717269897,0.20891226828098297
1772896243208755200,3.205755126953125,-0.08584722131490707,-1.4467848539352417,0.0057743308134377
1772896243218723300,3.215723388671875,0.4705908000469208,-1.5452549457550049,-0.120638906955719
1772896243228692200,3.225692138671875,0.8099228143692017,-1.3166638612747192,-0.12557853758335114
1772896243238660400,3.235660400390625,0.8043832778930664,-1.0154486894607544,-0.04210866987705231
1772896243248628500,3.24562841796875,0.7145916223526001,-0.8000578284263611,0.057863205671310425
1772896243258596000,3.25559619140625,0.6435270309448242,-0.625443696975708,0.17598561942577362
1772896243268564200,3.265564208984375,0.5348338484764099,-0.4120778739452362,0.2990654706954956
1772896243278532400,3.275532470703125,0.38724568486213684,-0.1955452859401703,0.34533029794692993
1772896243288501200,3.285501220703125,0.22182531654834747,-0.014688423834741116,0.3198968470096588
1772896243298469400,3.295469482421875,0.08100277185440063,0.08691810071468353,0.2605550289154053
1772896243308437200,3.305437255859375,-0.035320378839969635,0.136628657579422,0.20866599678993225
1772896243318405400,3.3154052734375,-0.12961158156394958,0.13773387670516968,0.15333089232444763
1772896243328373500,3.32537353515625,-0.18494273722171783,0.054122328758239746,0.05597318336367607
1772896243338342400,3.33534228515625,-0.19802922010421753,-0.0725698322057724,-0.07077687978744507
1772896243348310500,3.345310546875,-0.15963788330554962,-0.18945276737213135,-0.21024635434150696
1772896243358278400,3.3552783203125,-0.10891411453485489,-0.30011671781539917,-0.34688860177993774
1772896243368246300,3.365246337890625,-0.06879732757806778,-0.3997468948364258,-0.4713660776615143
1772896243378214400,3.37521435546875,-0.029451537877321243,-0.47728270292282104,-0.5449690222740173
1772896243388183300,3.385183349609375,0.016616620123386383,-0.5490679740905762,-0.5606896877288818
1772896243398151400,3.3951513671875,0.0591101311147213,-0.5990605354309082,-0.5411671996116638
1772896243408119600,3.40511962890625,0.08418352156877518,-0.619545042514801,-0.5385591983795166
1772896243418087400,3.41508740234375,0.07814906537532806,-0.5865703225135803,-0.5669324994087219
1772896243428055600,3.4250556640625,0.04443904012441635,-0.46755072474479675,-0.5908128023147583
1772896243438024400,3.4350244140625,-0.02935050055384636,-0.28933995962142944,-0.5673950910568237
1772896243447992300,3.444992431640625,-0.12034618854522705,-0.06073208525776863,-0.49278557300567627
1772896243457960400,3.45496044921875,-0.20363007485866547,0.16843080520629883,-0.36334970593452454
1772896243467928300,3.46492822265625,-0.258715957403183,0.3723413348197937,-0.20845840871334076
1772896243477896400,3.474896484375,-0.2830810844898224,0.5695984363555908,-0.10351704061031342
1772896243487864600,3.484864501953125,-0.2791649103164673,0.6988725662231445,-0.05574578791856766
1772896243497833500,3.49483349609375,-0.25454598665237427,0.7708327770233154,-0.038270559161901474
1772896243507801600,3.504801513671875,-0.18912360072135925,0.7939876317977905,-0.03751954808831215
1772896243517769200,3.514769287109375,-0.10304045677185059,0.7823399901390076,-0.058764971792697906
1772896243527737300,3.5247373046875,-0.01126499567180872,0.7065022587776184,-0.11568550765514374
1772896243537705500,3.53470556640625,0.08538005501031876,0.5906720757484436,-0.20595736801624298
1772896243547674400,3.54467431640625,0.1617286205291748,0.43385449051856995,-0.31151121854782104
1772896243557642500,3.554642578125,0.1967530995607376,0.2266421914100647,-0.42297977209091187
1772896243567610600,3.564610595703125,0.17924068868160248,-0.0067697688937187195,-0.5013840198516846
1772896243577578200,3.574578125,0.1292584240436554,-0.1832827627658844,-0.5345072746276855
1772896243587546400,3.58454638671875,0.07020442932844162,-0.31217440962791443,-0.5120134353637695
1772896243597515300,3.594515380859375,-0.0014997785910964012,-0.41240647435188293,-0.45856377482414246
1772896243607483400,3.6044833984375,-0.06797707080841064,-0.4792739152908325,-0.3954548239707947
1772896243617451500,3.614451416015625,-0.1278415471315384,-0.5111157298088074,-0.33839958906173706
1772896243627419400,3.62441943359375,-0.18123659491539001,-0.48349717259407043,-0.3259924650192261
1772896243637387500,3.634387451171875,-0.2223137617111206,-0.3782554566860199,-0.30853956937789917
1772896243647356400,3.6443564453125,-0.2580520510673523,-0.2575271725654602,-0.254201740026474
1772896243657324300,3.65432421875,-0.2835661470890045,-0.12673665583133698,-0.1753343939781189
1772896243667292400,3.66429248046875,-0.2932280898094177,-0.01827915571630001,-0.08427664637565613
1772896243677260300,3.67426025390625,-0.30460935831069946,0.07732672989368439,-0.009621549397706985
1772896243687228400,3.684228515625,-0.33881261944770813,0.2045866698026657,0.028226498514413834
1772896243697197300,3.694197265625,-0.3861410915851593,0.2733801007270813,0.04816506430506706
1772896243707165400,3.70416552734375,-0.4187677502632141,0.2893276512622833,0.04324939846992493
1772896243717133600,3.714133544921875,-0.43889665603637695,0.2271375209093094,0.007955605164170265
1772896243727101400,3.724101318359375,-0.43518075346946716,0.10736691206693649,-0.050229936838150024
1772896243737069300,3.7340693359375,-0.4040589928627014,-0.006341267842799425,-0.10905972123146057
1772896243747037400,3.744037353515625,-0.32415562868118286,-0.089676633477211,-0.1469929963350296
1772896243757006300,3.75400634765625,-0.18288105726242065,-0.11852028965950012,-0.13175086677074432
1772896243766974500,3.763974365234375,-0.030561286956071854,-0.08416445553302765,-0.08547257632017136
1772896243776942600,3.773942626953125,0.08420663326978683,0.01790522038936615,-0.0691106915473938
1772896243786910500,3.783910400390625,0.13409297168254852,0.10787826031446457,-0.08007785677909851
1772896243796878300,3.79387841796875,0.12698894739151,0.20447960495948792,-0.0890197902917862
1772896243806847200,3.80384716796875,0.09152204543352127,0.28835293650627136,-0.07985212653875351
1772896243816815400,3.8138154296875,0.07151005417108536,0.27283975481987,-0.05429268628358841
1772896243826783500,3.823783447265625,0.07718898355960846,0.10128797590732574,-0.06444811820983887
1772896243836751400,3.83375146484375,0.12646307051181793,-0.14765365421772003,-0.14311940968036652
1772896243846719500,3.843719482421875,0.19755350053310394,-0.46885886788368225,-0.2419746220111847
1772896243856688400,3.8536884765625,0.2723805904388428,-0.762994110584259,-0.3117680549621582
1772896243866656300,3.86365625,0.291337788105011,-0.9792161583900452,-0.3199405074119568
1772896243876624400,3.873624267578125,0.2046644687652588,-1.0167533159255981,-0.270942360162735
1772896243886592500,3.883592529296875,0.03934022784233093,-0.7745010852813721,-0.14188475906848907
1772896243896560400,3.893560302734375,-0.13920719921588898,-0.3513013422489166,0.10310349613428116
1772896243906529500,3.903529541015625,-0.24626652896404266,0.09905305504798889,0.3872295022010803
1772896243916497400,3.913497314453125,-0.26585841178894043,0.4775071442127228,0.6206766366958618
1772896243926465500,3.923465576171875,-0.23476919531822205,0.7484350204467773,0.7581889629364014
1772896243936433400,3.933433349609375,-0.17165739834308624,0.8335824012756348,0.7975621819496155
1772896243946401300,3.9434013671875,-0.09619966894388199,0.7221783995628357,0.7801749110221863
1772896243956370400,3.953370361328125,-0.04419821873307228,0.4850037097930908,0.7051026821136475
1772896243966338300,3.96333837890625,-0.034661173820495605,0.21988868713378906,0.5651394128799438
1772896243976306400,3.973306396484375,-0.05381222069263458,-0.019118335098028183,0.37330058217048645
1772896243986274600,3.983274658203125,-0.08722557127475739,-0.18365241587162018,0.20051388442516327
1772896243996242400,3.993242431640625,-0.11008981615304947,-0.3183348774909973,0.07436177879571915
1772896244006210300,4.003210205078125,-0.1388399600982666,-0.4363504648208618,-0.009886790066957474
1772896244016179200,4.01317919921875,-0.1742679625749588,-0.53623366355896,-0.04008527845144272
1772896244026147300,4.023147216796875,-0.2126646190881729,-0.582038164138794,-0.000836940947920084
1772896244036115500,4.033115478515625,-0.27277496457099915,-0.5639858841896057,0.08050922304391861
1772896244046083300,4.043083251953125,-0.32772985100746155,-0.44378888607025146,0.23049604892730713
1772896244056051500,4.053051513671875,-0.3479471206665039,-0.3185169994831085,0.4391794800758362
1772896244066020600,4.0630205078125,-0.34902888536453247,-0.14178083837032318,0.6338222026824951
1772896244075988500,4.072988525390625,-0.34281569719314575,0.06117837131023407,0.725054919719696
1772896244085956400,4.082956298828125,-0.3170775771141052,0.22771649062633514,0.6813783049583435
1772896244095924500,4.092924560546875,-0.2760394811630249,0.3353143036365509,0.580538272857666
1772896244105892400,4.102892333984375,-0.21533644199371338,0.40789610147476196,0.47351542115211487
1772896244115861500,4.112861572265625,-0.16051000356674194,0.4386084973812103,0.3479742705821991
1772896244125829400,4.122829345703125,-0.1467936635017395,0.4645839035511017,0.21835291385650635
1772896244135797500,4.132797607421875,-0.15812009572982788,0.5019800066947937,0.09242880344390869
1772896244145765400,4.142765380859375,-0.16904981434345245,0.5311011075973511,0.008695908822119236
1772896244155733200,4.152733154296875,-0.13089466094970703,0.47229719161987305,0.0067309229634702206
1772896244165702400,4.162702392578125,-0.07588440924882889,0.3309328854084015,0.048243213444948196
1772896244175670300,4.172670166015625,-0.04203435033559799,0.1779651641845703,0.086013562977314
1772896244185638400,4.182638427734375,0.009807010181248188,0.03488285094499588,0.07004950940608978
1772896244195606500,4.1926064453125,0.0936579704284668,-0.13871930539608002,0.011041314341127872
1772896244205574400,4.202574462890625,0.19987522065639496,-0.2803094685077667,-0.08460211753845215
1772896244215543600,4.21254345703125,0.34389227628707886,-0.36489009857177734,-0.15905123949050903
1772896244225511400,4.222511474609375,0.4947774112224579,-0.37124839425086975,-0.1839030534029007
1772896244235479300,4.232479248046875,0.5742614269256592,-0.25528374314308167,-0.17009179294109344
1772896244245447400,4.242447509765625,0.5866369009017944,-0.11747340857982635,-0.1040123775601387
1772896244255415600,4.25241552734375,0.5863848924636841,0.026357542723417282,0.032055411487817764
1772896244265383400,4.262383544921875,0.5923841595649719,0.18444626033306122,0.23099114000797272
1772896244275352600,4.2723525390625,0.609249472618103,0.32445502281188965,0.42878031730651855
1772896244285320400,4.282320556640625,0.6307204365730286,0.44179999828338623,0.5917468667030334
1772896244295288300,4.292288330078125,0.6082028150558472,0.5609226822853088,0.7041128277778625
1772896244305256400,4.30225634765625,0.5368077158927917,0.6540502309799194,0.7931034564971924
1772896244315224300,4.312224365234375,0.4549669623374939,0.6145099997520447,0.8874550461769104
1772896244325193500,4.322193359375,0.3378533720970154,0.3685724139213562,0.9438442587852478
1772896244335161000,4.3321611328125,0.14251132309436798,-0.09513453394174576,0.8476312756538391
1772896244345129200,4.342129150390625,-0.09988242387771606,-0.7264991998672485,0.5868292450904846
1772896244355097300,4.352097412109375,-0.5846197009086609,-1.09977388381958,0.30453264713287354
1772896244365065200,4.362065185546875,-1.169425368309021,-1.2668521404266357,0.13638785481452942
1772896244375034400,4.372034423828125,-1.2956264019012451,-1.2826409339904785,0.11208964139223099
1772896244385002500,4.38200244140625,-1.0358177423477173,-0.8691213130950928,0.2700318694114685
1772896244394970000,4.39197021484375,-0.4757844805717468,-0.3647646903991699,0.45694810152053833
1772896244404938200,4.401938232421875,0.13121090829372406,-0.024913638830184937,0.4151894748210907
1772896244414906400,4.41190625,0.6201556324958801,0.1353282481431961,0.2028690129518509
1772896244424875300,4.421875244140625,0.8805283308029175,0.11558888107538223,0.055398061871528625
1772896244434843400,4.431843505859375,0.8921735286712646,0.004945754073560238,0.04245730862021446
1772896244444811300,4.441811279296875,0.6727966666221619,-0.2784193754196167,0.10193421691656113
1772896244454779400,4.451779296875,0.2749871015548706,-0.38663801550865173,0.213603213429451
1772896244464747300,4.461747314453125,-0.19468587636947632,-0.2720794975757599,0.40109002590179443
1772896244474715100,4.471715087890625,-0.6263766884803772,0.11694497615098953,0.558713436126709
1772896244484684300,4.481684326171875,-0.9066472053527832,0.5148009657859802,0.6645274758338928
1772896244494652200,4.491652099609375,-1.0378893613815308,0.877784788608551,0.7218215465545654
1772896244504620300,4.501620361328125,-1.0766279697418213,1.1453227996826172,0.7176686525344849
1772896244514588400,4.51158837890625,-1.059555172920227,1.2075105905532837,0.6042598485946655
1772896244524556300,4.521556396484375,-1.0377100706100464,1.0940388441085815,0.40400266647338867
1772896244534525400,4.531525390625,-1.004132866859436,0.8730478286743164,0.1578754037618637
1772896244544493300,4.541493408203125,-0.9747478365898132,0.6149536967277527,-0.08359553664922714
1772896244554461200,4.551461181640625,-0.9365582466125488,0.4106018841266632,-0.27514639496803284
1772896244564429300,4.56142919921875,-0.8656145334243774,0.2848292887210846,-0.3378976583480835
1772896244574397400,4.5713974609375,-0.7648722529411316,0.20456722378730774,-0.30499541759490967
1772896244584366300,4.581366455078125,-0.6643333435058594,0.15060359239578247,-0.2272963523864746
1772896244594334500,4.59133447265625,-0.5859354138374329,0.11235501617193222,-0.18261663615703583
1772896244604302300,4.60130224609375,-0.5320868492126465,0.08839135617017746,-0.20512859523296356
1772896244614270200,4.611270263671875,-0.48436009883880615,0.12099911272525787,-0.25847193598747253
1772896244624238300,4.62123828125,-0.4301764965057373,0.1811295747756958,-0.29027700424194336
1772896244634207200,4.631207275390625,-0.3700065612792969,0.2319895327091217,-0.31822723150253296
1772896244644175400,4.64117529296875,-0.3086409568786621,0.2695595324039459,-0.36145538091659546
1772896244654143200,4.651143310546875,-0.24863635003566742,0.2796204388141632,-0.4133654236793518
1772896244664111400,4.661111328125,-0.17449232935905457,0.2612917423248291,-0.46277692914009094
1772896244674079200,4.671079345703125,-0.10390529781579971,0.23693740367889404,-0.5070489048957825
1772896244684048400,4.68104833984375,-0.060044363141059875,0.15836083889007568,-0.5377985835075378
1772896244694016300,4.691016357421875,-0.06418538838624954,0.051178205758333206,-0.5469295382499695
1772896244703984400,4.700984375,-0.09428789466619492,-0.0795459896326065,-0.5280162692070007
1772896244713952300,4.7109521484375,-0.13833904266357422,-0.21247421205043793,-0.5120330452919006
1772896244723920400,4.72092041015625,-0.1863478422164917,-0.2972993552684784,-0.4882667064666748
1772896244733888500,4.730888427734375,-0.21689866483211517,-0.33818233013153076,-0.47009000182151794
1772896244743857400,4.740857421875,-0.22618217766284943,-0.340070515871048,-0.4526502788066864
1772896244753825300,4.7508251953125,-0.23067601025104523,-0.3249048590660095,-0.44484466314315796
1772896244763793200,4.760793212890625,-0.22922192513942719,-0.28027960658073425,-0.44236525893211365
1772896244773761300,4.77076123046875,-0.20777662098407745,-0.24458074569702148,-0.4051169753074646
1772896244783729400,4.7807294921875,-0.1735568642616272,-0.21058867871761322,-0.3207054138183594
1772896244793698300,4.7906982421875,-0.15738387405872345,-0.1391531378030777,-0.26211419701576233
1772896244803666400,4.80066650390625,-0.1527896523475647,-0.05164431780576706,-0.2529696822166443
1772896244813634300,4.81063427734375,-0.14921344816684723,0.0595964640378952,-0.24768765270709991
1772896244823602200,4.820602294921875,-0.14676813781261444,0.14339841902256012,-0.20162615180015564
1772896244833570300,4.8305703125,-0.15881207585334778,0.20220313966274261,-0.14178143441677094
1772896244843539200,4.840539306640625,-0.19528193771839142,0.22049319744110107,-0.11591734737157822
1772896244853507300,4.85050732421875,-0.25089123845100403,0.20719686150550842,-0.14432495832443237
1772896244863475200,4.86047509765625,-0.2964896261692047,0.163410484790802,-0.22317370772361755
1772896244873443300,4.870443359375,-0.33967912197113037,0.10654638707637787,-0.30017656087875366
1772896244883411500,4.880411376953125,-0.3414437174797058,0.011827332898974419,-0.32590562105178833
1772896244893380400,4.89038037109375,-0.30597984790802,-0.10960720479488373,-0.3390118479728699
1772896244903348200,4.90034814453125,-0.24423980712890625,-0.19562944769859314,-0.3490146994590759
1772896244913316400,4.91031640625,-0.18162071704864502,-0.24092501401901245,-0.37248602509498596
1772896244923284200,4.9202841796875,-0.14277584850788116,-0.23892951011657715,-0.3972576856613159
1772896244933252400,4.93025244140625,-0.12207049131393433,-0.2110949456691742,-0.36088550090789795
1772896244943221200,4.94022119140625,-0.10986655950546265,-0.17536838352680206,-0.2730672359466553
1772896244953189400,4.950189453125,-0.11483850330114365,-0.14191187918186188,-0.15027159452438354
1772896244963157500,4.960157470703125,-0.11307068914175034,-0.1913987398147583,-0.015592079609632492
1772896244973125000,4.970125,-0.09806989133358002,-0.313432514667511,0.08024474233388901
1772896244983093200,4.98009326171875,-0.08629339188337326,-0.46897071599960327,0.079116091132164
1772896244993062100,4.990062255859375,-0.057916685938835144,-0.589576244354248,-0.04928026348352432
1772896245003030300,5.0000302734375,0.0057861292734742165,-0.672902524471283,-0.2582257390022278
1772896245012998400,5.009998291015625,0.08130547404289246,-0.7399388551712036,-0.45253971219062805
1772896245022966300,5.01996630859375,0.09274588525295258,-0.8031601309776306,-0.5198599100112915
1772896245032934100,5.02993408203125,0.002334446646273136,-0.7096182107925415,-0.3420286178588867
1772896245042902300,5.03990234375,-0.23405945301055908,-0.47188153862953186,0.023378407582640648
1772896245052871200,5.04987109375,-0.5086662173271179,-0.17921291291713715,0.4200015664100647
1772896245062839300,5.05983935546875,-0.7445974946022034,0.08028548955917358,0.6838465332984924
1772896245072807400,5.069807373046875,-0.8874343633651733,0.28805413842201233,0.7797117233276367
1772896245082775300,5.079775390625,-0.9159983396530151,0.4529666304588318,0.7439662218093872
1772896245092743400,5.089743408203125,-0.8787242770195007,0.5621463656425476,0.6670107245445251
1772896245102712300,5.09971240234375,-0.8146523833274841,0.5975712537765503,0.6072920560836792
1772896245112680200,5.10968017578125,-0.7193045020103455,0.5360820293426514,0.5735570788383484
1772896245122648300,5.1196484375,-0.6206274032592773,0.43517032265663147,0.5751219391822815
1772896245132616200,5.1296162109375,-0.5496437549591064,0.32810619473457336,0.603524386882782
1772896245142584300,5.139584228515625,-0.5196956992149353,0.2361041158437729,0.6242376565933228
1772896245152553200,5.14955322265625,-0.513620913028717,0.08061359822750092,0.5796653628349304
1772896245162521300,5.159521240234375,-0.5225800275802612,-0.04792067036032677,0.4891737997531891
1772896245172489500,5.169489501953125,-0.5286734700202942,-0.11847474426031113,0.40505677461624146
1772896245182457000,5.17945703125,-0.5176423788070679,-0.1586405485868454,0.34365999698638916
1772896245192425200,5.18942529296875,-0.49787673354148865,-0.16958481073379517,0.2999144494533539
1772896245202394400,5.199394287109375,-0.4713857173919678,-0.12985123693943024,0.2741408944129944
1772896245212362200,5.2093623046875,-0.41204404830932617,-0.06319630891084671,0.2684043347835541
1772896245222330400,5.219330322265625,-0.34458616375923157,0.023660829290747643,0.2872089147567749
1772896245232298500,5.229298583984375,-0.265135258436203,0.10719061642885208,0.28908389806747437
1772896245242266000,5.23926611328125,-0.21105577051639557,0.16366161406040192,0.24693724513053894
1772896245252235500,5.249235595703125,-0.18329845368862152,0.21183685958385468,0.1897653490304947
1772896245262203100,5.259203125,-0.17021194100379944,0.2917500436306,0.17202922701835632
1772896245272171300,5.269171142578125,-0.1690540313720703,0.3281634449958801,0.16579198837280273
1772896245282139400,5.279139404296875,-0.18989112973213196,0.32563185691833496,0.1406421661376953
1772896245292107300,5.289107177734375,-0.23135808110237122,0.30111774802207947,0.13119105994701385
1772896245302076000,5.299075927734375,-0.2786819338798523,0.28077226877212524,0.18532752990722656
1772896245312044800,5.309044921875,-0.3407938480377197,0.23091360926628113,0.1971133053302765
1772896245322013000,5.319012939453125,-0.4026590883731842,0.161661297082901,0.15619836747646332
1772896245331981000,5.32898095703125,-0.43587103486061096,0.11426343023777008,0.06264753639698029
1772896245341949000,5.338948974609375,-0.43915897607803345,0.057788703590631485,-0.037438854575157166
1772896245351917000,5.3489169921875,-0.40609103441238403,-0.008308285847306252,-0.14003096520900726
1772896245361886000,5.358885986328125,-0.33871519565582275,-0.11202242970466614,-0.2493545264005661
1772896245371854000,5.36885400390625,-0.2568509578704834,-0.2642740309238434,-0.38803014159202576
1772896245381822000,5.378822021484375,-0.17089532315731049,-0.3930983245372772,-0.5299899578094482
1772896245391789800,5.388789794921875,-0.0848490372300148,-0.4692780077457428,-0.584779679775238
1772896245401758000,5.398758056640625,0.00890701450407505,-0.4966747462749481,-0.5579893589019775
1772896245411726800,5.408726806640625,0.07300586253404617,-0.46869611740112305,-0.49690431356430054
1772896245421695000,5.418695068359375,0.08262067288160324,-0.36843395233154297,-0.44154730439186096
1772896245431663000,5.4286630859375,0.06042559817433357,-0.17751222848892212,-0.36638712882995605
1772896245441631000,5.438630859375,0.013020001351833344,0.021734310314059258,-0.21305109560489655
1772896245451598800,5.448598876953125,-0.009397460147738457,0.18148458003997803,0.01015542633831501
1772896245461568000,5.458568115234375,0.02097535878419876,0.2535126805305481,0.2546471953392029
1772896245471535900,5.468535888671875,0.06543275713920593,0.19635777175426483,0.41658926010131836
1772896245481504000,5.47850390625,0.10976001620292664,0.09737259894609451,0.45837584137916565
1772896245491474000,5.488473876953125,0.15065617859363556,0.04435813054442406,0.4315977394580841
1772896245501442000,5.498442138671875,0.18305033445358276,0.04023049771785736,0.4097598195075989
1772896245511411000,5.508410888671875,0.20326681435108185,0.08928856998682022,0.4244972765445709
1772896245521379000,5.518379150390625,0.1931590437889099,0.17765119671821594,0.4771926999092102
1772896245531347000,5.528346923828125,0.14936961233615875,0.20566363632678986,0.5081881284713745
1772896245541315000,5.538315185546875,0.027037836611270905,0.13461743295192719,0.5211710333824158
1772896245551283000,5.548282958984375,-0.23776383697986603,0.06803148984909058,0.5422056317329407
1772896245561251800,5.558251953125,-0.41140538454055786,0.056710656732320786,0.6045193076133728
1772896245571220000,5.568219970703125,-0.2909209728240967,-0.015947824344038963,0.6495603322982788
1772896245581187800,5.578187744140625,0.03240887075662613,-0.20809383690357208,0.5766392350196838
1772896245591156000,5.588156005859375,0.42079028487205505,-0.46452590823173523,0.38288965821266174
1772896245601124000,5.5981240234375,0.7651897072792053,-0.7946411967277527,0.14415858685970306
1772896245611092000,5.608092041015625,0.9411852955818176,-1.190406084060669,-0.056048836559057236
1772896245621060900,5.618060791015625,0.8878647685050964,-1.549801230430603,-0.1855335831642151
1772896245631029000,5.628029052734375,0.7251631617546082,-1.713856816291809,-0.20964346826076508
1772896245640996900,5.637996826171875,0.48497796058654785,-1.5178635120391846,-0.09221883863210678
1772896245650965000,5.647965087890625,0.21527068316936493,-1.1515306234359741,0.03273382782936096
1772896245660933000,5.65793310546875,-0.04607676342129707,-0.8514941334724426,0.04865047335624695
1772896245670902000,5.667902099609375,-0.2599948048591614,-0.5691239237785339,0.06546296179294586
1772896245680870100,5.6778701171875,-0.44143542647361755,-0.2804982364177704,0.1509040892124176
1772896245690837800,5.687837646484375,-0.5793904066085815,-0.0773555263876915,0.2035648673772812
1772896245700806000,5.697805908203125,-0.6432753801345825,0.03212063014507294,0.16150076687335968
1772896245710774000,5.70777392578125,-0.6190260052680969,0.040587347000837326,0.046508122235536575
1772896245720743000,5.717742919921875,-0.5494160652160645,-0.0479571670293808,-0.1343170553445816
1772896245730711000,5.7277109375,-0.4517137110233307,-0.11815569549798965,-0.3183079957962036
1772896245740679000,5.737678955078125,-0.34406155347824097,-0.13512775301933289,-0.42918846011161804
1772896245750647000,5.74764697265625,-0.2639996409416199,-0.10801916569471359,-0.4695701599121094
1772896245760615000,5.757614990234375,-0.21298335492610931,-0.04073493182659149,-0.4266780912876129
1772896245770583800,5.767583740234375,-0.18911390006542206,0.05888247489929199,-0.34790951013565063
1772896245780552000,5.777552001953125,-0.16872793436050415,0.10020808130502701,-0.3165009915828705
1772896245790520000,5.78752001953125,-0.13987331092357635,0.08572022616863251,-0.32991155982017517
1772896245800488000,5.797488037109375,-0.09776154160499573,0.0534760057926178,-0.3668259084224701
1772896245810456000,5.8074560546875,-0.034319519996643066,0.02517325058579445,-0.3893173336982727
1772896245820425000,5.817425048828125,0.04040239006280899,0.023350317031145096,-0.3920702636241913
1772896245830393000,5.82739306640625,0.09864842891693115,0.0666184350848198,-0.37713590264320374
1772896245840361000,5.83736083984375,0.12177664786577225,0.12007154524326324,-0.3705970346927643
1772896245850328800,5.847328857421875,0.095187708735466,0.1894434094429016,-0.37321385741233826
1772896245860297000,5.857296875,0.05173850059509277,0.2644992768764496,-0.36186081171035767
1772896245870265900,5.867265869140625,0.01186583936214447,0.3417445421218872,-0.3379923105239868
1772896245880234000,5.87723388671875,-0.000965803861618042,0.4289279282093048,-0.305659681558609
1772896245890202000,5.8872021484375,-0.003126007504761219,0.5041723251342773,-0.24687987565994263
1772896245900169700,5.897169677734375,-0.02007223293185234,0.526236355304718,-0.17566882073879242
1772896245910137900,5.907137939453125,-0.04808098077774048,0.493289053440094,-0.13884271681308746
1772896245920107000,5.91710693359375,-0.07528437674045563,0.42913854122161865,-0.14085926115512848
1772896245930075000,5.927074951171875,-0.07886522263288498,0.3471086919307709,-0.17436859011650085
1772896245940043000,5.93704296875,-0.06319145113229752,0.22473056614398956,-0.21047279238700867
1772896245950011100,5.94701123046875,-0.05140317231416702,0.12037140876054764,-0.2556770443916321
1772896245959979000,5.95697900390625,-0.0496702566742897,0.03981424495577812,-0.32012102007865906
1772896245969948200,5.9669482421875,-0.05578961223363876,-0.03966299816966057,-0.407153457403183
1772896245979915800,5.976915771484375,-0.07885845005512238,-0.1139334961771965,-0.4960747957229614
1772896245989884000,5.9868837890625,-0.1253044456243515,-0.1511237621307373,-0.5155313014984131
1772896245999852000,5.99685205078125,-0.18249396979808807,-0.13461297750473022,-0.46200254559516907
1772896246009820000,6.00681982421875,-0.2323371171951294,-0.07520449906587601,-0.3888200521469116
1772896246019788000,6.0167880859375,-0.25154247879981995,0.0022117309272289276,-0.3425593376159668
1772896246029757000,6.0267568359375,-0.22379139065742493,0.06925256550312042,-0.32070428133010864
1772896246039725000,6.03672509765625,-0.1615980565547943,0.11948192119598389,-0.2551495134830475
1772896246049693000,6.04669287109375,-0.07592464983463287,0.20144762098789215,-0.18057465553283691
1772896246059660800,6.056660888671875,0.007508458103984594,0.2909245193004608,-0.13787832856178284
1772896246069629000,6.06662890625,0.09923535585403442,0.36808666586875916,-0.14552569389343262
1772896246079597800,6.076597900390625,0.17876000702381134,0.4128482937812805,-0.18428373336791992
1772896246089566000,6.08656591796875,0.25303974747657776,0.46056705713272095,-0.19705232977867126
1772896246099534000,6.0965341796875,0.32275038957595825,0.5202199816703796,-0.13800232112407684
1772896246109502000,6.106501953125,0.36718201637268066,0.5648215413093567,-0.038925427943468094
1772896246119469800,6.1164697265625,0.37253257632255554,0.6410127282142639,0.05410837382078171
1772896246129439000,6.12643896484375,0.35032275319099426,0.7349101901054382,0.127726212143898
1772896246139406800,6.13640673828125,0.3099135458469391,0.8058261871337891,0.19676998257637024
1772896246149375000,6.146375,0.28073686361312866,0.8285197615623474,0.28259214758872986
1772896246159343000,6.156343017578125,0.2689683437347412,0.8085526823997498,0.3945559859275818
1772896246169311000,6.16631103515625,0.26375487446784973,0.7236846685409546,0.47843775153160095
1772896246179280100,6.176280029296875,0.2625260651111603,0.5802742838859558,0.5118180513381958
1772896246189247700,6.186247802734375,0.2847076952457428,0.3616125285625458,0.4953230321407318
1772896246199215900,6.1962158203125,0.3406519293785095,0.09756461530923843,0.42823028564453125
1772896246209184000,6.20618408203125,0.41915416717529297,-0.1580948531627655,0.3186147212982178
1772896246219152000,6.21615185546875,0.5062488317489624,-0.3765518069267273,0.18218551576137543
1772896246229121000,6.22612109375,0.6034782528877258,-0.6255469918251038,0.010824883356690407
1772896246239089000,6.2360888671875,0.6894317865371704,-0.8584891557693481,-0.13575096428394318
1772896246249057000,6.24605712890625,0.7203815579414368,-1.030881643295288,-0.18264062702655792
1772896246259025000,6.25602490234375,0.6628516912460327,-1.1084179878234863,-0.1397877037525177
1772896246268993000,6.265992919921875,0.5745794177055359,-1.0749577283859253,-0.012724865227937698
1772896246278962000,6.2759619140625,0.48870739340782166,-0.9415582418441772,0.14426448941230774
1772896246288930000,6.285929931640625,0.4020622670650482,-0.7365244030952454,0.24988999962806702
1772896246298897200,6.295897216796875,0.30225202441215515,-0.46293967962265015,0.2844804525375366
1772896246308865000,6.305864990234375,0.1924220472574234,-0.12912151217460632,0.2982151210308075
1772896246318833200,6.315833251953125,0.042460519820451736,0.2611120045185089,0.3403708338737488
1772896246328802000,6.325802001953125,-0.14047546684741974,0.6333481073379517,0.44495904445648193
1772896246338770200,6.335770263671875,-0.33087098598480225,0.9076228141784668,0.589006245136261
1772896246348738300,6.34573828125,-0.5105715990066528,1.0910382270812988,0.7042652368545532
1772896246358706200,6.3557060546875,-0.6227463483810425,1.158560872077942,0.7540591955184937
1772896246368674300,6.36567431640625,-0.6425306797027588,1.072320818901062,0.7321317791938782
1772896246378642200,6.37564208984375,-0.5805045962333679,0.8694408535957336,0.6462743878364563
1772896246388611000,6.385611083984375,-0.46626827120780945,0.6262912750244141,0.5427722334861755
1772896246398579200,6.3955791015625,-0.33328333497047424,0.3547777831554413,0.41863319277763367
1772896246408547000,6.405547119140625,-0.20509351789951324,0.08763238042593002,0.26985815167427063
1772896246418515200,6.41551513671875,-0.11922921240329742,-0.0900297537446022,0.1178334504365921
1772896246428483300,6.4254833984375,-0.08189307153224945,-0.19963401556015015,-0.023361915722489357
1772896246438452200,6.4354521484375,-0.07654304802417755,-0.30022987723350525,-0.14340417087078094
1772896246448420400,6.44542041015625,-0.09049983322620392,-0.3662576377391815,-0.22697266936302185
1772896246458388000,6.455387939453125,-0.09112700819969177,-0.3933939039707184,-0.25640353560447693
1772896246468356000,6.465356201171875,-0.09610476344823837,-0.3552859425544739,-0.2315787672996521
1772896246478324200,6.47532421875,-0.10834731161594391,-0.2457652986049652,-0.15095023810863495
1772896246488293000,6.485293212890625,-0.11774541437625885,-0.11799295991659164,-0.046194810420274734
1772896246498261200,6.49526123046875,-0.12320196628570557,0.008562318049371243,0.05497228726744652
1772896246508229400,6.5052294921875,-0.12429796159267426,0.09640298038721085,0.12347635626792908
1772896246518197000,6.515197021484375,-0.12329395115375519,0.1562442034482956,0.14877691864967346
1772896246528165000,6.5251650390625,-0.11150126159191132,0.1801966428756714,0.14860311150550842
1772896246538134000,6.535134033203125,-0.10055246949195862,0.1668669879436493,0.11156412959098816
1772896246548102100,6.54510205078125,-0.11401257663965225,0.11995327472686768,0.04559485986828804
1772896246558070300,6.5550703125,-0.14195260405540466,0.08764274418354034,-0.003421151777729392
1772896246568038100,6.5650380859375,-0.17670364677906036,0.05987370014190674,-0.00547068053856492
1772896246578006300,6.57500634765625,-0.2024763822555542,0.027437996119260788,0.002118795644491911
1772896246587975200,6.58497509765625,-0.2212732881307602,0.0010516559705138206,-0.0027142437174916267
1772896246597943000,6.594943115234375,-0.250749409198761,-0.03716683387756348,-0.04290373995900154
1772896246607911200,6.6049111328125,-0.2640329599380493,-0.07146808505058289,-0.12490105628967285
1772896246617879000,6.614879150390625,-0.27856796979904175,-0.07222628593444824,-0.2082958221435547
1772896246627847200,6.62484716796875,-0.29161664843559265,-0.05721747875213623,-0.26993468403816223
1772896246637816000,6.634816162109375,-0.29311707615852356,0.002935074269771576,-0.2303289771080017
1772896246647784200,6.6447841796875,-0.2838165760040283,0.10657861083745956,-0.06091740354895592
1772896246657752300,6.65475244140625,-0.2772068977355957,0.25756120681762695,0.1820012331008911
1772896246667720200,6.66472021484375,-0.2715333104133606,0.4271949827671051,0.38856565952301025
1772896246677688000,6.67468798828125,-0.2534363567829132,0.5664045214653015,0.47811418771743774
1772896246687657200,6.6846572265625,-0.19234633445739746,0.6629750728607178,0.46269142627716064
1772896246697625000,6.694625,-0.08510907739400864,0.6713269948959351,0.377897709608078
1772896246707593200,6.70459326171875,0.06602001190185547,0.6330326199531555,0.2553327679634094
1772896246717561300,6.714561279296875,0.22939135134220123,0.5534594655036926,0.12990106642246246
1772896246727529200,6.724529296875,0.3854247033596039,0.4636501669883728,0.04376477375626564
1772896246737497000,6.7344970703125,0.5126199126243591,0.35268479585647583,0.0383463092148304
1772896246747466000,6.744466064453125,0.6251292824745178,0.2614757716655731,0.11226657032966614
1772896246757434000,6.75443408203125,0.714106559753418,0.19483709335327148,0.21174363791942596
1772896246767402200,6.76440234375,0.7846245765686035,0.11926592141389847,0.2893500328063965
1772896246777370000,6.7743701171875,0.8196941614151001,-0.10725376754999161,0.27061256766319275
1772896246787338200,6.784338134765625,0.8179572820663452,-0.5941323637962341,0.1472509652376175
1772896246797307100,6.79430712890625,0.7327747344970703,-1.2937164306640625,-0.06656810641288757
1772896246807275000,6.80427490234375,0.6105947494506836,-1.980086326599121,-0.26489153504371643
1772896246817243100,6.8142431640625,0.5554648637771606,-2.3828887939453125,-0.35019177198410034
1772896246827211300,6.824211181640625,0.512102484703064,-2.2608323097229004,-0.31486475467681885
1772896246837179100,6.83417919921875,0.45057839155197144,-1.8574589490890503,-0.23526792228221893
1772896246847148300,6.844148193359375,0.49521753191947937,-1.5532487630844116,-0.12358410656452179
1772896246857116200,6.8541162109375,0.665715217590332,-1.2625439167022705,0.054192010313272476
1772896246867084300,6.864084228515625,0.9699317812919617,-0.817560613155365,0.32924798130989075
1772896246877052200,6.87405224609375,1.3253780603408813,-0.20150966942310333,0.5416644215583801
1772896246887020000,6.88402001953125,1.5785915851593018,0.31226256489753723,0.5345960259437561
1772896246896989200,6.8939892578125,1.623162865638733,0.4996923506259918,0.3059583306312561
1772896246906957000,6.90395703125,1.4512922763824463,0.4902828633785248,-0.02411874756217003
1772896246916925200,6.91392529296875,1.099912405014038,0.25333133339881897,-0.28625553846359253
1772896246926893300,6.923893310546875,0.7026828527450562,-0.011569317430257797,-0.39581790566444397
1772896246936861200,6.933861083984375,0.3619292676448822,-0.10563882440328598,-0.3220997452735901
1772896246946830300,6.943830322265625,0.16344749927520752,-0.04032135009765625,-0.1332053393125534
1772896246956798000,6.9537978515625,0.11485333740711212,0.03850023075938225,0.009936384856700897
1772896246966766000,6.96376611328125,0.13504737615585327,0.08253107964992523,0.0029477719217538834
1772896246976734200,6.973734130859375,0.1774374395608902,0.04240123927593231,-0.13439783453941345
1772896246986702000,6.9837021484375,0.24266935884952545,-0.03345036506652832,-0.3342367112636566
1772896246996671200,6.993671142578125,0.2976516783237457,-0.14529673755168915,-0.48938634991645813
1772896247006639400,7.003639404296875,0.360343337059021,-0.2821107804775238,-0.574324369430542
1772896247016607200,7.013607177734375,0.43158289790153503,-0.389420747756958,-0.5959766507148743
1772896247026575000,7.0235751953125,0.4933059513568878,-0.41466429829597473,-0.5764307975769043
1772896247036543200,7.033543212890625,0.5107997059822083,-0.2940364181995392,-0.5066291093826294
1772896247046512000,7.04351220703125,0.452688068151474,-0.13922208547592163,-0.42062315344810486
1772896247056480300,7.053480224609375,0.35516923666000366,0.037573713809251785,-0.3410303294658661
1772896247066448100,7.0634482421875,0.24194249510765076,0.2175709307193756,-0.26238203048706055
1772896247076416300,7.073416259765625,0.14295893907546997,0.3904455006122589,-0.18084801733493805
1772896247086384000,7.083384033203125,0.09360621869564056,0.5429061055183411,-0.11492148786783218
1772896247096352000,7.09335205078125,0.07474358379840851,0.6388073563575745,-0.08717507869005203
1772896247106321200,7.103321044921875,0.07072943449020386,0.6611957550048828,-0.10053763538599014
1772896247116289000,7.1132890625,0.12376975268125534,0.6171068549156189,-0.16106462478637695
1772896247126257200,7.123257080078125,0.23010115325450897,0.5261437296867371,-0.24256737530231476
1772896247136225300,7.133225341796875,0.3719477653503418,0.4159282147884369,-0.3108297884464264
1772896247146193200,7.143193115234375,0.5271125435829163,0.29682523012161255,-0.33947324752807617
1772896247156162300,7.153162353515625,0.6263560652732849,0.20542584359645844,-0.33921170234680176
1772896247166130200,7.163130126953125,0.653354287147522,0.14047615230083466,-0.3567464351654053
1772896247176098000,7.17309814453125,0.6290148496627808,0.04647694528102875,-0.40744608640670776
1772896247186066200,7.183066162109375,0.5720645189285278,-0.07328276336193085,-0.4606676995754242
1772896247196034300,7.193034423828125,0.5133500695228577,-0.16666916012763977,-0.495164692401886
1772896247206003200,7.203003173828125,0.47074246406555176,-0.21098414063453674,-0.4942272901535034
1772896247215971300,7.212971435546875,0.4290280342102051,-0.24798370897769928,-0.46552029252052307
1772896247225939200,7.222939208984375,0.3873036205768585,-0.28193262219429016,-0.42443084716796875
1772896247235907000,7.232906982421875,0.39495140314102173,-0.29456478357315063,-0.3736851215362549
1772896247245875200,7.242875244140625,0.43725764751434326,-0.27712002396583557,-0.3117571473121643
1772896247255844000,7.252843994140625,0.5120943188667297,-0.21058334410190582,-0.24602074921131134
1772896247265812200,7.262812255859375,0.6005647778511047,-0.1189972311258316,-0.19397060573101044
1772896247275780000,7.272780029296875,0.6796625256538391,-0.019952943548560143,-0.14724890887737274
1772896247285748200,7.282748291015625,0.7222829461097717,0.08110495656728745,-0.09475546330213547
1772896247295716400,7.29271630859375,0.7156420946121216,0.1837434619665146,-0.025102343410253525
1772896247305685800,7.302685791015625,0.6766200065612793,0.24045546352863312,0.06867213547229767
1772896247315654000,7.31265380859375,0.6221876740455627,0.22543656826019287,0.17777252197265625
1772896247325621500,7.32262158203125,0.5705780982971191,0.16107916831970215,0.29177671670913696
1772896247335589600,7.332589599609375,0.5410332679748535,0.07285848259925842,0.3928479552268982
1772896247345557800,7.342557861328125,0.5382975935935974,-0.019919926300644875,0.4554590880870819
1772896247355526700,7.352526611328125,0.5230520963668823,-0.09214325249195099,0.4666464924812317
1772896247365494800,7.362494873046875,0.47689178586006165,-0.1247643232345581,0.4875521957874298
1772896247375462700,7.372462646484375,0.4162540137767792,-0.12240636348724365,0.4919480085372925
1772896247385430800,7.3824306640625,0.3410661518573761,-0.0785406231880188,0.4773986041545868
1772896247395398700,7.392398681640625,0.30955269932746887,0.10482840240001678,0.4681614339351654
1772896247405367600,7.402367431640625,0.38457536697387695,0.4415256977081299,0.45818933844566345
1772896247415335700,7.412335693359375,0.49578845500946045,0.8436251878738403,0.38409727811813354
1772896247425303800,7.4223037109375,0.5127707123756409,1.0878264904022217,0.1580677330493927
1772896247435271700,7.432271728515625,0.49703270196914673,1.021307349205017,-0.1484365463256836
1772896247445239800,7.44223974609375,0.5344579219818115,0.6777888536453247,-0.44983547925949097
1772896247455208700,7.452208740234375,0.6479842066764832,0.20583517849445343,-0.5996228456497192
1772896247465176800,7.4621767578125,0.7088092565536499,-0.13400468230247498,-0.5285080075263977
1772896247475144700,7.472144775390625,0.6628611087799072,-0.3152881860733032,-0.27848437428474426
1772896247485112600,7.482112548828125,0.549996554851532,-0.37727591395378113,0.020230580121278763
1772896247495080700,7.492080810546875,0.46322038769721985,-0.2980111837387085,0.18910428881645203
1772896247505048800,7.502048828125,0.5150566697120667,-0.19760334491729736,0.1649532914161682
1772896247515017700,7.512017822265625,0.6954988837242126,-0.1771225929260254,-0.03470948711037636
1772896247524985900,7.52198583984375,0.9387686848640442,-0.23490598797798157,-0.33591046929359436
1772896247534953700,7.53195361328125,1.136406660079956,-0.3728036880493164,-0.5906128287315369
1772896247544921600,7.541921630859375,1.2740349769592285,-0.5213026404380798,-0.7148029804229736
1772896247554889700,7.5518896484375,1.3711090087890625,-0.7045565843582153,-0.7282905578613281
1772896247564858600,7.561858642578125,1.4297455549240112,-0.8112971782684326,-0.670563817024231
1772896247574826800,7.57182666015625,1.4630484580993652,-0.8062108159065247,-0.5902628302574158
1772896247584795000,7.581794921875,1.4810110330581665,-0.7985861897468567,-0.507560133934021
1772896247594762800,7.5917626953125,1.499182105064392,-0.7649440765380859,-0.42626821994781494
1772896247604730600,7.601730712890625,1.4999027252197266,-0.7070492506027222,-0.3337337076663971
1772896247614699500,7.611699462890625,1.4912620782852173,-0.5921027064323425,-0.21752001345157623
1772896247624667600,7.621667724609375,1.4752073287963867,-0.44186046719551086,-0.07942112535238266
1772896247634635800,7.6316357421875,1.4280024766921997,-0.3079306483268738,0.041977204382419586
1772896247644603600,7.641603759765625,1.3352129459381104,-0.16355246305465698,0.1470787078142166
1772896247654571800,7.65157177734375,1.1891367435455322,-0.04282976686954498,0.2512253522872925
1772896247664540700,7.661540771484375,1.0094921588897705,0.035450659692287445,0.3010444641113281
1772896247674508800,7.6715087890625,0.8511333465576172,0.05994614586234093,0.2555627226829529
1772896247684476700,7.6814765625,0.7446802258491516,0.03827867656946182,0.1680256575345993
1772896247694444500,7.691444580078125,0.7209887504577637,-0.04126674681901932,0.07732078433036804
1772896247704412700,7.70141259765625,0.7736356258392334,-0.16487658023834229,-0.018017351627349854
1772896247714381600,7.711381591796875,0.8478512763977051,-0.29754993319511414,-0.1038784608244896
1772896247724349700,7.721349609375,0.9128144383430481,-0.39632338285446167,-0.18549896776676178
1772896247734317800,7.73131787109375,0.9642818570137024,-0.4100397229194641,-0.2593388259410858
1772896247744285700,7.74128564453125,0.9810391664505005,-0.3680877387523651,-0.311962366104126
1772896247754253600,7.751253662109375,0.9655361175537109,-0.3150482177734375,-0.3433956503868103
1772896247764222700,7.76122265625,0.9381793141365051,-0.22893866896629333,-0.3317669630050659
1772896247774190600,7.771190673828125,0.8922216892242432,-0.0733831524848938,-0.26692140102386475
1772896247784158700,7.78115869140625,0.8573102951049805,0.13610190153121948,-0.18945924937725067
1772896247794126800,7.791126953125,0.8492646217346191,0.32715946435928345,-0.07369856536388397
1772896247804094700,7.8010947265625,0.8668628334999084,0.46797969937324524,0.07646884024143219
1772896247814063900,7.81106396484375,0.9003158807754517,0.5737975239753723,0.1685604304075241
1772896247824031700,7.82103173828125,0.948674738407135,0.6560459733009338,0.1786186248064041
1772896247833999600,7.83099951171875,1.0004348754882812,0.7019628882408142,0.11244972795248032
1772896247843967700,7.8409677734375,1.0374928712844849,0.7118110656738281,0.0017833043821156025
1772896247853935600,7.850935546875,1.073939561843872,0.68724524974823,-0.11919824779033661
1772896247863904800,7.86090478515625,1.0845352411270142,0.6020589470863342,-0.2175932675600052
1772896247873872600,7.87087255859375,1.0649263858795166,0.3789542317390442,-0.3160034418106079
1772896247883840800,7.8808408203125,1.0271761417388916,0.09256161749362946,-0.3802843987941742
1772896247893808600,7.89080859375,0.972020149230957,-0.14336729049682617,-0.3711542785167694
1772896247903776800,7.90077685546875,0.8863973021507263,-0.25064393877983093,-0.28848233819007874
1772896247913745700,7.91074560546875,0.784743070602417,-0.27198731899261475,-0.17483726143836975
1772896247923713800,7.9207138671875,0.7001177668571472,-0.2581990659236908,-0.10598886013031006
1772896247933681700,7.930681640625,0.6381587386131287,-0.22211696207523346,-0.0939236730337143
1772896247943649800,7.94064990234375,0.6330614686012268,-0.21659623086452484,-0.07508189231157303
1772896247953618000,7.950617919921875,0.7170751690864563,-0.28073394298553467,-0.06537146866321564
1772896247963586800,7.9605869140625,0.8714354634284973,-0.54124915599823,-0.09598061442375183
1772896247973554700,7.9705546875,1.0603365898132324,-1.1302306652069092,-0.21340951323509216
1772896247983522600,7.9805224609375,1.1840490102767944,-1.9034650325775146,-0.42281726002693176
1772896247993490700,7.99049072265625,1.1050399541854858,-2.471127986907959,-0.6195735335350037
1772896248003458800,8.000458740234375,0.8802422285079956,-2.636615753173828,-0.7218672037124634
1772896248013427700,8.010427734375,0.6780164241790771,-2.268486738204956,-0.6082697510719299
1772896248023395800,8.020395751953124,0.6084891557693481,-1.3869255781173706,-0.32297757267951965
1772896248033363700,8.03036376953125,0.7020305395126343,-0.14841876924037933,0.022461576387286186
1772896248043331600,8.04033154296875,0.8345390558242798,0.8798407912254333,0.24882036447525024
1772896248053299700,8.0502998046875,0.9441241025924683,1.4157090187072754,0.3408442735671997
1772896248063268600,8.0602685546875,1.0413600206375122,1.6013550758361816,0.4198525846004486
1772896248073236700,8.07023681640625,1.1179882287979126,1.5578787326812744,0.48331916332244873
1772896248083204900,8.080204833984375,1.1489670276641846,1.328711748123169,0.5525192022323608
1772896248093172700,8.0901728515625,1.13255774974823,0.981547474861145,0.542197048664093
1772896248103140900,8.100140869140626,1.098384976387024,0.6208786964416504,0.4068915545940399
1772896248113108700,8.110108642578124,1.0425879955291748,0.34181803464889526,0.17194189131259918
1772896248123077600,8.12007763671875,0.9895502328872681,0.10142436623573303,-0.061016302555799484
1772896248133045800,8.130045654296875,0.980207622051239,-0.050564367324113846,-0.2225721776485443
1772896248143013600,8.140013671875,1.0683218240737915,-0.07770651578903198,-0.2708916664123535
1772896248152981800,8.149981689453124,1.2632898092269897,-0.06441840529441833,-0.24556581676006317
1772896248162950000,8.159949951171875,1.4964022636413574,-0.050918858498334885,-0.23800896108150482
1772896248172918800,8.169918701171875,1.6766846179962158,-0.04503833130002022,-0.2551461458206177
1772896248182886700,8.17988671875,1.791198492050171,-0.05089700222015381,-0.2746340334415436
1772896248192854500,8.1898544921875,1.8289817571640015,-0.06291931122541428,-0.25955891609191895
1772896248202822700,8.19982275390625,1.7794249057769775,-0.031377363950014114,-0.1777319312095642
1772896248212790800,8.209790771484375,1.6681973934173584,0.05878236144781113,-0.04759496822953224
1772896248222759700,8.219759765625,1.542155385017395,0.17297258973121643,0.07274061441421509
1772896248232727800,8.229727783203124,1.4295731782913208,0.2683299779891968,0.13143083453178406
1772896248242696000,8.239696044921875,1.3318411111831665,0.31853508949279785,0.12138064205646515
1772896248252663600,8.24966357421875,1.2598564624786377,0.3144551217556,0.08001057058572769
1772896248262631700,8.259631591796875,1.183629035949707,0.24560761451721191,0.0232278760522604
1772896248272600600,8.2696005859375,1.1137290000915527,0.1890908181667328,-0.07363821566104889
1772896248282568700,8.279568603515624,1.0306198596954346,0.15930470824241638,-0.1845858246088028
1772896248292536800,8.289536865234375,0.9208393692970276,0.10226059705018997,-0.28136029839515686
1772896248302504200,8.299504150390625,0.8044209480285645,0.050298310816287994,-0.35942837595939636
1772896248312472300,8.309472412109375,0.6794604063034058,-0.03587651997804642,-0.4202161133289337
1772896248322441200,8.319441162109374,0.5648988485336304,-0.13628408312797546,-0.47520676255226135
1772896248332409300,8.329409423828125,0.4930233657360077,-0.24583189189434052,-0.5432939529418945
1772896248342377200,8.339377197265625,0.513904869556427,-0.3711618483066559,-0.6037534475326538
1772896248352345300,8.349345458984375,0.5997310876846313,-0.48844051361083984,-0.6388006210327148
1772896248362313200,8.359313232421876,0.711574912071228,-0.5416761040687561,-0.6429798603057861
1772896248372282400,8.369282470703125,0.8376711010932922,-0.5383433699607849,-0.6413002014160156
1772896248382250200,8.379250244140625,0.9591116309165955,-0.4967096447944641,-0.6399773359298706
1772896248392218400,8.38921826171875,1.073603868484497,-0.45212221145629883,-0.6001169681549072
1772896248402186500,8.3991865234375,1.1645828485488892,-0.40775394439697266,-0.5304263234138489
1772896248412154000,8.409154052734374,1.2223374843597412,-0.3554915189743042,-0.4535246193408966
1772896248422123300,8.419123291015625,1.2493996620178223,-0.3255935609340668,-0.37399572134017944
1772896248432091100,8.429091064453125,1.2470307350158691,-0.2989693880081177,-0.31913328170776367
1772896248442059300,8.439059326171876,1.219527244567871,-0.2155035138130188,-0.2825223505496979
1772896248452027400,8.44902734375,1.1915000677108765,-0.09046252071857452,-0.23767206072807312
1772896248461995300,8.458995361328125,1.1792539358139038,0.06289322674274445,-0.18478327989578247
1772896248471964400,8.46896435546875,1.1972702741622925,0.1974547654390335,-0.12313669174909592
1772896248481932300,8.478932373046876,1.2423276901245117,0.29569557309150696,-0.07587246596813202
1772896248491900200,8.488900146484376,1.312377691268921,0.3413213789463043,-0.0480504184961319
1772896248501868300,8.498868408203125,1.376935601234436,0.29585108160972595,-0.03265882283449173
1772896248511836400,8.50883642578125,1.4060604572296143,0.16054226458072662,-0.01888841763138771
1772896248521805300,8.518805419921875,1.3534672260284424,-0.007732239551842213,-0.01712881401181221
1772896248531773400,8.5287734375,1.2531120777130127,-0.18618933856487274,-0.017716839909553528
1772896248541741300,8.5387412109375,1.1552749872207642,-0.3283557891845703,0.0005524707958102226
1772896248551709400,8.54870947265625,1.078165054321289,-0.4291846454143524,0.0038244305178523064
1772896248561677300,8.55867724609375,1.0181479454040527,-0.4711739122867584,-0.030516285449266434
1772896248571646200,8.568646240234376,0.9865289926528931,-0.46051594614982605,-0.09095832705497742
1772896248581614300,8.5786142578125,0.9853623509407043,-0.41505977511405945,-0.12914332747459412
1772896248591582200,8.588582275390625,1.0170437097549438,-0.3145347833633423,-0.12175199389457703
1772896248601550300,8.59855029296875,1.0561565160751343,-0.21311628818511963,-0.041255827993154526
1772896248611518500,8.6085185546875,1.0975170135498047,-0.09023909270763397,0.08079205453395844
1772896248621487400,8.6184873046875,1.0916622877120972,0.03611671179533005,0.19917213916778564
1772896248631455200,8.628455322265625,1.036871314048767,0.14839105308055878,0.2897377014160156
1772896248641423000,8.638423095703125,0.924923300743103,0.2722110152244568,0.34889528155326843
1772896248651391200,8.64839111328125,0.7517728209495544,0.45248809456825256,0.3715164363384247
1772896248661359400,8.658359375,0.5543411374092102,0.6768152713775635,0.3502148985862732
1772896248671328300,8.668328369140625,0.36088889837265015,0.8778285384178162,0.25751107931137085
1772896248681296400,8.67829638671875,0.19683176279067993,0.9781290292739868,0.08562102168798447
1772896248691264500,8.688264404296875,0.07324831187725067,0.9450810551643372,-0.1298806369304657
1772896248701232000,8.698232177734376,0.002635958604514599,0.7861545085906982,-0.3076246678829193
1772896248711200300,8.7082001953125,-0.014917735010385513,0.5140124559402466,-0.34984350204467773
1772896248721169200,8.718169189453125,0.005698381923139095,0.17838439345359802,-0.2635156214237213
1772896248731137300,8.72813720703125,0.03644750639796257,-0.14967016875743866,-0.18334941565990448
1772896248741105400,8.73810546875,0.07684598863124847,-0.3518086373806,-0.16274186968803406
1772896248751073300,8.7480732421875,0.1391303986310959,-0.41723477840423584,-0.21883895993232727
1772896248761041400,8.75804150390625,0.24225576221942902,-0.40037086606025696,-0.30291587114334106
1772896248771009300,8.76800927734375,0.4048854112625122,-0.26850736141204834,-0.3676850199699402
1772896248780978200,8.777978271484375,0.5760375261306763,-0.06838199496269226,-0.3787156343460083
1772896248790946300,8.7879462890625,0.6975075006484985,-0.036168936640024185,-0.37600213289260864
1772896248800914200,8.7979140625,0.6996490359306335,-0.32087787985801697,-0.4175877273082733
1772896248810882300,8.80788232421875,0.643735408782959,-0.7364447712898254,-0.46852999925613403
1772896248820850400,8.817850341796875,0.6948175430297852,-0.8657281398773193,-0.32158055901527405
1772896248830819300,8.8278193359375,0.8733398914337158,-0.8379803895950317,-0.0932864174246788
1772896248840787500,8.837787353515624,1.1056880950927734,-0.7962393760681152,0.014786627143621445
1772896248850755300,8.84775537109375,1.2750388383865356,-0.7664298415184021,-0.028599727898836136
1772896248860723200,8.85772314453125,1.3250192403793335,-0.7163450121879578,-0.1418115198612213
1772896248870691300,8.86769140625,1.2950797080993652,-0.665732741355896,-0.2106686234474182
1772896248880660200,8.87766015625,1.215455412864685,-0.6132210493087769,-0.16706803441047668
1772896248890628400,8.88762841796875,1.091975212097168,-0.5606380105018616,-0.06499999761581421
1772896248900596500,8.897596435546875,0.9320163726806641,-0.48638027906417847,0.07350674271583557
1772896248910564000,8.907564208984375,0.7418648600578308,-0.39020609855651855,0.20166470110416412
1772896248920532200,8.9175322265625,0.5213064551353455,-0.276112824678421,0.28606536984443665
1772896248930501000,8.927501220703125,0.30211707949638367,-0.13351093232631683,0.32164520025253296
1772896248940469200,8.93746923828125,0.12438353151082993,-0.007282136473804712,0.3204505145549774
1772896248950437400,8.947437255859375,-0.012142360210418701,0.1384766548871994,0.3236524164676666
1772896248960405200,8.9574052734375,-0.1119316816329956,0.2583572566509247,0.3493703007698059
1772896248970373400,8.967373291015624,-0.18623068928718567,0.29035380482673645,0.35944023728370667
1772896248980342300,8.97734228515625,-0.2529639005661011,0.2677728533744812,0.3301689922809601
1772896248990310100,8.98731005859375,-0.31403762102127075,0.22210150957107544,0.260838121175766
1772896249000278300,8.9972783203125,-0.3556514382362366,0.13423050940036774,0.18048296868801117
1772896249010246400,9.007246337890624,-0.38719016313552856,0.020363055169582367,0.08486057072877884
1772896249020214300,9.01721435546875,-0.3934590816497803,-0.09133951365947723,0.013820884749293327
1772896249030183400,9.027183349609375,-0.37146562337875366,-0.20308975875377655,-0.0008051947224885225
1772896249040151300,9.0371513671875,-0.3372291028499603,-0.3359034061431885,-0.008140677586197853
1772896249050119400,9.047119384765624,-0.28925836086273193,-0.4663429260253906,-0.024800879880785942
1772896249060087300,9.05708740234375,-0.2307882308959961,-0.5636156797409058,-0.048602666705846786
1772896249070053400,9.067053466796875,-0.16315671801567078,-0.5993012189865112,-0.07245287299156189
1772896249080022300,9.077022216796875,-0.10205399990081787,-0.5947000980377197,-0.1049012541770935
1772896249089990400,9.086990478515625,-0.029676735401153564,-0.5594068169593811,-0.14073221385478973
1772896249099958300,9.096958251953126,0.05999606475234032,-0.484763503074646,-0.14755453169345856
1772896249109926100,9.106926025390624,0.1520567536354065,-0.3858526349067688,-0.11581631004810333
1772896249119894300,9.116894287109375,0.23928405344486237,-0.23890608549118042,-0.07631099969148636
1772896249129863200,9.12686328125,0.32861846685409546,-0.05354981869459152,-0.029220452532172203
1772896249139831300,9.136831298828126,0.425199955701828,0.09677767008543015,0.03612822666764259
1772896249149799400,9.14679931640625,0.5301854610443115,0.24304434657096863,0.10916036367416382
1772896249159767300,9.156767333984375,0.6011983752250671,0.4239336848258972,0.17082642018795013
1772896249169735200,9.166735107421875,0.6513243913650513,0.6069287657737732,0.2060065120458603
1772896249179704000,9.1767041015625,0.6885800361633301,0.7621466517448425,0.22665764391422272
1772896249189672200,9.186672119140624,0.6940826773643494,0.852079451084137,0.25014564394950867
1772896249199640300,9.196640380859375,0.6669938564300537,0.8204730153083801,0.2574109733104706
1772896249209608200,9.206608154296875,0.5694721341133118,0.6517764329910278,0.25893616676330566
1772896249219576300,9.216576416015625,0.3632620871067047,0.3636791408061981,0.23728349804878235
1772896249229545500,9.22654541015625,0.11858922243118286,-0.037748709321022034,0.15665656328201294
1772896249239513300,9.236513427734375,-0.0107246283441782,-0.5503414273262024,0.044789932668209076
1772896249249481200,9.246481201171875,0.018360819667577744,-1.05007803440094,-0.02336115762591362
1772896249259449300,9.256449462890625,0.10849805176258087,-1.1825028657913208,0.01633787900209427
1772896249269417200,9.266417236328126,0.17580439150333405,-1.0183844566345215,0.1486455798149109
1772896249279386400,9.276386474609374,0.35911279916763306,-0.7742093801498413,0.2670575976371765
1772896249289354200,9.286354248046875,0.6727293133735657,-0.4515690505504608,0.37090596556663513
1772896249299322400,9.296322265625,1.0209587812423706,-0.1800217181444168,0.3998776376247406
1772896249309290800,9.306290771484376,1.272007703781128,0.02426910027861595,0.3948855698108673
1772896249319258400,9.31625830078125,1.366477608680725,0.24535250663757324,0.42883893847465515
1772896249329227500,9.3262275390625,1.2858246564865112,0.33086714148521423,0.4628797173500061
1772896249339195400,9.3361953125,1.037234902381897,0.2580600380897522,0.4394718408584595
1772896249349163500,9.34616357421875,0.6791329383850098,0.08704515546560287,0.3906837999820709
1772896249359131600,9.356131591796874,0.29859548807144165,-0.08848272264003754,0.3547803461551666
1772896249369099500,9.366099609375,-0.00003940984606742859,-0.06836680322885513,0.34948864579200745
1772896249379068700,9.376068603515625,-0.18531854450702667,0.055925577878952026,0.3369658589363098
1772896249389036500,9.38603662109375,-0.23639477789402008,0.20078343152999878,0.3218654692173004
1772896249399004400,9.39600439453125,-0.18239936232566833,0.37471768260002136,0.31356367468833923
1772896249408972500,9.40597265625,-0.07438021898269653,0.4973786175251007,0.28800636529922485
1772896249418940700,9.415940673828125,0.04392633214592934,0.4678923785686493,0.19361090660095215
1772896249428909600,9.42590966796875,0.15611359477043152,0.30033934116363525,0.009228015318512917
1772896249438877700,9.435877685546876,0.2459126114845276,0.0926114022731781,-0.19963447749614716
1772896249448845600,9.445845458984374,0.3110833466053009,-0.0823042169213295,-0.38641929626464844
1772896249458813400,9.4558134765625,0.36863917112350464,-0.24601830542087555,-0.5075594186782837
1772896249468781600,9.465781494140625,0.4075205326080322,-0.3873956799507141,-0.5389455556869507
1772896249478750500,9.47575048828125,0.40791597962379456,-0.43730250000953674,-0.5060617327690125
1772896249488718600,9.485718505859374,0.3857744634151459,-0.3992542028427124,-0.4411218464374542
1772896249498686500,9.4956865234375,0.3275625705718994,-0.2621200382709503,-0.36876022815704346
1772896249508654600,9.505654541015625,0.23509016633033752,-0.05075506120920181,-0.2810972034931183
1772896249518622700,9.515622802734375,0.12343531101942062,0.19772934913635254,-0.20386946201324463
1772896249528591600,9.525591552734374,0.011385740712285042,0.4448760151863098,-0.11920436471700668
1772896249538559500,9.5355595703125,-0.09147009253501892,0.625842809677124,-0.034120406955480576
1772896249548527400,9.54552734375,-0.1928688883781433,0.765693187713623,0.00577347818762064
1772896249558495500,9.55549560546875,-0.2564966380596161,0.8198484778404236,0.02393474616110325
1772896249568463600,9.565463623046876,-0.26815009117126465,0.7875382304191589,0.02658618986606598
1772896249578432500,9.5754326171875,-0.24417120218276978,0.6963931918144226,0.008027657866477966
1772896249588400600,9.585400634765625,-0.20707842707633972,0.5655771493911743,-0.039035722613334656
1772896249598368800,9.59536865234375,-0.1628219187259674,0.3936479687690735,-0.1177525445818901
1772896249608336400,9.60533642578125,-0.11889680474996567,0.19056382775306702,-0.22681325674057007
1772896249618304500,9.615304443359374,-0.07237426936626434,0.007165484130382538,-0.3624638020992279
1772896249628273400,9.6252734375,-0.010826485231518745,-0.1362673044204712,-0.4676267206668854
1772896249638241500,9.635241455078125,0.04607756808400154,-0.23769590258598328,-0.5046461820602417
1772896249648209700,9.645209716796876,0.0949511006474495,-0.26559409499168396,-0.49741438031196594
1772896249658177500,9.655177490234376,0.11267857253551483,-0.28997138142585754,-0.4677687883377075
1772896249668145700,9.665145751953125,0.1078696995973587,-0.2707878351211548,-0.45159435272216797
1772896249678114600,9.675114501953125,0.09572336077690125,-0.22110627591609955,-0.4376325011253357
1772896249688082400,9.68508251953125,0.07654087245464325,-0.13948731124401093,-0.3913813829421997
1772896249698050600,9.695050537109376,0.09305413067340851,-0.031529948115348816,-0.28679242730140686
1772896249708018400,9.705018310546874,0.1356694996356964,0.052658431231975555,-0.14251461625099182
1772896249717986600,9.714986572265625,0.20567582547664642,0.1113843023777008,-0.04148218408226967
1772896249727955500,9.72495556640625,0.29596656560897827,0.15621383488178253,0.002866372000426054
1772896249737923600,9.734923583984376,0.3837655484676361,0.20688261091709137,0.013442073948681355
1772896249747891700,9.7448916015625,0.45933592319488525,0.2609570622444153,0.011838584206998348
1772896249757859600,9.754859619140625,0.5008291602134705,0.30695411562919617,-0.0004694319795817137
1772896249767827500,9.764827392578125,0.5430943369865417,0.33360594511032104,0.006115499883890152
1772896249777796600,9.774796630859376,0.5501582622528076,0.3314562141895294,0.03272917866706848
1772896249787764500,9.784764404296874,0.5364589691162109,0.32166245579719543,0.05251992866396904
1772896249797732600,9.794732666015625,0.5355852842330933,0.31435340642929077,0.06888443231582642
1772896249807700700,9.80470068359375,0.5771303772926331,0.3186224400997162,0.08658219873905182
1772896249817668400,9.81466845703125,0.6385216116905212,0.345382422208786,0.12036143988370895
1772896249827637500,9.824637451171874,0.7053107619285583,0.3887075185775757,0.158489391207695
1772896249837605400,9.83460546875,0.762441873550415,0.4674777090549469,0.16055677831172943
1772896249847573500,9.844573486328125,0.7967545986175537,0.5505475997924805,0.11612966656684875
1772896249857541600,9.854541748046875,0.7872796058654785,0.5972034931182861,0.06951156258583069
1772896249867509500,9.864509521484376,0.7251920104026794,0.5840395092964172,0.08863252401351929
1772896249877478700,9.874478759765625,0.6454620361328125,0.5615677237510681,0.18296381831169128
1772896249887446500,9.884446533203125,0.549200177192688,0.5136252641677856,0.3074527680873871
1772896249897414400,9.894414306640625,0.39870768785476685,0.3368704319000244,0.3603598177433014
1772896249907382500,9.904382568359376,0.20548228919506073,0.0013678008690476418,0.28394731879234314
1772896249917350700,9.9143505859375,0.006344432011246681,-0.33987048268318176,0.15597528219223022
1772896249927319600,9.924319580078125,-0.157270610332489,-0.5778135061264038,0.07781603187322617
1772896249937287700,9.93428759765625,-0.23763132095336914,-0.6553680300712585,0.14730651676654816
1772896249947255600,9.944255615234376,-0.2265848070383072,-0.459214985370636,0.3494279384613037
1772896249957223700,9.9542236328125,-0.18721510469913483,-0.0863729864358902,0.6193707585334778
1772896249967191600,9.964191650390624,-0.18114495277404785,0.1709219217300415,0.864431619644165
1772896249977160400,9.974160400390625,-0.23472042381763458,0.35235485434532166,1.0283329486846924
1772896249987128600,9.984128662109375,-0.33382728695869446,0.4478012025356293,1.1021310091018677
1772896249997096400,9.994096435546876,-0.4783957004547119,0.5149794816970825,1.1059157848358154
1772896250007064600,10.004064697265624,-0.6422650218009949,0.5303733348846436,1.0763874053955078
1772896250017032700,10.01403271484375,-0.8046897053718567,0.43748173117637634,0.9787472486495972
1772896250027001600,10.024001708984375,-0.916293740272522,0.24927479028701782,0.7775832414627075
1772896250036969700,10.0339697265625,-0.9345112442970276,-0.07799278199672699,0.5223562121391296
1772896250046937300,10.043937255859374,-0.8756237030029297,-0.4097675085067749,0.28321048617362976
1772896250056905500,10.053905517578125,-0.7371014952659607,-0.7152648568153381,0.11022897809743881
1772896250066873600,10.06387353515625,-0.5748934149742126,-0.9905369281768799,-0.029672197997570038
1772896250076842500,10.073842529296876,-0.4685371518135071,-1.1389578580856323,-0.12717866897583008
1772896250086810600,10.083810546875,-0.43729427456855774,-1.1602824926376343,-0.15301798284053802
1772896250096778800,10.09377880859375,-0.4457532465457916,-1.0546351671218872,-0.11357774585485458
1772896250106746400,10.103746337890625,-0.5052663683891296,-0.8146796226501465,0.0004702592268586159
1772896250116714500,10.113714599609375,-0.5888724327087402,-0.49507179856300354,0.14808553457260132
1772896250126683400,10.123683349609376,-0.6565865278244019,-0.17554067075252533,0.29123684763908386
1772896250136651500,10.133651611328125,-0.6476935744285583,0.07390538603067398,0.3703109323978424
1772896250146619600,10.14361962890625,-0.5763254165649414,0.2532690167427063,0.3893722593784332
1772896250156587500,10.15358740234375,-0.47979724407196045,0.319347620010376,0.383860319852829
1772896250166555600,10.1635556640625,-0.3896910548210144,0.2731945216655731,0.3237817883491516
1772896250176524500,10.173524658203124,-0.3140604794025421,0.1805620640516281,0.22997893393039703
1772896250186492400,10.183492431640625,-0.28599315881729126,0.10017906874418259,0.10632916539907455
1772896250196460500,10.19346044921875,-0.30858173966407776,0.047521430999040604,-0.0272967629134655
1772896250206428400,10.203428466796876,-0.363523006439209,-0.005256032571196556,-0.13205060362815857
1772896250216397600,10.2133974609375,-0.4255650043487549,-0.06912235170602798,-0.19283103942871094
1772896250226365400,10.223365478515625,-0.4887319505214691,-0.16420811414718628,-0.21746447682380676
1772896250236333600,10.23333349609375,-0.5182432532310486,-0.26414111256599426,-0.2574704587459564
1772896250246301700,10.2433017578125,-0.5109120607376099,-0.3869525194168091,-0.31580859422683716
1772896250256269600,10.25326953125,-0.47857847809791565,-0.5203264951705933,-0.3775361180305481
1772896250266238500,10.263238525390625,-0.416690856218338,-0.6153952479362488,-0.41363632678985596
1772896250276206600,10.27320654296875,-0.3418465852737427,-0.6329492330551147,-0.39672791957855225
1772896250286174500,10.283174560546875,-0.267109751701355,-0.5706376433372498,-0.3216869533061981
1772896250296142600,10.293142578125,-0.20277246832847595,-0.4197908639907837,-0.21084067225456238
1772896250306110500,10.3031103515625,-0.1671241968870163,-0.1876274049282074,-0.08510883897542953
1772896250316079400,10.313079345703125,-0.12855856120586395,0.033673010766506195,0.05626002326607704
1772896250326047500,10.323047607421875,-0.08913764357566833,0.20613372325897217,0.20721358060836792
1772896250336015400,10.333015380859376,-0.07152072340250015,0.34238186478614807,0.3380391597747803
1772896250345983500,10.3429833984375,-0.07976613193750381,0.4317586123943329,0.43034592270851135
1772896250355951400,10.352951416015625,-0.09329653531312943,0.4411388039588928,0.49669504165649414
1772896250365919200,10.362919189453125,-0.0742994099855423,0.39387354254722595,0.5192631483078003
1772896250375888400,10.372888427734376,-0.026973022148013115,0.29815950989723206,0.46795350313186646
1772896250385856500,10.3828564453125,0.04545456916093826,0.243256613612175,0.3762688636779785
1772896250395824400,10.392824462890625,0.04858137667179108,0.2584901452064514,0.26873889565467834
1772896250405792500,10.40279248046875,-0.028313936665654182,0.20021352171897888,0.11980532854795456
1772896250415761400,10.412761474609376,-0.11719013005495071,0.1728236973285675,0.007426689378917217
1772896250425729500,10.4227294921875,-0.17186883091926575,0.0956338420510292,-0.002053897362202406
1772896250435697400,10.432697509765624,-0.17867788672447205,-0.12828339636325836,0.06829283386468887
1772896250445665300,10.442665283203125,-0.1748000681400299,-0.4822116494178772,0.13019055128097534
1772896250455633400,10.45263330078125,-0.1558038741350174,-0.9423332214355469,0.07072111964225769
1772896250465602300,10.462602294921876,-0.13017147779464722,-1.5029751062393188,-0.09894301742315292
1772896250475570400,10.4725703125,-0.1053108274936676,-2.0743789672851562,-0.27721622586250305
1772896250485538600,10.48253857421875,-0.06802604347467422,-2.363719940185547,-0.32197943329811096
1772896250495506400,10.49250634765625,-0.04528333991765976,-2.2162742614746094,-0.1986195594072342
1772896250505474300,10.502474365234375,0.03617529943585396,-1.7873400449752808,0.00615942245349288
1772896250515443200,10.512443115234374,0.17176464200019836,-1.1093093156814575,0.18363137543201447
1772896250525411300,10.522411376953125,0.3382686674594879,-0.3040674328804016,0.2592765986919403
1772896250535379500,10.53237939453125,0.4767952859401703,0.35215485095977783,0.24482658505439758
1772896250545347300,10.542347412109375,0.563071608543396,0.7427092790603638,0.24732914566993713
1772896250555315500,10.5523154296875,0.5637614727020264,1.002105951309204,0.28411468863487244
1772896250565284600,10.56228466796875,0.4800122082233429,1.1694939136505127,0.3010268211364746
1772896250575252500,10.57225244140625,0.3329850435256958,1.1231677532196045,0.2544684410095215
1772896250585220400,10.582220458984375,0.18222695589065552,0.8901658654212952,0.15281423926353455
1772896250595188500,10.5921884765625,0.06046706438064575,0.5744540095329285,0.012807244434952736
1772896250605156400,10.60215625,-0.032896436750888824,0.2315424233675003,-0.1358426809310913
1772896250615125500,10.61212548828125,-0.08998827636241913,-0.06659657508134842,-0.26997894048690796
1772896250625093400,10.62209326171875,-0.11273381114006042,-0.24866119027137756,-0.3576376736164093
1772896250635061500,10.6320615234375,-0.0810050517320633,-0.36138856410980225,-0.40083688497543335
1772896250645029400,10.642029296875,-0.01649717055261135,-0.43665456771850586,-0.4494962990283966
1772896250654997200,10.651997314453125,0.058830976486206055,-0.49809712171554565,-0.4876132011413574
1772896250664966400,10.66196630859375,0.09998427331447601,-0.5362882018089294,-0.4770849049091339
1772896250674934300,10.671934326171876,0.1031571477651596,-0.4884607493877411,-0.4369252324104309
1772896250684902400,10.68190234375,0.09983912110328674,-0.4077281057834625,-0.3911135196685791
1772896250694870500,10.69187060546875,0.10423639416694641,-0.34860727190971375,-0.3592749238014221
1772896250704838400,10.70183837890625,0.12046357244253159,-0.2471458613872528,-0.3395576775074005
1772896250714807600,10.7118076171875,0.1397225558757782,-0.12598028779029846,-0.29789915680885315
1772896250724775400,10.721775390625,0.14249837398529053,0.0035281702876091003,-0.24123559892177582
1772896250734743300,10.731743408203124,0.11622239649295807,0.16258545219898224,-0.19134457409381866
1772896250744711400,10.74171142578125,0.08103938400745392,0.3372632563114166,-0.15443822741508484
1772896250754679600,10.751679443359375,0.040423713624477386,0.4868468940258026,-0.1224147379398346
1772896250764648400,10.7616484375,-0.01259636040776968,0.6104172468185425,-0.09031699597835541
1772896250774616600,10.771616455078124,-0.10173636674880981,0.7300595641136169,-0.05503182113170624
1772896250784584400,10.78158447265625,-0.20798957347869873,0.8525550961494446,-0.037734322249889374
1772896250794552300,10.79155224609375,-0.3312888443470001,0.9346598386764526,-0.029171118512749672
1772896250804520400,10.8015205078125,-0.46885791420936584,0.831152617931366,-0.0286861564964056
1772896250814489300,10.8114892578125,-0.5965532064437866,0.5512841939926147,-0.028323613107204437
1772896250824457500,10.82145751953125,-0.6776880025863647,0.18777762353420258,-0.062068793922662735
1772896250834425300,10.83142529296875,-0.7243862152099609,-0.11262960731983185,-0.1441693753004074
1772896250844393500,10.8413935546875,-0.7475115060806274,-0.34775638580322266,-0.2612784206867218
1772896250854361600,10.851361572265626,-0.7476459741592407,-0.5264467597007751,-0.36628320813179016
1772896250864330500,10.86133056640625,-0.7099617123603821,-0.5936651825904846,-0.41632428765296936
1772896250874298400,10.87129833984375,-0.6330917477607727,-0.5886880159378052,-0.4132016897201538
1772896250884266500,10.8812666015625,-0.4979562759399414,-0.502399206161499,-0.3866180181503296
1772896250894234400,10.891234375,-0.37131863832473755,-0.38044774532318115,-0.37000522017478943
1772896250904202500,10.901202392578124,-0.2649690508842468,-0.23653103411197662,-0.3793204128742218
1772896250914171400,10.91117138671875,-0.17285697162151337,-0.11972293257713318,-0.3843836486339569
1772896250924139500,10.921139404296875,-0.07422547042369843,-0.008511988446116447,-0.33211538195610046
1772896250934107400,10.931107421875,0.03171243518590927,0.104172483086586,-0.24192684888839722
1772896250944075300,10.9410751953125,0.12186096608638763,0.22361472249031067,-0.1782783716917038
1772896250954043400,10.95104345703125,0.1900448352098465,0.3360968232154846,-0.158098965883255
1772896250964012300,10.96101220703125,0.2196037918329239,0.4229576587677002,-0.15861988067626953
1772896250973980400,10.97098046875,0.2315521538257599,0.45903363823890686,-0.16806577146053314
1772896250983948500,10.980948486328124,0.2501511573791504,0.4269465506076813,-0.17570452392101288
1772896250993916400,10.99091650390625,0.27178001403808594,0.2883572280406952,-0.18869328498840332
1772896251003885600,11.000885498046875,0.2952302098274231,0.08747897297143936,-0.223423570394516
1772896251013853200,11.010853271484375,0.32999908924102783,-0.14348097145557404,-0.2675049901008606
1772896251023821300,11.0208212890625,0.3628273606300354,-0.3139438033103943,-0.28776660561561584
1772896251033789400,11.03078955078125,0.39214304089546204,-0.41174760460853577,-0.28384342789649963
1772896251043757300,11.04075732421875,0.4118770658969879,-0.45118290185928345,-0.2701207101345062
1772896251053726500,11.0507265625,0.42927151918411255,-0.42734089493751526,-0.26170650124549866
1772896251063694600,11.060694580078126,0.4325101673603058,-0.3561721742153168,-0.23341786861419678
1772896251073662500,11.070662353515624,0.4036106765270233,-0.24746090173721313,-0.1577233225107193
1772896251083630300,11.08063037109375,0.3259502351284027,-0.1463731825351715,-0.0353073850274086
1772896251093598500,11.090598388671875,0.22043286263942719,-0.07059931755065918,0.10139156877994537
1772896251103567400,11.1005673828125,0.12027137726545334,-0.03966537117958069,0.1759566217660904
1772896251113535500,11.110535400390624,0.049774251878261566,-0.06534145027399063,0.16046477854251862
1772896251123503400,11.12050341796875,-0.006651740521192551,-0.17231503129005432,0.05624116212129593
1772896251133471500,11.130471435546875,-0.022496748715639114,-0.36055365204811096,-0.08389703929424286
1772896251143439600,11.140439697265625,-0.026723451912403107,-0.5462926030158997,-0.22498011589050293
1772896251153408500,11.150408447265624,-0.03640365228056908,-0.5585394501686096,-0.2708246409893036
1772896251163376400,11.16037646484375,-0.06899142265319824,-0.4265174865722656,-0.2006857693195343
1772896251173344300,11.17034423828125,-0.12566417455673218,-0.15909776091575623,-0.035788215696811676
1772896251183312400,11.1803125,-0.19614313542842865,0.19575299322605133,0.1756843477487564
1772896251193280500,11.190280517578126,-0.2662956118583679,0.5359933972358704,0.35821065306663513
1772896251203249400,11.20024951171875,-0.3333319127559662,0.887562096118927,0.5023963451385498
1772896251213217500,11.210217529296875,-0.3835785984992981,1.174479365348816,0.6332889199256897
1772896251223185700,11.220185546875,-0.421692430973053,1.3646804094314575,0.7185438871383667
1772896251233153300,11.2301533203125,-0.4736874997615814,1.4781204462051392,0.7147451639175415
1772896251243121400,11.240121337890624,-0.5017367005348206,1.4662470817565918,0.6574325561523438
1772896251253090300,11.25009033203125,-0.4937624931335449,1.3493478298187256,0.5577124357223511
1772896251263058400,11.260058349609375,-0.4573688209056854,1.109472632408142,0.433584064245224
1772896251273026600,11.270026611328126,-0.3982413709163666,0.8016186952590942,0.31469041109085083
1772896251282994400,11.279994384765626,-0.32607024908065796,0.4636576771736145,0.2153419703245163
1772896251292962300,11.28996240234375,-0.2637738287448883,0.13630911707878113,0.12266572564840317
1772896251302931200,11.29993115234375,-0.16830961406230927,-0.17152248322963715,0.017697764560580254
1772896251312899300,11.3098994140625,-0.058809544891119,-0.43190881609916687,-0.07157056033611298
1772896251322867500,11.319867431640626,0.046114206314086914,-0.6406846046447754,-0.12552247941493988
1772896251332835300,11.32983544921875,0.12426004558801651,-0.7950465679168701,-0.1564149707555771
1772896251342803500,11.339803466796875,0.1727793663740158,-0.8660823702812195,-0.14171485602855682
1772896251352772400,11.3497724609375,0.19692805409431458,-0.8803571462631226,-0.06446965038776398
1772896251362740500,11.359740478515626,0.21496164798736572,-0.8146686553955078,0.0495474636554718
1772896251372708400,11.369708251953124,0.19586730003356934,-0.668359100818634,0.19003024697303772
1772896251382676500,11.379676513671875,0.14422142505645752,-0.4850423038005829,0.3139282166957855
1772896251392644400,11.389644287109375,0.07693719863891602,-0.2946321666240692,0.3855278789997101
1772896251402613500,11.399613525390626,-0.00020499061793088913,-0.1056809052824974,0.3893719017505646
1772896251412581400,11.409581298828124,-0.06819669902324677,0.029227420687675476,0.3566186726093292
1772896251422549500,11.419549560546875,-0.12733325362205505,0.11722385883331299,0.3142848014831543
1772896251432517600,11.429517578125,-0.17713914811611176,0.15456296503543854,0.29542645812034607
1772896251442485200,11.4394853515625,-0.2119373381137848,0.13089598715305328,0.30260419845581055
1772896251452454400,11.449454345703124,-0.22872091829776764,0.08773200213909149,0.3241177499294281
1772896251462422300,11.45942236328125,-0.22747908532619476,0.007003867998719215,0.31180062890052795
1772896251472390400,11.469390380859375,-0.2270165979862213,-0.0892486423254013,0.2507938742637634
1772896251482358500,11.479358642578125,-0.23696990311145782,-0.16740790009498596,0.1690918207168579
1772896251492326400,11.489326416015626,-0.2481495440006256,-0.22351936995983124,0.10275578498840332
1772896251502295600,11.499295654296875,-0.256603479385376,-0.24535782635211945,0.058607496321201324
1772896251512263400,11.509263427734375,-0.2753516435623169,-0.2523917555809021,0.03860624507069588
1772896251522231300,11.519231201171875,-0.28981685638427734,-0.24480174481868744,0.05933815613389015
1772896251532199400,11.529199462890626,-0.2982032895088196,-0.22936315834522247,0.10522561520338058
1772896251542168300,11.539168212890624,-0.2969510555267334,-0.2042657881975174,0.15248075127601624
1772896251552136400,11.549136474609375,-0.296870619058609,-0.16577859222888947,0.18952858448028564
1772896251562104600,11.5591044921875,-0.30530110001564026,-0.10955658555030823,0.2149125039577484
1772896251572072400,11.569072509765626,-0.31225448846817017,-0.0025305207818746567,0.24496014416217804
1772896251582040300,11.579040283203126,-0.2973594069480896,0.14404799044132233,0.2952965497970581
1772896251592009200,11.58900927734375,-0.2643791735172272,0.29041025042533875,0.35887712240219116
1772896251601977300,11.598977294921875,-0.20437654852867126,0.4120490550994873,0.4281128942966461
1772896251611945500,11.608945556640625,-0.12994657456874847,0.49445363879203796,0.4923684597015381
1772896251621913300,11.618913330078126,-0.03552738204598427,0.5038458704948425,0.5406662821769714
1772896251631881500,11.628881591796874,0.08838390558958054,0.46983006596565247,0.5598037242889404
1772896251641850400,11.638850341796875,0.2093673199415207,0.417896568775177,0.5255435109138489
1772896251651818500,11.648818603515625,0.3154299557209015,0.34116506576538086,0.4540100693702698
1772896251661786400,11.658786376953126,0.4317229986190796,0.24263368546962738,0.37419620156288147
1772896251671754200,11.668754150390624,0.5833686590194702,0.15939286351203918,0.3203273117542267
1772896251681722400,11.678722412109375,0.7268754839897156,0.10826230049133301,0.2740977704524994
1772896251691691500,11.68869140625,0.8183011412620544,0.08258677273988724,0.22755202651023865
1772896251701659400,11.698659423828126,0.8438078165054321,0.13133114576339722,0.2334756851196289
1772896251711627500,11.70862744140625,0.8109574317932129,0.2319088727235794,0.3005136549472809
1772896251721595600,11.718595703125,0.7102473378181458,0.23225907981395721,0.34996533393859863
1772896251731563300,11.728563232421875,0.5652899742126465,-0.04116128012537956,0.3070458471775055
1772896251741532400,11.738532470703126,0.40599411725997925,-0.6637467741966248,0.1503012329339981
1772896251751500300,11.748500244140626,0.24341438710689545,-1.5382695198059082,-0.15051855146884918
1772896251761468400,11.758468505859375,0.04503792151808739,-2.4822897911071777,-0.48346108198165894
1772896251771436500,11.7684365234375,-0.14059452712535858,-3.2033071517944336,-0.6708671450614929
1772896251781404400,11.778404296875,-0.3464004397392273,-3.4843649864196777,-0.4640786051750183
1772896251791373600,11.78837353515625,-0.4696299433708191,-3.2596018314361572,-0.014667503535747528
1772896251801341400,11.798341552734374,-0.4281865358352661,-2.6380066871643066,0.3858588635921478
1772896251811309300,11.808309326171875,-0.13988575339317322,-1.6765192747116089,0.5532504916191101
1772896251821277400,11.81827734375,0.3435341715812683,-0.456373393535614,0.48116907477378845
1772896251831245300,11.828245361328126,0.8662620782852173,0.6855099201202393,0.276332288980484
1772896251841214500,11.83821435546875,1.2665396928787231,1.449878454208374,0.10751849412918091
1772896251851182300,11.848182373046875,1.518815517425537,1.851499319076538,-0.029156096279621124
1772896251861150500,11.858150390625,1.6112642288208008,1.8473140001296997,-0.1283186376094818
1772896251871118300,11.868118408203125,1.5154155492782593,1.651856541633606,-0.23622964322566986
1772896251881086500,11.87808642578125,1.350775957107544,1.3396390676498413,-0.33351171016693115
1772896251891055400,11.888055419921875,1.122377634048462,0.9334693551063538,-0.3579035997390747
1772896251901023500,11.8980234375,0.8392769694328308,0.47281786799430847,-0.35398370027542114
1772896251910991400,11.907991455078125,0.5478984713554382,0.15480157732963562,-0.32409438490867615
1772896251920959500,11.91795947265625,0.3257165551185608,0.11112039536237717,-0.29863885045051575
1772896251930928400,11.927928466796875,0.21698462963104248,0.09863817691802979,-0.3014298677444458
1772896251940896500,11.937896484375,0.2911089360713959,0.1587183028459549,-0.23411551117897034
1772896251950864400,11.947864501953125,0.43564414978027344,0.27537110447883606,-0.07091078162193298
1772896251960832300,11.957832275390626,0.5249143242835999,0.3988312780857086,0.08193095773458481
1772896251970800400,11.96780029296875,0.5132026672363281,0.45796677470207214,0.1347583532333374
1772896251980769300,11.977769287109375,0.46465858817100525,0.4373760223388672,0.08658389747142792
1772896251990737400,11.9877373046875,0.4334050118923187,0.34353578090667725,-0.009837949648499489
1772896252000705500,11.99770556640625,0.4261492192745209,0.2017187476158142,-0.13222777843475342
1772896252010673400,12.00767333984375,0.44750794768333435,0.032830677926540375,-0.24954156577587128
1772896252020641300,12.017641357421875,0.4872915744781494,-0.1473524123430252,-0.33352407813072205
1772896252030610400,12.0276103515625,0.5435616970062256,-0.2576320469379425,-0.38077250123023987
1772896252040578300,12.037578369140626,0.6196170449256897,-0.2679259777069092,-0.39888012409210205
1772896252050546400,12.04754638671875,0.7221027612686157,-0.19295641779899597,-0.3554536998271942
1772896252060514600,12.0575146484375,0.8180122971534729,-0.10088693350553513,-0.26596856117248535
1772896252070482400,12.067482421875,0.9218907952308655,0.04911588504910469,-0.1879763901233673
1772896252080451600,12.07745166015625,1.0337541103363037,0.2320670634508133,-0.15824219584465027
1772896252090419500,12.08741943359375,1.1406528949737549,0.3697122633457184,-0.14393934607505798
1772896252100387300,12.09738720703125,1.2484678030014038,0.4223911762237549,-0.10546518862247467
1772896252110355500,12.10735546875,1.3701131343841553,0.42745599150657654,-0.018085531890392303
1772896252120323300,12.1173232421875,1.5192294120788574,0.3923001289367676,0.07508435845375061
1772896252130292500,12.12729248046875,1.6713528633117676,0.3400462865829468,0.1300063282251358
1772896252140260400,12.13726025390625,1.787758231163025,0.2549036741256714,0.10842327028512955
1772896252150228500,12.147228515625,1.8538305759429932,0.11653433740139008,-0.0025646125432103872
1772896252160196400,12.1571962890625,1.876805305480957,-0.02005600556731224,-0.1639614999294281
1772896252170164200,12.167164306640625,1.847571849822998,-0.16650882363319397,-0.3269643485546112
1772896252180133400,12.17713330078125,1.7807831764221191,-0.33923134207725525,-0.4949253797531128
1772896252190101500,12.1871015625,1.694588303565979,-0.5594645738601685,-0.6529818177223206
1772896252200069400,12.1970693359375,1.6094204187393188,-0.781919538974762,-0.8051740527153015
1772896252210037500,12.20703759765625,1.5202090740203857,-0.9054813981056213,-0.9348591566085815
1772896252220005600,12.217005615234376,1.4034041166305542,-0.9237768054008484,-0.9770028591156006
1772896252229974500,12.226974609375,1.301727533340454,-0.8653401136398315,-0.861699104309082
1772896252239942400,12.2369423828125,1.2349687814712524,-0.7238625884056091,-0.6231057047843933
1772896252249910300,12.24691015625,1.205494999885559,-0.5391708016395569,-0.379167765378952
1772896252259878400,12.25687841796875,1.2287813425064087,-0.35956719517707825,-0.21573756635189056
1772896252269847300,12.266847412109374,1.2881077527999878,-0.20119699835777283,-0.14049409329891205
1772896252279815400,12.2768154296875,1.3645048141479492,-0.04490220546722412,-0.14251676201820374
1772896252289783600,12.286783447265625,1.446520209312439,0.10849746316671371,-0.1534530073404312
1772896252299751400,12.29675146484375,1.5510653257369995,0.27808117866516113,-0.14965906739234924
1772896252309719000,12.306718994140626,1.674479603767395,0.4510177969932556,-0.1446942836046219
1772896252319688200,12.316688232421875,1.8129658699035645,0.5660165548324585,-0.14972420036792755
1772896252329656000,12.326656005859375,1.9731330871582031,0.6516819000244141,-0.12660950422286987
1772896252339624200,12.336624267578125,2.144624948501587,0.7117087841033936,-0.05859050527215004
1772896252349592300,12.34659228515625,2.3164453506469727,0.7550629377365112,0.035283178091049194
1772896252359560200,12.356560302734374,2.4957103729248047,0.7319386601448059,0.09340400993824005
1772896252369529300,12.366529296875,2.627952814102173,0.6641620397567749,0.09973816573619843
