time,seconds_elapsed,z,y,x
1772896240070023400,0.0670234375,0.05710616335272789,0.002511094557121396,0.05392235517501831
1772896240079991000,0.076990966796875,0.05288718268275261,0.005614209920167923,-0.005688778590410948
1772896240089959200,0.086959228515625,0.032226644456386566,-0.0035361452028155327,-0.05434979125857353
1772896240099927300,0.09692724609375,0.0007962851668708026,-0.023487482219934464,-0.09525967389345169
1772896240109895200,0.106895263671875,-0.02821219712495804,-0.06262742727994919,-0.13530083000659943
1772896240119864300,0.1168642578125,-0.05062749236822128,-0.10989454388618469,-0.17250919342041016
1772896240129832200,0.126832275390625,-0.07059560716152191,-0.15099777281284332,-0.20094561576843262
1772896240139800300,0.13680029296875,-0.07973664253950119,-0.188999742269516,-0.2320588082075119
1772896240149768200,0.146768310546875,-0.09350491315126419,-0.2174292653799057,-0.2626446783542633
1772896240159736000,0.156736083984375,-0.09375498443841934,-0.2269953340291977,-0.28901928663253784
1772896240169705200,0.166705322265625,-0.09803255647420883,-0.21903647482395172,-0.3034949004650116
1772896240179673000,0.176673095703125,-0.08797220140695572,-0.2236698418855667,-0.31605038046836853
1772896240189641200,0.18664111328125,-0.08836421370506287,-0.20877531170845032,-0.30955785512924194
1772896240199609300,0.196609375,-0.08868779242038727,-0.1687069982290268,-0.2934052348136902
1772896240209577200,0.2065771484375,-0.09172353148460388,-0.15687057375907898,-0.2752739191055298
1772896240219546400,0.21654638671875,-0.10074285417795181,-0.158906027674675,-0.2523752450942993
1772896240229514200,0.22651416015625,-0.10820263624191284,-0.1673690229654312,-0.23684796690940857
1772896240239482000,0.236482177734375,-0.10370802134275436,-0.17214007675647736,-0.2370825856924057
1772896240249450200,0.2464501953125,-0.09578245133161545,-0.15424363315105438,-0.25862038135528564
1772896240259418400,0.25641845703125,-0.10433439165353775,-0.03970533609390259,-0.26302310824394226
1772896240269387300,0.26638720703125,-0.11090414971113205,0.02263074368238449,-0.2466561198234558
1772896240279355400,0.27635546875,-0.10765428841114044,0.07741409540176392,-0.22997860610485077
1772896240289323300,0.2863232421875,-0.1356784701347351,0.125355526804924,-0.1381315141916275
1772896240299291400,0.29629150390625,-0.24659672379493713,0.23432381451129913,-0.06471268087625504
1772896240309259500,0.306259521484375,-0.2636910378932953,0.2592070698738098,-0.004221110139042139
1772896240319228400,0.316228515625,-0.30314841866493225,0.2949719727039337,0.04047844931483269
1772896240329196500,0.326196533203125,-0.3498421609401703,0.3530091941356659,0.07858109474182129
1772896240339164200,0.3361640625,-0.36135685443878174,0.36990270018577576,0.10715095698833466
1772896240349132300,0.34613232421875,-0.33513033390045166,0.3629710078239441,0.10326939821243286
1772896240359100400,0.356100341796875,-0.2985645830631256,0.3918013274669647,0.032466862350702286
1772896240369069300,0.3660693359375,-0.2844410538673401,0.4607958495616913,-0.09265217185020447
1772896240379037400,0.376037353515625,-0.2974782884120941,0.5735684633255005,-0.21723298728466034
1772896240389005300,0.38600537109375,-0.3300471603870392,0.6868204474449158,-0.3369242250919342
1772896240398973200,0.39597314453125,-0.34339144825935364,0.8156149387359619,-0.44977515935897827
1772896240408941300,0.40594140625,-0.2968505918979645,0.9929995536804199,-0.4995128810405731
1772896240418910200,0.41591015625,-0.20623838901519775,1.1525367498397827,-0.4053373634815216
1772896240428878300,0.42587841796875,-0.15076740086078644,1.2399837970733643,-0.23205773532390594
1772896240438846500,0.435846435546875,-0.1358843296766281,1.251153826713562,-0.13807956874370575
1772896240448814300,0.445814453125,-0.1593044400215149,1.2379707098007202,-0.21402494609355927
1772896240458782500,0.455782470703125,-0.16956159472465515,1.2220633029937744,-0.43226778507232666
1772896240468751400,0.46575146484375,-0.08891575783491135,1.1110042333602905,-0.7368431091308594
1772896240478719200,0.47571923828125,0.05573996156454086,0.8168945908546448,-1.0412291288375854
1772896240488687400,0.485687255859375,0.18770305812358856,0.46173620223999023,-1.2752599716186523
1772896240498655200,0.4956552734375,0.29183849692344666,0.2754185199737549,-1.4147710800170898
1772896240508623400,0.505623291015625,0.35973232984542847,0.2817839980125427,-1.4587531089782715
1772896240518592300,0.51559228515625,0.4237422049045563,0.37597256898880005,-1.3906409740447998
1772896240528560400,0.525560302734375,0.5306282043457031,0.4404580891132355,-1.2096093893051147
1772896240538528500,0.535528564453125,0.6892958879470825,0.3116457760334015,-0.9500707387924194
1772896240548496100,0.54549609375,0.8503965735435486,-0.015791213139891624,-0.6865719556808472
1772896240558464300,0.55546435546875,0.9266101717948914,-0.4188036620616913,-0.500311017036438
1772896240568433400,0.565433349609375,0.8899086117744446,-0.8201268315315247,-0.4090527594089508
1772896240578401300,0.5754013671875,0.7945983409881592,-1.0905863046646118,-0.3252635896205902
1772896240588369400,0.585369384765625,0.6470373272895813,-1.1802687644958496,-0.21250960230827332
1772896240598337500,0.595337646484375,0.48568281531333923,-1.1180802583694458,-0.12462581694126129
1772896240608305400,0.605305419921875,0.46565452218055725,-1.0178053379058838,-0.05073801055550575
1772896240618273300,0.615273193359375,0.6342126131057739,-0.9985368251800537,0.11297129094600677
1772896240628242200,0.6252421875,0.8732143044471741,-0.9624142050743103,0.3644930124282837
1772896240638210300,0.635210205078125,1.051565408706665,-0.7305929660797119,0.6223897933959961
1772896240648178400,0.645178466796875,1.0927472114562988,-0.30195826292037964,0.8632380962371826
1772896240658146300,0.655146240234375,0.961460292339325,0.1587025672197342,1.0348026752471924
1772896240668114400,0.665114501953125,0.7199988961219788,0.41535484790802,1.0741961002349854
1772896240678083300,0.675083251953125,0.46941277384757996,0.4271145761013031,0.9869304895401001
1772896240688051200,0.68505126953125,0.2488095462322235,0.3030030131340027,0.8453421592712402
1772896240698019300,0.695019287109375,0.05511624738574028,0.23550279438495636,0.7220886945724487
1772896240707987200,0.7049873046875,-0.06986430287361145,0.29163476824760437,0.6834281086921692
1772896240717955300,0.714955322265625,-0.12154800444841385,0.34119701385498047,0.7545489072799683
1772896240727924200,0.72492431640625,-0.13073137402534485,0.2739101052284241,0.7963655591011047
1772896240737892400,0.734892333984375,-0.13770966231822968,-0.0928196832537651,0.7958172559738159
1772896240747860500,0.744860595703125,-0.03508741408586502,-0.45414912700653076,0.8027071356773376
1772896240757828400,0.754828369140625,-0.031208785250782967,-0.93045574426651,0.7480220198631287
1772896240767796200,0.764796142578125,-0.20579177141189575,-1.2010374069213867,0.5783863663673401
1772896240777765400,0.774765380859375,-0.5249465703964233,-1.377278208732605,0.3434321880340576
1772896240787733200,0.784733154296875,-0.6385999321937561,-1.3583301305770874,0.3637390732765198
1772896240797701400,0.794701416015625,-0.710404098033905,-1.0743604898452759,0.4459814727306366
1772896240807669500,0.80466943359375,-0.7502380609512329,-0.5392025113105774,0.5795280933380127
1772896240817637400,0.814637451171875,-0.8503609299659729,0.08530264347791672,0.7133593559265137
1772896240827606500,0.8246064453125,-0.5091977119445801,0.4779777526855469,0.5576968193054199
1772896240837574100,0.83457421875,0.6043609976768494,0.710787296295166,0.3724571764469147
1772896240847542300,0.844542236328125,0.7376253008842468,0.40117326378822327,0.1160387247800827
1772896240857510400,0.854510498046875,0.6842875480651855,0.19987663626670837,-0.12953855097293854
1772896240867478300,0.864478271484375,0.5650628805160522,0.188680961728096,-0.13955868780612946
1772896240877447400,0.874447509765625,0.3217884302139282,0.21314209699630737,0.06606210768222809
1772896240887415300,0.884415283203125,0.033661555498838425,0.3101075291633606,0.3191196620464325
1772896240897383400,0.894383544921875,-0.17891569435596466,0.4551565945148468,0.43530938029289246
1772896240907351300,0.904351318359375,-0.3049013018608093,0.6344637870788574,0.43492457270622253
1772896240917319400,0.9143193359375,-0.33047857880592346,0.7281660437583923,0.3395615518093109
1772896240927288300,0.924288330078125,-0.26445481181144714,0.7305021286010742,0.19333110749721527
1772896240937256400,0.93425634765625,-0.12316161394119263,0.7050918936729431,0.022007830440998077
1772896240947224300,0.944224365234375,0.03803899511694908,0.6472035050392151,-0.16501611471176147
1772896240957192400,0.9541923828125,0.1649777740240097,0.5572536587715149,-0.35004669427871704
1772896240967160300,0.964160400390625,0.2189619094133377,0.5175512433052063,-0.4571686089038849
1772896240977129200,0.974129150390625,0.19973334670066833,0.550211489200592,-0.43337273597717285
1772896240987097300,0.984097412109375,0.1293792873620987,0.5750513076782227,-0.3238441050052643
1772896240997065200,0.994065185546875,0.05237133055925369,0.48744794726371765,-0.281014621257782
1772896241007033300,1.004033447265625,-0.019933760166168213,0.32074472308158875,-0.26694008708000183
1772896241017001500,1.01400146484375,-0.04354694485664368,0.2507762908935547,-0.21614961326122284
1772896241026970400,1.023970458984375,-0.06323862075805664,0.20053362846374512,-0.10915151983499527
1772896241036938500,1.0339384765625,-0.08834131062030792,0.1360209584236145,0.008362059481441975
1772896241046906000,1.043906005859375,-0.09488576650619507,0.07683512568473816,0.05818527564406395
1772896241056874200,1.053874267578125,-0.10667158663272858,-0.05017821490764618,0.026871029287576675
1772896241066842400,1.06384228515625,-0.11693354696035385,-0.23686714470386505,-0.045162152498960495
1772896241076811300,1.073811279296875,-0.1265462189912796,-0.44269487261772156,-0.12333232164382935
1772896241086779400,1.083779296875,-0.13153725862503052,-0.6339857578277588,-0.18127071857452393
1772896241096747500,1.09374755859375,-0.1270628720521927,-0.7804100513458252,-0.2237880825996399
1772896241106715400,1.10371533203125,-0.09714891761541367,-0.8685071468353271,-0.26137247681617737
1772896241116683300,1.113683349609375,-0.06610551476478577,-0.8949505090713501,-0.29780957102775574
1772896241126652200,1.123652099609375,-0.04905489459633827,-0.8686925172805786,-0.30228129029273987
1772896241136620300,1.133620361328125,-0.04526654630899429,-0.7906240820884705,-0.2722557485103607
1772896241146588400,1.14358837890625,-0.02347603067755699,-0.6658094525337219,-0.22308394312858582
1772896241156556300,1.153556396484375,0.0163041390478611,-0.4571044445037842,-0.15544632077217102
1772896241166524400,1.1635244140625,0.02425473928451538,-0.3992142379283905,-0.11563871800899506
1772896241176493300,1.173493408203125,0.02293008379638195,-0.27903324365615845,-0.0857418030500412
1772896241186461400,1.18346142578125,-0.006449110805988312,-0.043771982192993164,-0.07281188666820526
1772896241196429300,1.19342919921875,-0.02731551043689251,0.052751895040273666,-0.06305406987667084
1772896241206397200,1.203397216796875,-0.0701199620962143,0.05570454150438309,-0.06628847867250443
1772896241216365300,1.213365234375,-0.13182008266448975,0.09470147639513016,-0.07155115157365799
1772896241226334200,1.223334228515625,-0.15151947736740112,0.15999498963356018,-0.06154192239046097
1772896241236302300,1.23330224609375,-0.17110836505889893,0.21313756704330444,-0.07379353046417236
1772896241246270500,1.2432705078125,-0.21022140979766846,0.26451820135116577,-0.10260653495788574
1772896241256238300,1.25323828125,-0.23644210398197174,0.24955789744853973,-0.15313363075256348
1772896241266206200,1.263206298828125,-0.25836417078971863,0.21943141520023346,-0.2074432075023651
1772896241276175400,1.27317529296875,-0.27700045704841614,0.21131837368011475,-0.2661730945110321
1772896241286143200,1.283143310546875,-0.2968500554561615,0.17567434906959534,-0.3083447813987732
1772896241296112000,1.293112060546875,-0.3067588806152344,0.12590360641479492,-0.32152849435806274
1772896241306079700,1.303079833984375,-0.26549479365348816,0.16005784273147583,-0.3091288208961487
1772896241316048000,1.3130478515625,-0.17750340700149536,0.15855689346790314,-0.2545819580554962
1772896241326017000,1.32301708984375,-0.11834102123975754,0.09154243022203445,-0.23497575521469116
1772896241335985000,1.33298486328125,-0.06735480576753616,0.035530030727386475,-0.2503536641597748
1772896241345953000,1.342953125,-0.02725825272500515,0.020110327750444412,-0.2904350161552429
1772896241355921200,1.352921142578125,0.0022650184109807014,0.021222731098532677,-0.32624202966690063
1772896241365889000,1.362888916015625,0.031125694513320923,0.016634637489914894,-0.33697348833084106
1772896241375857000,1.37285693359375,0.053458165377378464,0.02389121800661087,-0.32506251335144043
1772896241385825800,1.38282568359375,0.07449048012495041,0.04464070498943329,-0.33121415972709656
1772896241395794000,1.3927939453125,0.09184789657592773,0.05558602884411812,-0.3557879328727722
1772896241405762000,1.402761962890625,0.11124609410762787,0.019539613276720047,-0.3858422338962555
1772896241415730000,1.41272998046875,0.14100664854049683,-0.08684009313583374,-0.38025784492492676
1772896241425698000,1.422697998046875,0.17439603805541992,-0.16386163234710693,-0.3623310625553131
1772896241435667000,1.4326669921875,0.192059725522995,-0.20538590848445892,-0.33372417092323303
1772896241445635000,1.442635009765625,0.18787109851837158,-0.2377619594335556,-0.3052917420864105
1772896241455603000,1.45260302734375,0.15102334320545197,-0.25418514013290405,-0.29400232434272766
1772896241465570800,1.46257080078125,0.09960301965475082,-0.2367749959230423,-0.3064345121383667
1772896241475539000,1.4725390625,0.02911367639899254,-0.20080287754535675,-0.33474814891815186
1772896241485507800,1.4825078125,-0.04038657248020172,-0.20784534513950348,-0.35928598046302795
1772896241495476000,1.49247607421875,-0.09567885845899582,-0.25681766867637634,-0.3932463526725769
1772896241505444000,1.502444091796875,-0.13146720826625824,-0.32032448053359985,-0.43279457092285156
1772896241515412000,1.512411865234375,-0.17006812989711761,-0.39019304513931274,-0.47416359186172485
1772896241525379800,1.5223798828125,-0.2149980515241623,-0.4662230908870697,-0.4866117238998413
1772896241535349000,1.532348876953125,-0.2609248161315918,-0.46514344215393066,-0.4463431239128113
1772896241545316900,1.54231689453125,-0.32275381684303284,-0.37685248255729675,-0.3342043459415436
1772896241555285000,1.552284912109375,-0.3744196593761444,-0.12381888180971146,-0.21175992488861084
1772896241565253000,1.562253173828125,-0.39689382910728455,0.48750999569892883,-0.15705911815166473
1772896241575221000,1.572220947265625,-0.48840588331222534,0.695239245891571,-0.08519558608531952
1772896241585190100,1.582190185546875,-0.6365671157836914,0.6822454333305359,-0.10037028044462204
1772896241595157800,1.59215771484375,-0.7130517959594727,1.3997234106063843,-0.2714189887046814
1772896241605126000,1.6021259765625,-0.6547570824623108,1.7333106994628906,-0.4950414299964905
1772896241615094000,1.612093994140625,-0.5325685739517212,1.9177806377410889,-0.7199176549911499
1772896241625062000,1.622061767578125,-0.3723035156726837,1.9616365432739258,-0.8657390475273132
1772896241635031000,1.632031005859375,-0.3792722225189209,1.3879077434539795,-1.0509639978408813
1772896241644999000,1.6419990234375,-0.5612180233001709,1.1812901496887207,-0.9486560821533203
1772896241654967000,1.651967041015625,-0.9571552872657776,1.2863353490829468,-0.5847923755645752
1772896241664935000,1.661934814453125,-1.1542081832885742,1.0737128257751465,-0.41435110569000244
1772896241674903000,1.671903076171875,-1.2585124969482422,1.1611802577972412,-0.5259711146354675
1772896241684872000,1.681871826171875,-1.4428341388702393,1.2509469985961914,-0.7358913421630859
1772896241694840000,1.691840087890625,-1.5545397996902466,1.2733765840530396,-0.9020051956176758
1772896241704808000,1.701807861328125,-1.5513932704925537,1.2504295110702515,-0.9443135261535645
1772896241714776000,1.711776123046875,-1.496058464050293,1.300978422164917,-0.7572839856147766
1772896241724744200,1.721744140625,-1.336712121963501,1.5182204246520996,-0.3711352050304413
1772896241734713000,1.731713134765625,-1.1359844207763672,1.6991643905639648,-0.042941607534885406
1772896241744681000,1.741680908203125,-0.970798134803772,1.6536542177200317,-0.013086773455142975
1772896241754648800,1.75164892578125,-0.8334924578666687,1.394512414932251,-0.27394020557403564
1772896241764617000,1.761616943359375,-0.7072396874427795,0.9446607828140259,-0.6690952777862549
1772896241774585000,1.771585205078125,-0.5879106521606445,0.42798781394958496,-1.0302704572677612
1772896241784554000,1.781553955078125,-0.4622858762741089,-0.021687451750040054,-1.2555278539657593
1772896241794522000,1.791522216796875,-0.3248388171195984,-0.36903876066207886,-1.349397897720337
1772896241804489700,1.80148974609375,-0.1933436244726181,-0.5816264152526855,-1.3164972066879272
1772896241814457900,1.811457763671875,-0.02334979735314846,-0.7262767553329468,-1.2587417364120483
1772896241824426000,1.821426025390625,0.1768120527267456,-0.9055341482162476,-1.2400256395339966
1772896241834395000,1.831394775390625,0.3538408875465393,-1.0328640937805176,-1.2736232280731201
1772896241844363000,1.841363037109375,0.47575774788856506,-1.1020677089691162,-1.3314937353134155
1772896241854331100,1.8513310546875,0.5244813561439514,-1.1121294498443604,-1.3615493774414062
1772896241864299000,1.861299072265625,0.49363023042678833,-1.057342529296875,-1.2909915447235107
1772896241874267000,1.871266845703125,0.3703620731830597,-0.9925755858421326,-1.1219605207443237
1772896241884235000,1.881235107421875,0.22409328818321228,-0.9052901864051819,-0.8917860984802246
1772896241894204000,1.891203857421875,0.08801454305648804,-0.7864333391189575,-0.5914912819862366
1772896241904172000,1.901172119140625,-0.05036037415266037,-0.6343822479248047,-0.254529744386673
1772896241914140000,1.911139892578125,-0.191856250166893,-0.4742906093597412,0.031390946358442307
1772896241924108000,1.92110791015625,-0.33022239804267883,-0.34910473227500916,0.18351763486862183
1772896241934076200,1.931076171875,-0.17374277114868164,-0.4524287283420563,0.19429677724838257
1772896241944045000,1.941045166015625,0.47988563776016235,-0.42700138688087463,0.2513624429702759
1772896241954013000,1.951012939453125,0.8758572340011597,-0.40020227432250977,0.11632021516561508
1772896241963980800,1.960980712890625,1.0246895551681519,-0.44851627945899963,-0.09299119561910629
1772896241973949000,1.970948974609375,0.9456709027290344,-0.389872670173645,-0.21410590410232544
1772896241983917000,1.9809169921875,0.8086951971054077,-0.24923458695411682,-0.13136814534664154
1772896241993886000,1.990885986328125,0.7016385197639465,-0.12614434957504272,0.0967976525425911
1772896242003854000,2.00085400390625,0.6013593673706055,-0.042092327028512955,0.33143094182014465
1772896242013822000,2.010822021484375,0.4792235791683197,0.0035004590172320604,0.469486266374588
1772896242023789800,2.020789794921875,0.3949816823005676,0.06591083854436874,0.541481077671051
1772896242033758000,2.030758056640625,0.3193633556365967,0.0756223201751709,0.6079877018928528
1772896242043726800,2.040726806640625,0.21307499706745148,0.1046782061457634,0.6888998746871948
1772896242053695000,2.050695068359375,0.013374128378927708,0.1463651955127716,0.7658151388168335
1772896242063663000,2.0606630859375,-0.22946888208389282,0.24443557858467102,0.7924171686172485
1772896242073631000,2.070630859375,-0.4668034017086029,0.3004421293735504,0.7438291311264038
1772896242083598800,2.080598876953125,-0.7447950839996338,0.15175144374370575,0.6729600429534912
1772896242093567700,2.090567626953125,-0.9262546300888062,-0.1480693519115448,0.6150668859481812
1772896242103535900,2.100535888671875,-1.1597179174423218,-0.6494432687759399,0.41131457686424255
1772896242113504000,2.11050390625,-1.278416395187378,-1.079817771911621,0.1427166759967804
1772896242123472000,2.120471923828125,-1.1847245693206787,-1.5317519903182983,-0.14045937359333038
1772896242133440000,2.13043994140625,-0.8099676966667175,-2.1521124839782715,-0.3068358302116394
1772896242143409000,2.140408935546875,-0.41773733496665955,-2.858419418334961,-0.4942944049835205
1772896242153377000,2.150376953125,-0.20788581669330597,-3.5151114463806152,-0.7761170268058777
1772896242163345000,2.160344970703125,-0.3768332898616791,-3.7392401695251465,-0.9625899791717529
1772896242173313000,2.17031298828125,-0.6439957618713379,-3.522953748703003,-0.8342511653900146
1772896242183281000,2.180281005859375,-0.8203628063201904,-2.8642477989196777,-0.45580586791038513
1772896242193249000,2.1902490234375,-0.8573634028434753,-1.9330333471298218,0.06784003227949142
1772896242203218000,2.200218017578125,-0.7717883586883545,-1.009274959564209,0.5210937857627869
1772896242213186000,2.21018603515625,-0.09314379096031189,-0.2878831923007965,0.728419303894043
1772896242223154200,2.220154296875,1.529701828956604,-0.05951659008860588,0.6103157997131348
1772896242233121800,2.230121826171875,3.1570863723754883,-0.07097910344600677,0.2429167777299881
1772896242243090000,2.24008984375,3.767268419265747,-0.1655500829219818,-0.27276068925857544
1772896242253058800,2.250058837890625,3.6469156742095947,-0.050520963966846466,-0.7482395768165588
1772896242263027000,2.26002685546875,2.994549036026001,0.14369484782218933,-0.8211678862571716
1772896242272995000,2.2699951171875,2.139125108718872,0.25924861431121826,-0.4538623094558716
1772896242282963000,2.279962890625,1.4315414428710938,0.2245153933763504,0.08052147179841995
1772896242292931000,2.28993115234375,0.925900936126709,-0.05531065911054611,0.38413649797439575
1772896242302899500,2.2998994140625,0.5313184857368469,-0.48356160521507263,0.38131779432296753
1772896242312867300,2.309867431640625,0.2094983607530594,-0.8225154280662537,0.194972425699234
1772896242322835200,2.319835205078125,-0.09305164963006973,-1.1259751319885254,-0.06898759305477142
1772896242332803300,2.32980322265625,-0.37718695402145386,-1.1299501657485962,-0.3084377348423004
1772896242342771200,2.339771240234375,-0.6034581661224365,-0.8717461228370667,-0.572325587272644
1772896242352740400,2.349740234375,-0.7260887622833252,-0.32222411036491394,-0.741787850856781
1772896242362708200,2.359708251953125,-0.779227077960968,0.2348085194826126,-0.7241861820220947
1772896242372676400,2.36967626953125,-0.7956529259681702,0.7564895153045654,-0.48423245549201965
1772896242382644500,2.37964453125,-0.8016296029090881,1.177157998085022,-0.056593239307403564
1772896242392612000,2.389612060546875,-0.940313458442688,1.533632755279541,0.36243972182273865
1772896242402581200,2.399581298828125,-1.1102486848831177,1.8824002742767334,0.630018949508667
1772896242412549400,2.40954931640625,-1.270135760307312,2.170994758605957,0.7547624707221985
1772896242422517200,2.419517333984375,-1.4554966688156128,2.3556969165802,0.7212106585502625
1772896242432485400,2.4294853515625,-1.6426153182983398,2.4143736362457275,0.5861907601356506
1772896242442453500,2.43945361328125,-1.7941436767578125,2.3988280296325684,0.4142022430896759
1772896242452422400,2.44942236328125,-1.8208122253417969,2.353271722793579,0.28381866216659546
1772896242462390300,2.459390380859375,-1.6514085531234741,2.1947755813598633,0.21723298728466034
1772896242472358100,2.469358154296875,-1.4085078239440918,1.9130761623382568,0.19151084125041962
1772896242482326300,2.479326171875,-1.1925963163375854,1.6011278629302979,0.22818656265735626
1772896242492294400,2.48929443359375,-1.0739644765853882,1.2879962921142578,0.3233011066913605
1772896242502263300,2.49926318359375,-1.0342603921890259,1.06831693649292,0.39477473497390747
1772896242512231400,2.5092314453125,-1.0970194339752197,0.8889428973197937,0.33304932713508606
1772896242522199300,2.51919921875,-1.13374924659729,0.6308237910270691,0.1863192766904831
1772896242532167200,2.529167236328125,-1.0775184631347656,0.19927528500556946,0.0468900091946125
1772896242542135300,2.53913525390625,-0.9672960638999939,-0.22410181164741516,-0.07749532163143158
1772896242552103200,2.549103271484375,-0.8416374325752258,-0.43916085362434387,-0.1647796332836151
1772896242562072300,2.559072265625,-0.6440988183021545,-0.525344729423523,-0.0985737144947052
1772896242572040200,2.569040283203125,-0.5255868434906006,-0.5790287256240845,0.009346097707748413
1772896242582008300,2.57900830078125,-0.5091484785079956,-0.5721654891967773,0.04675605520606041
1772896242591976400,2.5889765625,-0.5851308703422546,-0.4504811465740204,-0.026573287323117256
1772896242601944300,2.5989443359375,-0.5341978669166565,-0.21957257390022278,-0.14781342446804047
1772896242611913200,2.608913330078125,-0.3567141890525818,0.03291454166173935,-0.19978927075862885
1772896242621881300,2.61888134765625,-0.16351889073848724,0.23741894960403442,-0.15960004925727844
1772896242631849200,2.62884912109375,-0.031972579658031464,0.41793519258499146,-0.0675518810749054
1772896242641817300,2.6388173828125,0.015058045275509357,0.559718668460846,0.04357330873608589
1772896242651785500,2.648785400390625,-0.03250521421432495,0.5960873365402222,0.17699182033538818
1772896242661754400,2.65875439453125,-0.15420927107334137,0.5249596238136292,0.3034019470214844
1772896242671722500,2.668722412109375,-0.3054259717464447,0.3565674424171448,0.39570897817611694
1772896242681690000,2.678690185546875,-0.4037541151046753,0.19822679460048676,0.42957213521003723
1772896242691658200,2.688658203125,-0.47840040922164917,0.11813196539878845,0.3986366093158722
1772896242701626400,2.69862646484375,-0.4951418340206146,0.027705663815140724,0.2903822958469391
1772896242711595300,2.70859521484375,-0.4335184097290039,-0.08888113498687744,0.16161739826202393
1772896242721563400,2.7185634765625,-0.33218806982040405,-0.14717108011245728,0.07157111912965775
1772896242731531300,2.72853125,-0.21013405919075012,-0.10595625638961792,0.03858600929379463
1772896242741499100,2.7384990234375,-0.09651748090982437,0.015358449891209602,-0.0030919299460947514
1772896242751467300,2.74846728515625,0.03904939815402031,0.04771319404244423,-0.1384343057870865
1772896242761436200,2.758436279296875,0.19397665560245514,0.09665783494710922,-0.2648332715034485
1772896242771404300,2.768404296875,0.32340601086616516,0.07307208329439163,-0.3461768627166748
1772896242781372400,2.778372314453125,0.41188663244247437,-0.06862566620111465,-0.3841489851474762
1772896242791340300,2.78834033203125,0.4615359306335449,-0.24454902112483978,-0.34398508071899414
1772896242801308400,2.798308349609375,0.4861760437488556,-0.42484050989151,-0.20692574977874756
1772896242811277300,2.80827734375,0.5095306038856506,-0.5964247584342957,-0.03850185126066208
1772896242821245200,2.8182451171875,0.5440611839294434,-0.746430516242981,0.12414192408323288
1772896242831213300,2.82821337890625,0.5631565451622009,-0.8971601128578186,0.18608704209327698
1772896242841181200,2.83818115234375,0.5393809080123901,-1.0601756572723389,0.12284229695796967
1772896242851149300,2.8481494140625,0.47373905777931213,-1.1579618453979492,0.04459916055202484
1772896242861117400,2.858117431640625,0.3395330607891083,-1.1234116554260254,0.0037553233560174704
1772896242871086300,2.86808642578125,0.181525319814682,-0.9921537041664124,0.019689548760652542
1772896242881054500,2.878054443359375,0.010337059386074543,-0.8022117614746094,0.08013558387756348
1772896242891022000,2.88802197265625,-0.14716841280460358,-0.6169971823692322,0.12434352189302444
1772896242900990200,2.897990234375,-0.28315579891204834,-0.4295468330383301,0.1353735327720642
1772896242910958300,2.907958251953125,-0.3939180076122284,-0.2586400806903839,0.1218998059630394
1772896242920927200,2.91792724609375,-0.4834313690662384,-0.155843123793602,0.07165181636810303
1772896242930895400,2.927895263671875,-0.5494951009750366,-0.08667124807834625,0.0024682176299393177
1772896242940863500,2.937863525390625,-0.5832884907722473,-0.030360035598278046,-0.0831950232386589
1772896242950831400,2.947831298828125,-0.5958806872367859,0.031863655894994736,-0.16223683953285217
1772896242960799200,2.95779931640625,-0.6217522621154785,0.10216791182756424,-0.17806294560432434
1772896242970768100,2.96776806640625,-0.6769401431083679,0.1437515765428543,-0.11507093161344528
1772896242980736300,2.977736328125,-0.750844419002533,0.18227393925189972,-0.014403440058231354
1772896242990704400,2.987704345703125,-0.8299504518508911,0.20662587881088257,0.05741562321782112
1772896243000672300,2.99767236328125,-0.8669880628585815,0.19320593774318695,0.0593261756002903
1772896243010640400,3.007640380859375,-0.829512357711792,0.10229361802339554,-0.014937138184905052
1772896243020609300,3.017609375,-0.7085717916488647,-0.02569231390953064,-0.12653130292892456
1772896243030577200,3.0275771484375,-0.5360338687896729,-0.11537826061248779,-0.21059797704219818
1772896243040545300,3.037545166015625,-0.347699373960495,-0.10389364510774612,-0.24919384717941284
1772896243050513200,3.04751318359375,-0.18132612109184265,0.05227811634540558,-0.18816538155078888
1772896243060481300,3.057481201171875,-0.06298748403787613,0.292370080947876,-0.03875751420855522
1772896243070450400,3.067450439453125,0.00749093946069479,0.540807843208313,0.12040417641401291
1772896243080418300,3.077418212890625,0.047999218106269836,0.773914098739624,0.23345109820365906
1772896243090386400,3.087386474609375,0.05861670896410942,0.9901984333992004,0.32278791069984436
1772896243100354300,3.097354248046875,0.0405583456158638,1.2366482019424438,0.42092299461364746
1772896243110322200,3.107322265625,-0.002700711600482464,1.515122652053833,0.5493019819259644
1772896243120291300,3.117291259765625,-0.03219175711274147,1.7869528532028198,0.729619026184082
1772896243130259200,3.12725927734375,-0.029577866196632385,1.924565076828003,0.9114506244659424
1772896243140227300,3.137227294921875,-0.014365623705089092,1.903505802154541,0.9654028415679932
1772896243150195500,3.147195556640625,0.011235344223678112,1.7199573516845703,0.9105331897735596
1772896243160163300,3.157163330078125,-0.028427381068468094,1.310675024986267,0.8302955627441406
1772896243170131200,3.167131103515625,-0.2366146743297577,0.7948041558265686,0.7522503137588501
1772896243180100000,3.17710009765625,-0.5391388535499573,0.18989643454551697,0.6425960063934326
1772896243190068200,3.187068115234375,-0.6928796768188477,-0.517643928527832,0.42860540747642517
1772896243200036400,3.197036376953125,-0.4917724132537842,-1.101477861404419,0.18338952958583832
1772896243210004200,3.207004150390625,-0.029954170808196068,-1.4638445377349854,-0.012407933361828327
1772896243219972400,3.216972412109375,0.5190085768699646,-1.517722487449646,-0.1242322027683258
1772896243229941200,3.226941162109375,0.8119331002235413,-1.2603743076324463,-0.11215823143720627
1772896243239909400,3.236909423828125,0.7780739068984985,-0.9685211181640625,-0.025656627491116524
1772896243249877200,3.246877197265625,0.6958163380622864,-0.7698327898979187,0.07624390721321106
1772896243259845400,3.256845458984375,0.622626543045044,-0.5831185579299927,0.19867926836013794
1772896243269813200,3.266813232421875,0.5058783888816833,-0.37008243799209595,0.314593106508255
1772896243279782400,3.276782470703125,0.35353463888168335,-0.15625032782554626,0.35174819827079773
1772896243289750300,3.286750244140625,0.19356121122837067,0.019419770687818527,0.3169736862182617
1772896243299718400,3.296718505859375,0.051840029656887054,0.10824871063232422,0.2552882134914398
1772896243309686500,3.3066865234375,-0.061165884137153625,0.1547621488571167,0.20781897008419037
1772896243319654400,3.316654296875,-0.1519775539636612,0.14416302740573883,0.147306889295578
1772896243329623600,3.32662353515625,-0.20129236578941345,0.05233937129378319,0.04453737288713455
1772896243339591400,3.33659130859375,-0.20729753375053406,-0.07287926971912384,-0.08596870303153992
1772896243349559300,3.346559326171875,-0.1649916172027588,-0.19021734595298767,-0.22341497242450714
1772896243359527400,3.35652734375,-0.11785659193992615,-0.2996964454650879,-0.36088627576828003
1772896243369495300,3.366495361328125,-0.07392535358667374,-0.396600604057312,-0.48202869296073914
1772896243379464400,3.37646435546875,-0.03881583735346794,-0.4732871353626251,-0.5474625825881958
1772896243389432300,3.386432373046875,0.008433698676526546,-0.5424595475196838,-0.5572278499603271
1772896243399400400,3.396400390625,0.04988766461610794,-0.5900877714157104,-0.5354716777801514
1772896243409368600,3.40636865234375,0.07278605550527573,-0.6059932708740234,-0.5325605869293213
1772896243419336200,3.416336181640625,0.062372297048568726,-0.5628377795219421,-0.5681145787239075
1772896243429304300,3.42630419921875,0.02322729118168354,-0.4329721927642822,-0.584434986114502
1772896243439273500,3.4362734375,-0.05229835957288742,-0.2500167489051819,-0.5533809065818787
1772896243449241300,3.446241455078125,-0.1448216289281845,-0.018161693587899208,-0.47688454389572144
1772896243459209500,3.45620947265625,-0.22138139605522156,0.20988371968269348,-0.3413330912590027
1772896243469177600,3.466177490234375,-0.27768006920814514,0.41073453426361084,-0.18961547315120697
1772896243479145500,3.4761455078125,-0.2935730218887329,0.6031386256217957,-0.09334246069192886
1772896243489114600,3.486114501953125,-0.28923606872558594,0.7254762053489685,-0.047082822769880295
1772896243499082200,3.496082275390625,-0.25841715931892395,0.7895596027374268,-0.031560324132442474
1772896243509050400,3.50605029296875,-0.19027753174304962,0.8092475533485413,-0.03513561561703682
1772896243519018500,3.5160185546875,-0.10182330012321472,0.7907644510269165,-0.05897117406129837
1772896243528986400,3.525986328125,-0.010923221707344055,0.7080663442611694,-0.11984837055206299
1772896243538955500,3.53595556640625,0.0852762833237648,0.586900532245636,-0.21407313644886017
1772896243548923400,3.54592333984375,0.1565272957086563,0.42745840549468994,-0.32329684495925903
1772896243558891500,3.5558916015625,0.18474481999874115,0.21430909633636475,-0.4300573766231537
1772896243568859400,3.565859375,0.1597995162010193,-0.019459186121821404,-0.5069838166236877
1772896243578827300,3.5758271484375,0.10855204612016678,-0.1876623034477234,-0.5306505560874939
1772896243588795400,3.58579541015625,0.0504985935986042,-0.311870276927948,-0.5018423199653625
1772896243598764500,3.5957646484375,-0.02339879982173443,-0.4084077477455139,-0.44782596826553345
1772896243608732400,3.605732421875,-0.08742065727710724,-0.47063034772872925,-0.3813183307647705
1772896243618700500,3.615700439453125,-0.14706668257713318,-0.49743348360061646,-0.33065569400787354
1772896243628668400,3.62566845703125,-0.19935758411884308,-0.4622043967247009,-0.31941768527030945
1772896243638636300,3.63563623046875,-0.2379201501607895,-0.3490583896636963,-0.29826071858406067
1772896243648605400,3.64560546875,-0.27169010043144226,-0.22782596945762634,-0.241020068526268
1772896243658573300,3.6555732421875,-0.29550302028656006,-0.09655609726905823,-0.16202059388160706
1772896243668541400,3.66554150390625,-0.3065823018550873,0.0062517705373466015,-0.0693010464310646
1772896243678509600,3.675509521484375,-0.3162514567375183,0.10626944899559021,0.003266633255407214
1772896243688477400,3.6854775390625,-0.3561927378177643,0.22979751229286194,0.03676201030611992
1772896243698446600,3.695446533203125,-0.4037860929965973,0.2949379086494446,0.053108759224414825
1772896243708414200,3.705414306640625,-0.4337434470653534,0.2996695339679718,0.04569611698389053
1772896243718382300,3.71538232421875,-0.45130619406700134,0.2311011254787445,0.004294613376259804
1772896243728350500,3.7253505859375,-0.4461817443370819,0.10698370635509491,-0.05608830228447914
1772896243738318300,3.735318359375,-0.40927380323410034,-0.004728176165372133,-0.11439208686351776
1772896243748287500,3.74528759765625,-0.3203599154949188,-0.08267384022474289,-0.1429228037595749
1772896243758255400,3.75525537109375,-0.17399336397647858,-0.1031748577952385,-0.1219480112195015
1772896243768223500,3.765223388671875,-0.02377217449247837,-0.060207679867744446,-0.07885593175888062
1772896243778191400,3.77519140625,0.08028711378574371,0.04511155188083649,-0.06498619168996811
1772896243788159500,3.785159423828125,0.12525911629199982,0.13301371037960052,-0.08200965076684952
1772896243798128400,3.79512841796875,0.10832274705171585,0.22959004342556,-0.083216592669487
1772896243808096500,3.805096435546875,0.07508649677038193,0.30939432978630066,-0.07387475669384003
1772896243818064400,3.815064453125,0.059960007667541504,0.27261582016944885,-0.04724820703268051
1772896243828032500,3.825032470703125,0.06733136624097824,0.0878523588180542,-0.06950903683900833
1772896243838000600,3.835000732421875,0.1232239305973053,-0.17159758508205414,-0.15133360028266907
1772896243847969500,3.844969482421875,0.1941545605659485,-0.49506112933158875,-0.2501762807369232
1772896243857937400,3.8549375,0.26558026671409607,-0.7806747555732727,-0.31263861060142517
1772896243867905300,3.8649052734375,0.2733689546585083,-0.9830278754234314,-0.31408682465553284
1772896243877873400,3.874873291015625,0.17511188983917236,-0.9856550693511963,-0.2581798732280731
1772896243887841500,3.884841552734375,0.00327275856398046,-0.7153834104537964,-0.111057810485363
1772896243897809400,3.894809326171875,-0.16991740465164185,-0.2796398997306824,0.1408761590719223
1772896243907778600,3.904778564453125,-0.264273464679718,0.16847184300422668,0.42625942826271057
1772896243917746400,3.914746337890625,-0.27686354517936707,0.5300588011741638,0.6485028862953186
1772896243927714300,3.92471435546875,-0.2383100390434265,0.7831254005432129,0.77145916223526
1772896243937682400,3.934682373046875,-0.17499950528144836,0.8472055792808533,0.8021760582923889
1772896243947650600,3.944650634765625,-0.09815718978643417,0.713841438293457,0.7762608528137207
1772896243957619500,3.954619384765625,-0.05506085604429245,0.4646347761154175,0.6954946517944336
1772896243967587600,3.964587646484375,-0.04860109090805054,0.2021365910768509,0.5462777018547058
1772896243977555500,3.974555419921875,-0.07152984291315079,-0.029216209426522255,0.35336098074913025
1772896243987523300,3.9845234375,-0.10365954786539078,-0.1857253909111023,0.1839887499809265
1772896243997491500,3.994491455078125,-0.1271427720785141,-0.3201087713241577,0.06331133097410202
1772896244007460400,4.00446044921875,-0.15526895225048065,-0.4345988631248474,-0.012427374720573425
1772896244017428500,4.014428466796875,-0.19158834218978882,-0.5321725606918335,-0.035411253571510315
1772896244027396400,4.024396240234375,-0.2323666661977768,-0.5718318223953247,0.011685684323310852
1772896244037364500,4.034364501953125,-0.2929125726222992,-0.5403889417648315,0.1002187430858612
1772896244047332600,4.04433251953125,-0.3442569673061371,-0.41252151131629944,0.2561209797859192
1772896244057301500,4.054301513671875,-0.36104127764701843,-0.2869950234889984,0.4702433943748474
1772896244067269400,4.064269287109375,-0.3602311611175537,-0.1011923998594284,0.6565155386924744
1772896244077237200,4.0742373046875,-0.3515050411224365,0.0968751460313797,0.7294179797172546
1772896244087205400,4.084205322265625,-0.3261951506137848,0.2588329017162323,0.6731011867523193
1772896244097173500,4.094173583984375,-0.2819563150405884,0.3618716597557068,0.5710038542747498
1772896244107142400,4.104142333984375,-0.21918082237243652,0.42737877368927,0.4617689549922943
1772896244117110500,4.114110595703125,-0.17272384464740753,0.4579625129699707,0.33602407574653625
1772896244127078700,4.12407861328125,-0.1575547456741333,0.4811447858810425,0.20811006426811218
1772896244137046300,4.13404638671875,-0.1731416881084442,0.5218772888183594,0.08164000511169434
1772896244147014400,4.144014404296875,-0.17919504642486572,0.5429964661598206,0.007950334809720516
1772896244156982500,4.153982421875,-0.13444969058036804,0.47282880544662476,0.013686783611774445
1772896244166951400,4.163951416015625,-0.081900455057621,0.32336100935935974,0.05793760344386101
1772896244176919600,4.17391943359375,-0.04655897989869118,0.17448285222053528,0.09161407500505447
1772896244186887400,4.183887451171875,0.007547132205218077,0.02857545204460621,0.06785707920789719
1772896244196855300,4.193855224609375,0.09193924069404602,-0.14564162492752075,0.0023164174053817987
1772896244206823400,4.203823486328125,0.20372729003429413,-0.2793826460838318,-0.09378508478403091
1772896244216792300,4.213792236328125,0.3493691682815552,-0.35768675804138184,-0.1600666344165802
1772896244226760400,4.223760498046875,0.49813520908355713,-0.3499870300292969,-0.18100014328956604
1772896244236728300,4.233728271484375,0.5645744204521179,-0.22304479777812958,-0.16157637536525726
1772896244246696400,4.243696533203125,0.5725274085998535,-0.08729442209005356,-0.08565418422222137
1772896244256664600,4.25366455078125,0.5745575428009033,0.060503024607896805,0.05698951706290245
1772896244266633500,4.263633544921875,0.5810894966125488,0.21542496979236603,0.2601468861103058
1772896244276601300,4.273601318359375,0.6003521680831909,0.3544020354747772,0.45560428500175476
1772896244286569500,4.283569580078125,0.6172909140586853,0.4682367146015167,0.6130426526069641
1772896244296537300,4.293537353515625,0.5887788534164429,0.5899338722229004,0.7208753824234009
1772896244306505200,4.303505126953125,0.5165256857872009,0.6741355657577515,0.8068342208862305
1772896244316474000,4.31347412109375,0.4308107793331146,0.6055743098258972,0.9039762020111084
1772896244326442200,4.323442138671875,0.3073681890964508,0.3359130322933197,0.9442669153213501
1772896244336410400,4.333410400390625,0.10292904824018478,-0.1546388417482376,0.8261517286300659
1772896244346378200,4.343378173828125,-0.15148966014385223,-0.783709704875946,0.5495731234550476
1772896244356346400,4.353346435546875,-0.6788890361785889,-1.1094985008239746,0.28410816192626953
1772896244366315300,4.363315185546875,-1.2284009456634521,-1.2744567394256592,0.12503035366535187
1772896244376283400,4.373283447265625,-1.2960984706878662,-1.2385629415512085,0.12741415202617645
1772896244386251300,4.383251220703125,-0.9863792061805725,-0.7848812341690063,0.30294761061668396
1772896244396219100,4.39321923828125,-0.41103866696357727,-0.3011912703514099,0.47064608335494995
1772896244406187300,4.403187255859375,0.1896655410528183,0.024275511503219604,0.39592310786247253
1772896244416155400,4.4131552734375,0.6548576951026917,0.15096448361873627,0.1788131594657898
1772896244426124300,4.423124267578125,0.8837670683860779,0.12587590515613556,0.0507313534617424
1772896244436092400,4.433092529296875,0.8678522706031799,-0.013940316624939442,0.05191006883978844
1772896244446060300,4.443060302734375,0.6181934475898743,-0.2895101010799408,0.11306823045015335
1772896244456028200,4.453028076171875,0.2044878900051117,-0.3725655674934387,0.23805996775627136
1772896244465996300,4.462996337890625,-0.26576775312423706,-0.22303228080272675,0.4253683388233185
1772896244475965200,4.472965087890625,-0.6834909915924072,0.18787136673927307,0.5782577395439148
1772896244485933300,4.482933349609375,-0.943755030632019,0.5761080384254456,0.6770455837249756
1772896244495901400,4.4929013671875,-1.0582778453826904,0.9321039915084839,0.7288432717323303
1772896244505869300,4.502869384765625,-1.0871151685714722,1.1794836521148682,0.7120466828346252
1772896244515837200,4.512837158203125,-1.0699286460876465,1.2125641107559204,0.5845047235488892
1772896244525806000,4.52280615234375,-1.0469285249710083,1.0838913917541504,0.3771137297153473
1772896244535774200,4.532774169921875,-1.0135293006896973,0.8558989763259888,0.13229811191558838
1772896244545742300,4.542742431640625,-0.9857706427574158,0.5991377234458923,-0.10674481838941574
1772896244555710200,4.552710205078125,-0.9401568174362183,0.4042010009288788,-0.28709009289741516
1772896244565678300,4.56267822265625,-0.8696869611740112,0.28575077652931213,-0.3341851830482483
1772896244575647200,4.572647216796875,-0.7649152278900146,0.20707754790782928,-0.29312989115715027
1772896244585615400,4.582615478515625,-0.6656373739242554,0.1577954888343811,-0.21287019550800323
1772896244595583200,4.592583251953125,-0.5909325480461121,0.1237616240978241,-0.17633934319019318
1772896244605551400,4.60255126953125,-0.5388932824134827,0.10409284383058548,-0.2085747867822647
1772896244615519200,4.612519287109375,-0.49100062251091003,0.1428343802690506,-0.2617399990558624
1772896244625487400,4.6224873046875,-0.4350856840610504,0.20158211886882782,-0.2911527454853058
1772896244635456300,4.632456298828125,-0.3738316595554352,0.25108602643013,-0.32023900747299194
1772896244645424400,4.64242431640625,-0.31296324729919434,0.2877606749534607,-0.36152225732803345
1772896244655392500,4.652392578125,-0.2527371942996979,0.29226967692375183,-0.4148262143135071
1772896244665360100,4.662360107421875,-0.176798477768898,0.2759663462638855,-0.46368563175201416
1772896244675328300,4.672328369140625,-0.10755042731761932,0.24731019139289856,-0.5071519017219543
1772896244685297200,4.682297119140625,-0.07104967534542084,0.1603156328201294,-0.538038432598114
1772896244695265300,4.692265380859375,-0.0785030648112297,0.0504104420542717,-0.5420094728469849
1772896244705233400,4.7022333984375,-0.1122136265039444,-0.0832807719707489,-0.5210511684417725
1772896244715201300,4.712201171875,-0.15607722103595734,-0.21147975325584412,-0.5065763592720032
1772896244725169200,4.722169189453125,-0.20440639555454254,-0.29290109872817993,-0.4842465817928314
1772896244735138300,4.73213818359375,-0.23115092515945435,-0.32880106568336487,-0.4635913670063019
1772896244745106200,4.742106201171875,-0.24023976922035217,-0.3274518847465515,-0.44515934586524963
1772896244755074300,4.75207421875,-0.24319161474704742,-0.30855169892311096,-0.440538227558136
1772896244765042400,4.76204248046875,-0.24247708916664124,-0.2596805691719055,-0.4388343393802643
1772896244775010300,4.77201025390625,-0.21430110931396484,-0.22547893226146698,-0.39052194356918335
1772896244784979500,4.7819794921875,-0.18258260190486908,-0.1897110790014267,-0.30677592754364014
1772896244794947300,4.791947265625,-0.16884148120880127,-0.11545069515705109,-0.2538069784641266
1772896244804915200,4.801915283203125,-0.1633543074131012,-0.023988956585526466,-0.2498633712530136
1772896244814883300,4.81188330078125,-0.15925303101539612,0.08556710183620453,-0.2418363243341446
1772896244824851200,4.821851318359375,-0.15960431098937988,0.1672595590353012,-0.19096782803535461
1772896244834820400,4.8318203125,-0.17192542552947998,0.2208801805973053,-0.13179771602153778
1772896244844788200,4.841788330078125,-0.21548914909362793,0.23527216911315918,-0.11310604959726334
1772896244854756400,4.85175634765625,-0.26883918046951294,0.2157362848520279,-0.14634975790977478
1772896244864724500,4.861724365234375,-0.31314221024513245,0.1693834364414215,-0.22879935801029205
1772896244874692000,4.871692138671875,-0.3532986640930176,0.111758753657341,-0.30509039759635925
1772896244884660200,4.88166015625,-0.35328909754753113,0.01203881949186325,-0.322775661945343
1772896244894629000,4.891629150390625,-0.31287163496017456,-0.10650113970041275,-0.33851414918899536
1772896244904597200,4.90159716796875,-0.24727344512939453,-0.19125917553901672,-0.3475411832332611
1772896244914565400,4.9115654296875,-0.18958723545074463,-0.23084013164043427,-0.37288302183151245
1772896244924533200,4.921533203125,-0.1527615785598755,-0.2231936752796173,-0.3929635286331177
1772896244934501400,4.93150146484375,-0.13251224160194397,-0.19266904890537262,-0.34364843368530273
1772896244944470500,4.941470458984375,-0.12326547503471375,-0.1554817408323288,-0.2556469440460205
1772896244954438100,4.951438232421875,-0.12813133001327515,-0.12871137261390686,-0.1271161437034607
1772896244964406300,4.96140625,-0.1251818835735321,-0.18795685470104218,0.0038040592335164547
1772896244974374400,4.97137451171875,-0.10939519852399826,-0.31938013434410095,0.09121726453304291
1772896244984342300,4.98134228515625,-0.09391557425260544,-0.4745878279209137,0.07281428575515747
1772896244994311400,4.9913115234375,-0.06521975249052048,-0.5862877368927002,-0.06880729645490646
1772896245004279300,5.001279296875,0.002877545543015003,-0.6677777767181396,-0.28090357780456543
1772896245014247200,5.0112470703125,0.07540740817785263,-0.7376911044120789,-0.46887534856796265
1772896245024215300,5.02121533203125,0.07528756558895111,-0.7879806160926819,-0.5084674954414368
1772896245034183200,5.03118310546875,-0.034749459475278854,-0.6716942191123962,-0.2990133464336395
1772896245044152300,5.04115234375,-0.2817206382751465,-0.421478807926178,0.07725910097360611
1772896245054120200,5.0511201171875,-0.5559846758842468,-0.12990446388721466,0.46575143933296204
1772896245064085200,5.061085205078125,-0.7804588079452515,0.12262178957462311,0.7111207246780396
1772896245074053400,5.071053466796875,-0.9087983965873718,0.32694563269615173,0.784017026424408
1772896245084021200,5.081021240234375,-0.9266722202301025,0.48340368270874023,0.7396860718727112
1772896245093990400,5.090990478515625,-0.8852448463439941,0.5849875807762146,0.6625593304634094
1772896245103958300,5.100958251953125,-0.8170767426490784,0.6073647737503052,0.6056954860687256
1772896245113926400,5.110926513671875,-0.7155157327651978,0.5368056297302246,0.5735524892807007
1772896245123894300,5.120894287109375,-0.6219460964202881,0.43484601378440857,0.5821505188941956
1772896245133862100,5.130862060546875,-0.5553910732269287,0.3303760588169098,0.6128469109535217
1772896245143830300,5.140830322265625,-0.5285831689834595,0.23141644895076752,0.6262404322624207
1772896245153799200,5.150799072265625,-0.528765857219696,0.0728081613779068,0.5720542073249817
1772896245163767300,5.160767333984375,-0.536019504070282,-0.04668201878666878,0.48394775390625
1772896245173735400,5.1707353515625,-0.5413287878036499,-0.11035500466823578,0.40022677183151245
1772896245183703300,5.180703369140625,-0.5270592570304871,-0.14843767881393433,0.33931174874305725
1772896245193671200,5.190671142578125,-0.5096118450164795,-0.15397411584854126,0.29809242486953735
1772896245203640300,5.200640380859375,-0.47642621397972107,-0.1081504374742508,0.2768917977809906
1772896245213608200,5.210608154296875,-0.4172675311565399,-0.037571344524621964,0.2727993130683899
1772896245223576300,5.220576416015625,-0.34720537066459656,0.05013240873813629,0.2930918037891388
1772896245233544400,5.23054443359375,-0.26750972867012024,0.13070741295814514,0.289081335067749
1772896245243512300,5.24051220703125,-0.2173357754945755,0.18293467164039612,0.24365687370300293
1772896245253481500,5.2504814453125,-0.19376547634601593,0.23883308470249176,0.1924048662185669
1772896245263449000,5.260448974609375,-0.17980065941810608,0.3122258186340332,0.174185648560524
1772896245273417200,5.270417236328125,-0.18217326700687408,0.3433155417442322,0.1695709228515625
1772896245283385300,5.28038525390625,-0.20948664844036102,0.33542487025260925,0.14110492169857025
1772896245293353200,5.290353271484375,-0.24646809697151184,0.3133845627307892,0.14135552942752838
1772896245303322000,5.300322021484375,-0.29757896065711975,0.2902504801750183,0.19166824221611023
1772896245313291000,5.310291015625,-0.3600636422634125,0.23643970489501953,0.1998196393251419
1772896245323259000,5.3202587890625,-0.42161327600479126,0.16863055527210236,0.14896151423454285
1772896245333227000,5.33022705078125,-0.4509280323982239,0.12056928873062134,0.05186772346496582
1772896245343195000,5.34019482421875,-0.4507397413253784,0.06376726180315018,-0.04639892280101776
1772896245353163000,5.3501630859375,-0.41282910108566284,-0.004232029430568218,-0.1478176862001419
1772896245363132000,5.3601318359375,-0.3429450988769531,-0.11421738564968109,-0.2621365487575531
1772896245373100000,5.37010009765625,-0.2587745785713196,-0.26983919739723206,-0.40348196029663086
1772896245383068000,5.38006787109375,-0.17299415171146393,-0.3911041021347046,-0.5357337594032288
1772896245393035800,5.390035888671875,-0.08491728454828262,-0.46007439494132996,-0.5809313058853149
1772896245403004000,5.40000390625,0.006410761270672083,-0.4816177785396576,-0.5463115572929382
1772896245412972800,5.409972900390625,0.0662732943892479,-0.44679614901542664,-0.4848761558532715
1772896245422941000,5.41994091796875,0.07019346952438354,-0.3329217731952667,-0.42979663610458374
1772896245432909000,5.429908935546875,0.0450790598988533,-0.13547687232494354,-0.34712308645248413
1772896245442877000,5.439876953125,-0.003745736088603735,0.055930908769369125,-0.18533843755722046
1772896245452844800,5.4498447265625,-0.019691679626703262,0.21202251315116882,0.04422525316476822
1772896245462814000,5.45981396484375,0.013647901825606823,0.26622849702835083,0.28669142723083496
1772896245472781800,5.46978173828125,0.058407384902238846,0.19640973210334778,0.43237191438674927
1772896245482750000,5.47975,0.1023292988538742,0.09980036318302155,0.4614006578922272
1772896245492718800,5.48971875,0.14124394953250885,0.05494873598217964,0.4320773780345917
1772896245502687000,5.49968701171875,0.17677956819534302,0.05727074667811394,0.4148730933666229
1772896245512656000,5.50965576171875,0.19236011803150177,0.11210682988166809,0.43654564023017883
1772896245522624000,5.5196240234375,0.1776277869939804,0.2012055516242981,0.4891446530818939
1772896245532592000,5.529592041015625,0.13082219660282135,0.2134598195552826,0.5164748430252075
1772896245542559700,5.539559814453125,-0.013220730237662792,0.13714613020420074,0.5266252160072327
1772896245552528000,5.54952783203125,-0.2859838306903839,0.08119206130504608,0.5506189465522766
1772896245562497000,5.5594970703125,-0.42499762773513794,0.06627515703439713,0.617980420589447
1772896245572465000,5.56946484375,-0.2702445387840271,-0.0194927416741848,0.64967280626297
1772896245582433000,5.57943310546875,0.0657462552189827,-0.22480061650276184,0.5611895322799683
1772896245592401200,5.589401123046875,0.45467910170555115,-0.4876527488231659,0.35776081681251526
1772896245602369000,5.599369140625,0.7868426442146301,-0.8296737670898438,0.11711090803146362
1772896245612337000,5.6093369140625,0.9336805939674377,-1.2246778011322021,-0.06977881491184235
1772896245622305800,5.619305908203125,0.8596204519271851,-1.5731630325317383,-0.19254069030284882
1772896245632274000,5.62927392578125,0.688521146774292,-1.6959729194641113,-0.19748005270957947
1772896245642242000,5.639241943359375,0.44154223799705505,-1.4588061571121216,-0.06720220297574997
1772896245652210000,5.6492099609375,0.170185849070549,-1.09842050075531,0.044247355312108994
1772896245662178000,5.659177978515625,-0.08697431534528732,-0.801870584487915,0.0533796027302742
1772896245672147000,5.66914697265625,-0.29444921016693115,-0.5159869194030762,0.07888815551996231
1772896245682115000,5.679114990234375,-0.4738578498363495,-0.23303458094596863,0.1641324758529663
1772896245692083000,5.6890830078125,-0.6045770049095154,-0.04823863506317139,0.2038806974887848
1772896245702050800,5.69905078125,-0.6542752981185913,0.054658982902765274,0.15830788016319275
1772896245712019000,5.70901904296875,-0.6277424693107605,0.04843171313405037,0.03351428359746933
1772896245721987800,5.71898779296875,-0.550826370716095,-0.047021303325891495,-0.1560330092906952
1772896245731956000,5.7289560546875,-0.452864408493042,-0.10910890996456146,-0.3327302932739258
1772896245741924000,5.738924072265625,-0.3442508578300476,-0.12005530297756195,-0.4339578449726105
1772896245751892000,5.74889208984375,-0.26574432849884033,-0.08735328167676926,-0.464741587638855
1772896245761859800,5.75885986328125,-0.2200585901737213,-0.014939268119633198,-0.4142799973487854
1772896245771829000,5.7688291015625,-0.19728484749794006,0.08147168904542923,-0.3354126214981079
1772896245781796900,5.778796875,-0.17807865142822266,0.11324906349182129,-0.31236696243286133
1772896245791765000,5.788764892578125,-0.14799079298973083,0.09681975096464157,-0.3284899890422821
1772896245801733000,5.798733154296875,-0.10495144873857498,0.060684118419885635,-0.36504775285720825
1772896245811701000,5.808700927734375,-0.036020051687955856,0.033000826835632324,-0.38867664337158203
1772896245821670100,5.818670166015625,0.03852182626724243,0.04240791127085686,-0.3836158215999603
1772896245831637800,5.8286376953125,0.09177839010953903,0.088307224214077,-0.37125077843666077
1772896245841606000,5.83860595703125,0.10953501611948013,0.1423579454421997,-0.365482360124588
1772896245851574000,5.848573974609375,0.08007139712572098,0.21432428061962128,-0.36985155940055847
1772896245861542000,5.8585419921875,0.0337638221681118,0.28964248299598694,-0.3564284145832062
1772896245871511000,5.868510986328125,-0.00421471893787384,0.36455318331718445,-0.3275437653064728
1772896245881479000,5.87847900390625,-0.012626312673091888,0.45375683903694153,-0.295841246843338
1772896245891447000,5.888447021484375,-0.017002152279019356,0.5244874954223633,-0.23495818674564362
1772896245901415000,5.898414794921875,-0.03465092182159424,0.5401644110679626,-0.16388054192066193
1772896245911383000,5.908383056640625,-0.06537900865077972,0.4992383122444153,-0.13327336311340332
1772896245921352000,5.91835205078125,-0.09058050066232681,0.43538475036621094,-0.14106790721416473
1772896245931320000,5.928320068359375,-0.089045450091362,0.34867969155311584,-0.17560777068138123
1772896245941288000,5.938287841796875,-0.07244729995727539,0.22212573885917664,-0.20986135303974152
1772896245951256000,5.948256103515625,-0.06316884607076645,0.12315735220909119,-0.25828269124031067
1772896245961224200,5.95822412109375,-0.06466794013977051,0.04433657228946686,-0.32475677132606506
1772896245971193000,5.968193115234375,-0.06851967424154282,-0.03513801470398903,-0.41839832067489624
1772896245981161000,5.978160888671875,-0.09811138361692429,-0.10493201017379761,-0.5020231604576111
1772896245991128800,5.98812890625,-0.14398033916950226,-0.13701990246772766,-0.5094419121742249
1772896246001097000,5.998096923828125,-0.20010726153850555,-0.11742410063743591,-0.44804275035858154
1772896246011065000,6.008065185546875,-0.24883218109607697,-0.05078088864684105,-0.3772958815097809
1772896246021033000,6.018032958984375,-0.26341965794563293,0.025361549109220505,-0.3352677524089813
1772896246031002000,6.028002197265625,-0.22931388020515442,0.0901956707239151,-0.31011471152305603
1772896246040969700,6.0379697265625,-0.1651839017868042,0.1430056244134903,-0.24000327289104462
1772896246050937900,6.047937744140625,-0.07783593982458115,0.22455428540706635,-0.1696910262107849
1772896246060906000,6.057906005859375,0.005916212219744921,0.31735292077064514,-0.13409681618213654
1772896246070873900,6.067873779296875,0.0982823595404625,0.39009156823158264,-0.14457902312278748
1772896246080843000,6.077843017578125,0.17358297109603882,0.43447235226631165,-0.18501539528369904
1772896246090811100,6.08781103515625,0.24973472952842712,0.4843781292438507,-0.18971693515777588
1772896246100779000,6.097779052734375,0.3188861012458801,0.5390541553497314,-0.1227557435631752
1772896246110747000,6.107746826171875,0.3592013120651245,0.5867673754692078,-0.022478677332401276
1772896246120715000,6.117715087890625,0.35878637433052063,0.6649249792098999,0.06790155172348022
1772896246130684000,6.127683837890625,0.33233320713043213,0.7595111727714539,0.1373293697834015
1772896246140652000,6.137652099609375,0.29428061842918396,0.8235822916030884,0.2088482826948166
1772896246150620000,6.147619873046875,0.26588359475135803,0.8432428240776062,0.3029737174510956
1772896246160588000,6.157588134765625,0.25543469190597534,0.815168559551239,0.4119718372821808
1772896246170556200,6.16755615234375,0.25187671184539795,0.7235209345817566,0.4866894781589508
1772896246180525000,6.177525146484375,0.24981090426445007,0.5702730417251587,0.5156462788581848
1772896246190493000,6.187492919921875,0.2769991159439087,0.34541359543800354,0.4959319829940796
1772896246200460800,6.197460693359375,0.33773621916770935,0.07738479971885681,0.41965824365615845
1772896246210429000,6.207428955078125,0.4165082573890686,-0.173023983836174,0.306079238653183
1772896246220397000,6.21739697265625,0.5067231059074402,-0.3919254243373871,0.16538123786449432
1772896246230366000,6.227365966796875,0.6013710498809814,-0.643394410610199,-0.005754558369517326
1772896246240334000,6.237333984375,0.6852462291717529,-0.8701897263526917,-0.14334037899971008
1772896246250302000,6.247302001953125,0.7044764161109924,-1.0309650897979736,-0.1776839792728424
1772896246260269800,6.257269775390625,0.6417770981788635,-1.0951645374298096,-0.1242857351899147
1772896246270238000,6.267238037109375,0.5503227710723877,-1.0471829175949097,0.009783388115465641
1772896246280206800,6.277206787109375,0.4659842252731323,-0.9063701033592224,0.16276760399341583
1772896246290175000,6.287175048828125,0.3769925534725189,-0.6904703378677368,0.2616313397884369
1772896246300143000,6.29714306640625,0.27802708745002747,-0.4102141559123993,0.2882067561149597
1772896246310110200,6.307110107421875,0.16479134559631348,-0.06915882974863052,0.3028799891471863
1772896246320078000,6.317078125,0.009210276417434216,0.3245975375175476,0.3547394573688507
1772896246330047200,6.327047119140625,-0.17802992463111877,0.688004732131958,0.46676957607269287
1772896246340015000,6.33701513671875,-0.3646669089794159,0.9495497941970825,0.610580563545227
1772896246349983200,6.346983154296875,-0.5402632355690002,1.1188442707061768,0.7173045873641968
1772896246359951400,6.356951416015625,-0.6408588290214539,1.1725780963897705,0.7583298087120056
1772896246369919000,6.3669189453125,-0.6511921286582947,1.0664197206497192,0.7271298170089722
1772896246379887000,6.37688720703125,-0.5794239640235901,0.8542627096176147,0.6369897723197937
1772896246389856000,6.38685595703125,-0.4628145098686218,0.6072002053260803,0.5320156812667847
1772896246399824100,6.39682421875,-0.3258867561817169,0.3352168798446655,0.4060567021369934
1772896246409792300,6.406792236328125,-0.20671802759170532,0.07587292790412903,0.2551814317703247
1772896246419760000,6.416760009765625,-0.12442794442176819,-0.08868273347616196,0.10206910967826843
1772896246429728300,6.426728271484375,-0.09358694404363632,-0.19874557852745056,-0.033897511661052704
1772896246439697200,6.436697265625,-0.09285883605480194,-0.29597920179367065,-0.1524137705564499
1772896246449665000,6.4466650390625,-0.1020832285284996,-0.3573642671108246,-0.22615404427051544
1772896246459633200,6.456633056640625,-0.10244648158550262,-0.3793361485004425,-0.2509709596633911
1772896246469601300,6.466601318359375,-0.10829105228185654,-0.3293427526950836,-0.22050787508487701
1772896246479569200,6.476569091796875,-0.11964810639619827,-0.2178737372159958,-0.1346355825662613
1772896246489538300,6.486538330078125,-0.13226482272148132,-0.08658256381750107,-0.02840128168463707
1772896246499506200,6.496506103515625,-0.13505636155605316,0.036853354424238205,0.06969892233610153
1772896246509474300,6.506474365234375,-0.13492639362812042,0.11780120432376862,0.1317436546087265
1772896246519442200,6.516442138671875,-0.13482625782489777,0.17464397847652435,0.15375041961669922
1772896246529410000,6.52641015625,-0.12219887971878052,0.1973322480916977,0.1518971174955368
1772896246539379200,6.536379150390625,-0.11430633813142776,0.17277656495571136,0.10722658783197403
1772896246549347000,6.54634716796875,-0.1306179314851761,0.12884560227394104,0.04108431935310364
1772896246559315200,6.556315185546875,-0.1605720967054367,0.09911033511161804,-0.000639691308606416
1772896246569283300,6.566283447265625,-0.19386640191078186,0.06983500719070435,-0.002348109148442745
1772896246579251200,6.576251220703125,-0.2193419337272644,0.03767041489481926,0.004477572627365589
1772896246589220400,6.586220458984375,-0.2375188171863556,0.012386628426611423,0.000254331884207204
1772896246599188000,6.59618798828125,-0.26632437109947205,-0.02792510762810707,-0.045039113610982895
1772896246609156000,6.606156005859375,-0.27689656615257263,-0.05916851386427879,-0.1309010237455368
1772896246619124200,6.616124267578125,-0.29360657930374146,-0.05843321606516838,-0.2155677080154419
1772896246629092000,6.626092041015625,-0.3034754693508148,-0.03893940895795822,-0.26905357837677
1772896246639061200,6.636061279296875,-0.3051769435405731,0.02822071872651577,-0.2114563137292862
1772896246649029400,6.646029296875,-0.29579970240592957,0.13750220835208893,-0.02876720018684864
1772896246658997000,6.6559970703125,-0.28604987263679504,0.29210108518600464,0.2160065919160843
1772896246668965000,6.665965087890625,-0.28381919860839844,0.46018463373184204,0.4090878963470459
1772896246678933200,6.675933349609375,-0.25976020097732544,0.5928745269775391,0.48473766446113586
1772896246688902100,6.685902099609375,-0.1940741389989853,0.6825495362281799,0.45748844742774963
1772896246698870300,6.695870361328125,-0.07887164503335953,0.6868204474449158,0.3675258159637451
1772896246708838100,6.705838134765625,0.07438768446445465,0.6361538171768188,0.24391545355319977
1772896246718806300,6.71580615234375,0.237283393740654,0.556056022644043,0.11896420270204544
1772896246728774100,6.725774169921875,0.38909316062927246,0.4648803174495697,0.04298501834273338
1772896246738742000,6.735741943359375,0.5126755237579346,0.35469043254852295,0.04621143639087677
1772896246748711200,6.745711181640625,0.6240478754043579,0.26540929079055786,0.12789911031723022
1772896246758679000,6.755678955078125,0.7129431366920471,0.20055653154850006,0.22595377266407013
1772896246768647200,6.765647216796875,0.777437150478363,0.11819987744092941,0.297564297914505
1772896246778615300,6.775615234375,0.8087631464004517,-0.13895149528980255,0.26573365926742554
1772896246788583200,6.785583251953125,0.7993656396865845,-0.6595845818519592,0.13002218306064606
1772896246798552300,6.79555224609375,0.7063204050064087,-1.3698378801345825,-0.09260024130344391
1772896246808520200,6.805520263671875,0.5878624320030212,-2.0398406982421875,-0.2792811691761017
1772896246818488000,6.815488037109375,0.5409295558929443,-2.3812179565429688,-0.3474924564361572
1772896246828456200,6.825456298828125,0.48790228366851807,-2.2039222717285156,-0.3066938817501068
1772896246838424300,6.83542431640625,0.4432823657989502,-1.8024353981018066,-0.21927030384540558
1772896246848393200,6.845393310546875,0.4946640729904175,-1.5039054155349731,-0.10462281852960587
1772896246858361300,6.855361328125,0.685610830783844,-1.204746127128601,0.0917632058262825
1772896246868329200,6.8653291015625,1.0025032758712769,-0.733874499797821,0.36757373809814453
1772896246878297000,6.875297119140625,1.3520616292953491,-0.10929453372955322,0.5558605790138245
1772896246888265200,6.88526513671875,1.5824841260910034,0.3653537333011627,0.5216080546379089
1772896246898234000,6.895234130859375,1.5986149311065674,0.5262395739555359,0.27179956436157227
1772896246908202200,6.9052021484375,1.4017423391342163,0.48455682396888733,-0.060442037880420685
1772896246918170000,6.915170166015625,1.0396761894226074,0.2318556010723114,-0.3045652210712433
1772896246928138200,6.92513818359375,0.6430431604385376,-0.019936423748731613,-0.3931685984134674
1772896246938106000,6.935106201171875,0.31696730852127075,-0.08789869397878647,-0.2952939569950104
1772896246948075000,6.945074951171875,0.1378481537103653,-0.016828248277306557,-0.10764922946691513
1772896246958043100,6.955043212890625,0.1029072105884552,0.063434898853302,0.020848024636507034
1772896246968011300,6.96501123046875,0.12595580518245697,0.09653506428003311,-0.004226702731102705
1772896246977979100,6.974979248046875,0.17379389703273773,0.04623354226350784,-0.15539491176605225
1772896246987947300,6.984947265625,0.23702426254749298,-0.028332306072115898,-0.3540869653224945
1772896246997916200,6.994916259765625,0.290576696395874,-0.14759372174739838,-0.4998819828033447
1772896247007884300,7.00488427734375,0.35705825686454773,-0.2830982804298401,-0.5771937966346741
1772896247017852200,7.01485205078125,0.4295700192451477,-0.38700205087661743,-0.5898081660270691
1772896247027820000,7.024820068359375,0.48762452602386475,-0.39051875472068787,-0.5678940415382385
1772896247037788200,7.0347880859375,0.49616900086402893,-0.25965821743011475,-0.4917428493499756
1772896247047757000,7.044757080078125,0.42856255173683167,-0.10446649044752121,-0.40648066997528076
1772896247057725200,7.05472509765625,0.32815444469451904,0.07430006563663483,-0.32861223816871643
1772896247067693300,7.064693359375,0.21448327600955963,0.25541257858276367,-0.2480689287185669
1772896247077661200,7.0746611328125,0.12050484120845795,0.42328041791915894,-0.1668901890516281
1772896247087629000,7.084629150390625,0.07596400380134583,0.5717236995697021,-0.10691633075475693
1772896247097597200,7.09459716796875,0.06051873788237572,0.659902036190033,-0.08219793438911438
1772896247107566000,7.104566162109375,0.06234966218471527,0.6762482523918152,-0.10205339640378952
1772896247117534200,7.1145341796875,0.12252804636955261,0.619172990322113,-0.16507044434547424
1772896247127502000,7.124502197265625,0.23236693441867828,0.528696596622467,-0.24739088118076324
1772896247137470200,7.13447021484375,0.3809569478034973,0.41449838876724243,-0.31469616293907166
1772896247147438300,7.144438232421875,0.5309171676635742,0.29513949155807495,-0.3353625535964966
1772896247157407200,7.1544072265625,0.6200017333030701,0.21220387518405914,-0.33549436926841736
1772896247167375000,7.164375,0.6394832730293274,0.146070659160614,-0.3571051359176636
1772896247177343200,7.17434326171875,0.6102186441421509,0.047679103910923004,-0.4101814031600952
1772896247187311000,7.18431103515625,0.5519608855247498,-0.07121346145868301,-0.4624267518520355
1772896247197279200,7.194279296875,0.49707314372062683,-0.1603337526321411,-0.49462011456489563
1772896247207248100,7.204248046875,0.45405352115631104,-0.20299705862998962,-0.4901433289051056
1772896247217216300,7.21421630859375,0.40920400619506836,-0.239244282245636,-0.456445574760437
1772896247227184000,7.22418408203125,0.37438079714775085,-0.27090686559677124,-0.4145822823047638
1772896247237152000,7.234152099609375,0.3859492838382721,-0.2779647707939148,-0.3653569221496582
1772896247247120100,7.2441201171875,0.43386995792388916,-0.2568672001361847,-0.2998993694782257
1772896247257089000,7.254089111328125,0.5101607441902161,-0.18629051744937897,-0.23379944264888763
1772896247267057200,7.26405712890625,0.5997568964958191,-0.08934372663497925,-0.18354612588882446
1772896247277025300,7.274025390625,0.6755542159080505,0.006577474996447563,-0.13767530024051666
1772896247286993200,7.2839931640625,0.7087366580963135,0.10859225690364838,-0.08481208980083466
1772896247296961000,7.2939609375,0.699060320854187,0.20949436724185944,-0.011641476303339005
1772896247306930700,7.3039306640625,0.6593995094299316,0.2543947398662567,0.08494578301906586
1772896247316898800,7.31389892578125,0.6030310392379761,0.23218263685703278,0.19483260810375214
1772896247326866700,7.32386669921875,0.5533127188682556,0.16298732161521912,0.3095059096813202
1772896247336834600,7.33383447265625,0.5277695655822754,0.07492430508136749,0.40787509083747864
1772896247346802700,7.343802734375,0.5276036262512207,-0.016219450160861015,0.4631117284297943
1772896247356771600,7.353771484375,0.5067878365516663,-0.0860709697008133,0.4728812575340271
1772896247366739700,7.36373974609375,0.4586101770401001,-0.11095581203699112,0.49380651116371155
1772896247376707800,7.373707763671875,0.39526689052581787,-0.1048441231250763,0.4960488975048065
1772896247386675700,7.38367578125,0.31837132573127747,-0.051124170422554016,0.48015090823173523
1772896247396643600,7.3936435546875,0.2987017333507538,0.15108618140220642,0.46944764256477356
1772896247406612700,7.40361279296875,0.39002498984336853,0.5041550397872925,0.45898833870887756
1772896247416580600,7.41358056640625,0.48997023701667786,0.9017178416252136,0.37040629982948303
1772896247426548700,7.423548828125,0.4984513521194458,1.1110113859176636,0.1270892471075058
1772896247436516900,7.433516845703125,0.4840894341468811,1.0046693086624146,-0.18485985696315765
1772896247446484700,7.443484619140625,0.5359640717506409,0.634792685508728,-0.4783090651035309
1772896247456454000,7.453453857421875,0.6493687033653259,0.1624448299407959,-0.5978474617004395
1772896247466421500,7.46342138671875,0.6991194486618042,-0.1492139846086502,-0.5001283288002014
1772896247476389600,7.4733896484375,0.6412566900253296,-0.3169398605823517,-0.23620188236236572
1772896247486357800,7.483357666015625,0.5234254002571106,-0.3612098693847656,0.05443501099944115
1772896247496325600,7.49332568359375,0.4484771192073822,-0.2686341106891632,0.1993245631456375
1772896247506293800,7.503293701171875,0.5187488794326782,-0.17485862970352173,0.1525258868932724
1772896247516262700,7.5132626953125,0.7107422947883606,-0.1634773463010788,-0.06692017614841461
1772896247526230800,7.523230712890625,0.9549522995948792,-0.23409052193164825,-0.3650844991207123
1772896247536198700,7.53319873046875,1.1423429250717163,-0.37802958488464355,-0.6109989285469055
1772896247546166800,7.543166748046875,1.2740086317062378,-0.5300074219703674,-0.7163386344909668
1772896247556134700,7.553134765625,1.367390751838684,-0.7106019258499146,-0.7180851697921753
1772896247566103800,7.563103759765625,1.4233291149139404,-0.8027603626251221,-0.6539559960365295
1772896247576071700,7.57307177734375,1.4527077674865723,-0.793417751789093,-0.5754169821739197
1772896247586039800,7.583039794921875,1.4705573320388794,-0.7822553515434265,-0.49423715472221375
1772896247596008000,7.593008056640625,1.4880784749984741,-0.7467575669288635,-0.41138675808906555
1772896247605975600,7.6029755859375,1.4873418807983398,-0.6794331073760986,-0.31890103220939636
1772896247615944700,7.61294482421875,1.4797966480255127,-0.5599823594093323,-0.19843213260173798
1772896247625912600,7.62291259765625,1.4575507640838623,-0.4111265540122986,-0.057741858065128326
1772896247635880700,7.632880615234375,1.4067599773406982,-0.274923712015152,0.05891604721546173
1772896247645848800,7.642848876953125,1.3066993951797485,-0.13519829511642456,0.16642679274082184
1772896247655816700,7.652816650390625,1.1562612056732178,-0.01733371615409851,0.2663467228412628
1772896247665785900,7.662785888671875,0.9764407873153687,0.05813068151473999,0.30443766713142395
1772896247675753700,7.672753662109375,0.8222062587738037,0.07104115188121796,0.2508071959018707
1772896247685721600,7.6827216796875,0.7247827649116516,0.04825594648718834,0.162605419754982
1772896247695689700,7.692689697265625,0.7106181979179382,-0.0425993911921978,0.06939798593521118
1772896247705657600,7.70265771484375,0.7688596844673157,-0.16665954887866974,-0.02767397277057171
1772896247715626800,7.712626708984375,0.8449214100837708,-0.2991486191749573,-0.11081120371818542
1772896247725595000,7.722594970703125,0.9108956456184387,-0.38703641295433044,-0.18894942104816437
1772896247735562800,7.732562744140625,0.9574878811836243,-0.3897911608219147,-0.2624918222427368
1772896247745530600,7.742530517578125,0.9692934155464172,-0.34747302532196045,-0.31461891531944275
1772896247755498800,7.752498779296875,0.9492997527122498,-0.29270830750465393,-0.34230515360832214
1772896247765467600,7.762467529296875,0.9205439686775208,-0.20127318799495697,-0.32033035159111023
1772896247775435800,7.772435791015625,0.8742787837982178,-0.034983016550540924,-0.25449034571647644
1772896247785403600,7.782403564453125,0.8427575826644897,0.17446421086788177,-0.17350095510482788
1772896247795371800,7.792371826171875,0.8394781947135925,0.3615765869617462,-0.051847752183675766
1772896247805340000,7.80233984375,0.8588883280754089,0.4944475293159485,0.09438616037368774
1772896247815308800,7.812308837890625,0.893097460269928,0.6001563668251038,0.17947255074977875
1772896247825276700,7.822276611328125,0.9452728033065796,0.6794579029083252,0.18186913430690765
1772896247835244500,7.83224462890625,0.9934336543083191,0.7182212471961975,0.10524360090494156
1772896247845212700,7.842212646484375,1.0294609069824219,0.7260704040527344,-0.009941580705344677
1772896247855180800,7.852180908203125,1.0635650157928467,0.6942400336265564,-0.130344420671463
1772896247865149700,7.862149658203125,1.0709668397903442,0.5923799872398376,-0.22629837691783905
1772896247875117800,7.872117919921875,1.0475245714187622,0.3600841462612152,-0.3210848271846771
1772896247885085700,7.882085693359375,1.0094929933547974,0.07249763607978821,-0.38061952590942383
1772896247895053600,7.892053466796875,0.9516848921775818,-0.15099883079528809,-0.3605960011482239
1772896247905021700,7.902021728515625,0.8608010411262512,-0.24267442524433136,-0.27185121178627014
1772896247914990600,7.911990478515625,0.761962890625,-0.2582254111766815,-0.1566561907529831
1772896247924958700,7.921958740234375,0.6786418557167053,-0.24264779686927795,-0.09877397865056992
1772896247934926800,7.9319267578125,0.6196030378341675,-0.2045147866010666,-0.08856981247663498
1772896247944894700,7.941894775390625,0.6239264607429504,-0.20277361571788788,-0.07206114381551743
1772896247954862600,7.951862548828125,0.7201004028320312,-0.28504958748817444,-0.06397099047899246
1772896247964831700,7.961831787109375,0.8799765706062317,-0.5840269327163696,-0.09875001013278961
1772896247974799600,7.971799560546875,1.0707720518112183,-1.2092761993408203,-0.2327360361814499
1772896247984767700,7.981767822265625,1.176257848739624,-1.9744141101837158,-0.44239553809165955
1772896247994735600,7.991735595703125,1.0654793977737427,-2.506391763687134,-0.6344674825668335
1772896248004703700,8.001703857421875,0.8432945013046265,-2.601830005645752,-0.7161575555801392
1772896248014672600,8.011672607421875,0.6441875100135803,-2.1748194694519043,-0.5786337852478027
1772896248024640800,8.021640869140626,0.6000429391860962,-1.2242809534072876,-0.27643531560897827
1772896248034608600,8.031608642578124,0.7065140008926392,0.013305419124662876,0.0627984032034874
1772896248044576800,8.04157666015625,0.8383013010025024,0.9872583150863647,0.27032336592674255
1772896248054544600,8.051544677734375,0.9449737071990967,1.467664122581482,0.3550281226634979
1772896248064513800,8.061513671875,1.0397387742996216,1.6176695823669434,0.4325285255908966
1772896248074481700,8.071481689453124,1.1097373962402344,1.5534248352050781,0.4970654249191284
1772896248084449800,8.08144970703125,1.137204885482788,1.305396556854248,0.5624420642852783
1772896248094418000,8.09141796875,1.1184169054031372,0.9507037401199341,0.5337963104248047
1772896248104385500,8.101385498046875,1.079207181930542,0.595719575881958,0.38590481877326965
1772896248114353700,8.111353759765626,1.023995041847229,0.3248193562030792,0.14126046001911163
1772896248124322600,8.121322509765625,0.9733688831329346,0.09165029227733612,-0.08442273736000061
1772896248134290700,8.131290771484375,0.9693298935890198,-0.044970136135816574,-0.2301170974969864
1772896248144258800,8.1412587890625,1.0739601850509644,-0.06483864784240723,-0.26496243476867676
1772896248154226700,8.151226806640626,1.279707431793213,-0.05035718157887459,-0.24121394753456116
1772896248164194800,8.16119482421875,1.5104267597198486,-0.03581685200333595,-0.235881507396698
1772896248174163700,8.171163818359375,1.682039499282837,-0.03159654140472412,-0.2537451982498169
1772896248184131600,8.181131591796875,1.7895382642745972,-0.0389372780919075,-0.2712421417236328
1772896248194099700,8.191099609375,1.8126152753829956,-0.04785700514912605,-0.2473999410867691
1772896248204067600,8.201067626953124,1.7545968294143677,-0.010004963725805283,-0.16331568360328674
1772896248214035700,8.21103564453125,1.6395282745361328,0.08395508676767349,-0.03062981367111206
1772896248224004900,8.2210048828125,1.5149333477020264,0.203810915350914,0.08910058438777924
1772896248233972700,8.23097265625,1.4035072326660156,0.2927919328212738,0.1394502967596054
1772896248243940900,8.24094091796875,1.3106105327606201,0.3331076502799988,0.12069259583950043
1772896248253908700,8.25090869140625,1.2390793561935425,0.3228249251842499,0.07863409072160721
1772896248263876600,8.260876708984375,1.1615922451019287,0.2499656230211258,0.016023706644773483
1772896248273845800,8.270845703125,1.0924813747406006,0.19967769086360931,-0.08394443243741989
1772896248283813600,8.280813720703126,1.0068823099136353,0.16713173687458038,-0.19276146590709686
1772896248293781800,8.29078173828125,0.8938212990760803,0.11117871850728989,-0.28439152240753174
1772896248303749400,8.300749267578125,0.776391327381134,0.0549604557454586,-0.3626583516597748
1772896248313717200,8.31071728515625,0.6502605676651001,-0.0327393040060997,-0.4238133132457733
1772896248323686400,8.320686279296876,0.5403111577033997,-0.1363019198179245,-0.480064332485199
1772896248333654500,8.330654541015624,0.4785814881324768,-0.24716851115226746,-0.5479294061660767
1772896248343622100,8.3406220703125,0.5093111991882324,-0.37395283579826355,-0.6044941544532776
1772896248353590300,8.35059033203125,0.6027223467826843,-0.48168647289276123,-0.6363852620124817
1772896248363558400,8.360558349609375,0.7136453986167908,-0.5291136503219604,-0.6391109824180603
1772896248373527300,8.37052734375,0.8409674167633057,-0.5196123123168945,-0.6367631554603577
1772896248383495400,8.380495361328125,0.963030993938446,-0.47634416818618774,-0.6349455118179321
1772896248393463300,8.39046337890625,1.0735564231872559,-0.43326887488365173,-0.589453399181366
1772896248403431400,8.400431396484375,1.1632708311080933,-0.3866041600704193,-0.518841028213501
1772896248413399300,8.4103994140625,1.2162022590637207,-0.33766964077949524,-0.4408237338066101
1772896248423368200,8.4203681640625,1.240837574005127,-0.3100164532661438,-0.3619755208492279
1772896248433336300,8.43033642578125,1.232305645942688,-0.27466192841529846,-0.30810561776161194
1772896248443304200,8.44030419921875,1.2006111145019531,-0.1858454942703247,-0.2771171033382416
1772896248453272300,8.450272216796876,1.1752753257751465,-0.05854986235499382,-0.23010963201522827
1772896248463240400,8.460240478515624,1.1669399738311768,0.09567299485206604,-0.174744114279747
1772896248473209300,8.470209228515625,1.189068078994751,0.22610823810100555,-0.11343201994895935
1772896248483177200,8.48017724609375,1.2395867109298706,0.3188019394874573,-0.06602562218904495
1772896248493145300,8.490145263671875,1.3075199127197266,0.3539988100528717,-0.04177461192011833
1772896248503113200,8.50011328125,1.3696200847625732,0.29580235481262207,-0.028293956071138382
1772896248513081300,8.510081298828124,1.3913898468017578,0.1546151489019394,-0.013789582066237926
1772896248523050200,8.52005029296875,1.3263623714447021,-0.01738325133919716,-0.014251640066504478
1772896248533018400,8.530018310546875,1.2272900342941284,-0.18918509781360626,-0.011739213950932026
1772896248542986500,8.539986572265626,1.130013346672058,-0.3289453983306885,0.007475493010133505
1772896248552954000,8.5499541015625,1.0561292171478271,-0.4263209402561188,0.005249356850981712
1772896248562922200,8.559922119140625,1.0011093616485596,-0.456670343875885,-0.036066390573978424
1772896248572891100,8.56989111328125,0.9707416296005249,-0.44330793619155884,-0.09388015419244766
1772896248582859300,8.579859375,0.9759236574172974,-0.39005163311958313,-0.12751774489879608
1772896248592827400,8.589827392578124,1.0095316171646118,-0.2859087288379669,-0.111020527780056
1772896248602795300,8.599795166015625,1.050154209136963,-0.1862574964761734,-0.023316508159041405
1772896248612763400,8.609763427734375,1.0869643688201904,-0.059185028076171875,0.1012864038348198
1772896248622732300,8.619732177734376,1.0746421813964844,0.06729195266962051,0.216849222779274
1772896248632700200,8.6297001953125,1.0143128633499146,0.17582881450653076,0.3002612888813019
1772896248642668300,8.639668212890625,0.8947816491127014,0.3064267635345459,0.35680899024009705
1772896248652636400,8.649636474609375,0.715277910232544,0.49286404252052307,0.3762497901916504
1772896248662604300,8.659604248046875,0.5200165510177612,0.7178758382797241,0.34776967763900757
1772896248672573400,8.669573486328124,0.32667478919029236,0.9114314317703247,0.24490216374397278
1772896248682541300,8.679541259765625,0.16652213037014008,0.997406542301178,0.06338855624198914
1772896248692509400,8.689509521484375,0.04879283905029297,0.9455039501190186,-0.1533253788948059
1772896248702477300,8.699477294921875,-0.012530173175036907,0.7726450562477112,-0.31667327880859375
1772896248712445200,8.709445068359376,-0.027097664773464203,0.4892711639404297,-0.3399445116519928
1772896248722414300,8.719414306640624,-0.0022122878581285477,0.14627625048160553,-0.24801114201545715
1772896248732382200,8.72938232421875,0.028975458815693855,-0.16853149235248566,-0.17359548807144165
1772896248742350300,8.739350341796875,0.07059800624847412,-0.35231438279151917,-0.16243630647659302
1772896248752318500,8.749318359375,0.13884656131267548,-0.40802982449531555,-0.22624565660953522
1772896248762286000,8.7592861328125,0.24729527533054352,-0.37662556767463684,-0.3097229599952698
1772896248772254200,8.769254150390625,0.41345468163490295,-0.22894929349422455,-0.36838576197624207
1772896248782223000,8.77922314453125,0.5826093554496765,-0.03598756343126297,-0.37505537271499634
1772896248792191200,8.789191162109375,0.6957952976226807,-0.03611219674348831,-0.37706419825553894
1772896248802159400,8.799159423828126,0.677908182144165,-0.365892231464386,-0.4238836169242859
1772896248812127200,8.809127197265624,0.6313731670379639,-0.7526146173477173,-0.4577805995941162
1772896248822095400,8.819095458984375,0.6970251798629761,-0.8521409630775452,-0.28886881470680237
1772896248832064500,8.829064453125,0.8916454911231995,-0.8177356123924255,-0.0683889091014862
1772896248842032000,8.8390322265625,1.1189167499542236,-0.7810451984405518,0.020605143159627914
1772896248852000300,8.849000244140624,1.274975061416626,-0.747768223285675,-0.037339381873607635
1772896248861968400,8.858968505859375,1.311946153640747,-0.6964600086212158,-0.15361033380031586
1772896248871936300,8.868936279296875,1.2758640050888062,-0.6459965705871582,-0.2068788856267929
1772896248881905400,8.878905517578126,1.1904407739639282,-0.5925477743148804,-0.15401805937290192
1772896248891873300,8.888873291015624,1.0623048543930054,-0.5395492315292358,-0.04566016420722008
1772896248901841400,8.89884130859375,0.9003598690032959,-0.46276551485061646,0.09507991373538971
1772896248911809300,8.908809326171875,0.702407956123352,-0.3637947142124176,0.21868973970413208
1772896248921777200,8.918777099609375,0.4799668788909912,-0.24513518810272217,0.295322448015213
1772896248931746300,8.928746337890624,0.26607322692871094,-0.10524972528219223,0.3257581293582916
1772896248941714200,8.938714111328125,0.09135627746582031,0.023977771401405334,0.32242652773857117
1772896248951682300,8.948682373046875,-0.040286701172590256,0.16738899052143097,0.3302761912345886
1772896248961650400,8.958650390625,-0.13490454852581024,0.2813062369823456,0.35663801431655884
1772896248971618300,8.968618408203126,-0.20837238430976868,0.30359742045402527,0.3614594042301178
1772896248981587500,8.97858740234375,-0.27464354038238525,0.2765948474407196,0.3280884027481079
1772896248991555300,8.988555419921875,-0.3316170871257782,0.22679293155670166,0.2585119903087616
1772896249001523200,8.998523193359375,-0.37395307421684265,0.13223420083522797,0.1731179803609848
1772896249011491300,9.0084912109375,-0.402986615896225,0.02027278020977974,0.07673951983451843
1772896249021459500,9.01845947265625,-0.40430939197540283,-0.08714661747217178,0.014692393131554127
1772896249031428400,9.028428466796875,-0.38207998871803284,-0.2063036412000656,0.003965446725487709
1772896249041396500,9.038396484375,-0.34307241439819336,-0.3397969901561737,-0.007002782076597214
1772896249051364000,9.048364013671875,-0.29420873522758484,-0.46842554211616516,-0.024451546370983124
1772896249061332200,9.058332275390624,-0.23506976664066315,-0.5598944425582886,-0.04766099527478218
1772896249071299300,9.06829931640625,-0.1671794056892395,-0.5859545469284058,-0.07159429043531418
1772896249081268200,9.078268310546875,-0.10407793521881104,-0.5786393880844116,-0.10695760697126389
1772896249091236400,9.088236328125,-0.0299613606184721,-0.5402539372444153,-0.14009052515029907
1772896249101204500,9.09820458984375,0.05944335460662842,-0.46015802025794983,-0.1406916081905365
1772896249111172000,9.108172119140624,0.15036100149154663,-0.3577040731906891,-0.10745348781347275
1772896249121140200,9.11814013671875,0.2378184199333191,-0.2018050253391266,-0.06660965085029602
1772896249131109000,9.128109130859375,0.33000054955482483,-0.01702612079679966,-0.02015959657728672
1772896249141077200,9.1380771484375,0.4270448088645935,0.1277872622013092,0.04916168749332428
1772896249151045400,9.14804541015625,0.5282321572303772,0.2793927490711212,0.1236276626586914
1772896249161013200,9.15801318359375,0.5956887006759644,0.4646449089050293,0.180107980966568
1772896249170981400,9.1679814453125,0.6451816558837891,0.6432556509971619,0.21430350840091705
1772896249180950500,9.177950439453125,0.6789984703063965,0.7917649745941162,0.2340678870677948
1772896249190918100,9.187918212890626,0.6838574409484863,0.8701423406600952,0.25621819496154785
1772896249200886300,9.19788623046875,0.6470296382904053,0.8204925060272217,0.26364389061927795
1772896249210854400,9.2078544921875,0.5354338884353638,0.63755863904953,0.26114290952682495
1772896249220822300,9.217822265625,0.3186599910259247,0.3343063294887543,0.2334822565317154
1772896249230791400,9.22779150390625,0.08280912786722183,-0.08119045943021774,0.14901743829250336
1772896249240759300,9.23775927734375,-0.02895069122314453,-0.604010283946991,0.037705834954977036
1772896249250727400,9.2477275390625,0.018397117033600807,-1.0811035633087158,-0.02099955826997757
1772896249260695300,9.2576953125,0.10396421700716019,-1.153195858001709,0.03602591156959534
1772896249270663200,9.2676630859375,0.1767321676015854,-0.981256902217865,0.1661626100540161
1772896249280632300,9.27763232421875,0.38255828619003296,-0.7204039692878723,0.2859742343425751
1772896249290600200,9.28760009765625,0.7045539021492004,-0.40095433592796326,0.38380518555641174
1772896249300568300,9.297568359375,1.047161340713501,-0.14167271554470062,0.4029642343521118
1772896249310536700,9.30753662109375,1.279451847076416,0.0662117749452591,0.4005442261695862
1772896249320504600,9.317504638671876,1.3555647134780884,0.27997493743896484,0.4393872320652008
1772896249330473700,9.3274736328125,1.2495805025100708,0.34208568930625916,0.46702471375465393
1772896249340441300,9.33744140625,0.9833199977874756,0.2573859989643097,0.4346665143966675
1772896249350409500,9.347409423828125,0.6198611259460449,0.07640955597162247,0.3872510492801666
1772896249360377600,9.357377685546876,0.24463237822055817,-0.08645766228437424,0.357781320810318
1772896249370345500,9.367345458984374,-0.041907504200935364,-0.03997005149722099,0.3518637716770172
1772896249380314600,9.377314697265625,-0.21310748159885406,0.08694741874933243,0.33923983573913574
1772896249390282800,9.38728271484375,-0.24417857825756073,0.23450864851474762,0.3226163983345032
1772896249400250400,9.39725048828125,-0.1825018972158432,0.4083941578865051,0.31756386160850525
1772896249410218500,9.407218505859374,-0.072840116918087,0.5168883800506592,0.28356966376304626
1772896249420186600,9.4171865234375,0.04635098576545715,0.4675682485103607,0.17947788536548615
1772896249430155500,9.427155517578125,0.15639600157737732,0.2888096868991852,-0.013339773751795292
1772896249440123600,9.43712353515625,0.24184085428714752,0.08286931365728378,-0.2231483906507492
1772896249450091500,9.447091552734374,0.30462542176246643,-0.08993920683860779,-0.40140414237976074
1772896249460059600,9.4570595703125,0.36293452978134155,-0.2530879080295563,-0.5122017860412598
1772896249470027500,9.467027587890625,0.39742806553840637,-0.3848579227924347,-0.5348690152168274
1772896249479996400,9.476996337890625,0.3917784094810486,-0.4253843128681183,-0.4956457018852234
1772896249489967600,9.486967529296875,0.3665558993816376,-0.36955034732818604,-0.4283905029296875
1772896249499935700,9.496935791015625,0.3072044253349304,-0.22486241161823273,-0.35635703802108765
1772896249509903400,9.5069033203125,0.20847730338573456,-0.006685866042971611,-0.2630622684955597
1772896249519871500,9.51687158203125,0.09653106331825256,0.24564145505428314,-0.1869448572397232
1772896249529840400,9.52684033203125,-0.014843660406768322,0.48417627811431885,-0.10290800780057907
1772896249539808500,9.53680859375,-0.11697588860988617,0.6605017781257629,-0.024940503761172295
1772896249549776600,9.546776611328125,-0.21472296118736267,0.7903039455413818,0.012552543543279171
1772896249559744500,9.55674462890625,-0.27038729190826416,0.8339217305183411,0.030957117676734924
1772896249569712600,9.566712646484374,-0.28209054470062256,0.7931407690048218,0.03220986947417259
1772896249579681500,9.576681640625,-0.2519073486328125,0.6961628198623657,0.008069911040365696
1772896249589649400,9.5866494140625,-0.2148372083902359,0.5634077191352844,-0.04362018033862114
1772896249599617500,9.596617431640626,-0.16905319690704346,0.38431277871131897,-0.12507082521915436
1772896249609585400,9.60658544921875,-0.12688285112380981,0.17785069346427917,-0.24040967226028442
1772896249619554600,9.616554443359375,-0.07633844763040543,0.001970472978428006,-0.3739038109779358
1772896249629522700,9.626522705078125,-0.016265256330370903,-0.13483105599880219,-0.4732900559902191
1772896249639490600,9.636490478515626,0.04044888913631439,-0.22713834047317505,-0.5051310658454895
1772896249649458700,9.646458740234374,0.08663076907396317,-0.25614362955093384,-0.4912874400615692
1772896249659426600,9.656426513671875,0.09844374656677246,-0.278170645236969,-0.4604882597923279
1772896249669394400,9.66639453125,0.09592466801404953,-0.25443682074546814,-0.4493357241153717
1772896249679363600,9.676363525390625,0.0801510289311409,-0.198881134390831,-0.4294624328613281
1772896249689331500,9.68633154296875,0.06399336457252502,-0.1089954599738121,-0.3786567747592926
1772896249699299600,9.696299560546874,0.0843052938580513,-0.004487160127609968,-0.26495736837387085
1772896249709267700,9.706267822265625,0.13045893609523773,0.07230056077241898,-0.12401249259710312
1772896249719235600,9.716235595703125,0.20346364378929138,0.1335066556930542,-0.027952006086707115
1772896249729204700,9.726204833984376,0.29547587037086487,0.17557156085968018,0.011748800985515118
1772896249739172400,9.73617236328125,0.38161712884902954,0.22879110276699066,0.016229037195444107
1772896249749140500,9.746140380859375,0.4519472122192383,0.28026947379112244,0.01381275150924921
1772896249759108600,9.756108642578125,0.49416685104370117,0.32767799496650696,0.004870655480772257
1772896249769076500,9.766076416015625,0.5329126715660095,0.35232609510421753,0.01303137931972742
1772896249779045600,9.776045654296874,0.5374711751937866,0.3419962227344513,0.03873514384031296
1772896249789013500,9.786013427734375,0.5220195055007935,0.3344094157218933,0.05504940450191498
1772896249798981400,9.7959814453125,0.5257452726364136,0.32740476727485657,0.07599969208240509
1772896249808949500,9.805949462890625,0.5718659162521362,0.3363921344280243,0.09616222232580185
1772896249818918400,9.81591845703125,0.6332815885543823,0.3629065752029419,0.12802188098430634
1772896249828886500,9.825886474609375,0.7001175880432129,0.4089888334274292,0.1674361377954483
1772896249838854700,9.835854736328125,0.7572394609451294,0.49164482951164246,0.16078674793243408
1772896249848822500,9.845822509765625,0.7863286733627319,0.5729761719703674,0.11037524044513702
1772896249858790700,9.855790771484376,0.7705678343772888,0.6129345297813416,0.07219350337982178
1772896249868759600,9.865759521484375,0.7074573040008545,0.5967289209365845,0.1005292683839798
1772896249878727400,9.8757275390625,0.6213503479957581,0.5712693333625793,0.2041507363319397
1772896249888695600,9.885695556640625,0.5214256048202515,0.5159488320350647,0.32374343276023865
1772896249898663400,9.895663330078126,0.3641606569290161,0.31505993008613586,0.3639894127845764
1772896249908631600,9.905631591796874,0.16676874458789825,-0.030780550092458725,0.2736070454120636
1772896249918600400,9.915600341796875,-0.02984284982085228,-0.36471885442733765,0.1411273032426834
1772896249928568600,9.925568603515625,-0.18499141931533813,-0.5848512053489685,0.07998484373092651
1772896249938536700,9.93553662109375,-0.2532290816307068,-0.6343393921852112,0.16901884973049164
1772896249948504300,9.94550439453125,-0.23367880284786224,-0.40192505717277527,0.38374897837638855
1772896249958472400,9.955472412109375,-0.1974709928035736,-0.027692081406712532,0.6583211421966553
1772896249968441600,9.965441650390625,-0.19723211228847504,0.20493078231811523,0.8914942145347595
1772896249978409500,9.975409423828125,-0.2565132677555084,0.3833463191986084,1.0468329191207886
1772896249988377600,9.985377685546876,-0.363872766494751,0.4730314612388611,1.110305666923523
1772896249998345700,9.995345703125,-0.5128036737442017,0.5331161022186279,1.1077938079833984
1772896250008313600,10.005313720703125,-0.6772248148918152,0.5430552959442139,1.0728647708892822
1772896250018282800,10.01528271484375,-0.8353907465934753,0.43390217423439026,0.9599127173423767
1772896250028250400,10.02525048828125,-0.9373032450675964,0.22621555626392365,0.7524369955062866
1772896250038218500,10.035218505859374,-0.9433190822601318,-0.10733657330274582,0.49513304233551025
1772896250048186600,10.0451865234375,-0.8775904178619385,-0.4353157877922058,0.2600976228713989
1772896250058154500,10.055154541015625,-0.7266778349876404,-0.7372455596923828,0.09866106510162354
1772896250068123600,10.06512353515625,-0.5692469477653503,-1.002648949623108,-0.040281642228364944
1772896250078091500,10.075091552734374,-0.4742797017097473,-1.134079933166504,-0.12853507697582245
1772896250088059600,10.0850595703125,-0.4486323893070221,-1.1401901245117188,-0.146876260638237
1772896250098027500,10.095027587890625,-0.4639143943786621,-1.0155930519104004,-0.09867331385612488
1772896250107995400,10.104995361328125,-0.5269966721534729,-0.7644491791725159,0.021529527381062508
1772896250117964500,10.114964599609374,-0.6123339533805847,-0.4413747489452362,0.1735835075378418
1772896250127932700,10.1249326171875,-0.6720849275588989,-0.12280847877264023,0.31001779437065125
1772896250137900500,10.134900634765625,-0.65130215883255,0.11701609939336777,0.37914544343948364
1772896250147868700,10.14486865234375,-0.5763554573059082,0.28428739309310913,0.39298295974731445
1772896250157836500,10.15483642578125,-0.47972264885902405,0.3319563567638397,0.3813457489013672
1772896250167805400,10.164805419921874,-0.39061036705970764,0.2745697796344757,0.31567859649658203
1772896250177773600,10.174773681640625,-0.3219311535358429,0.18364758789539337,0.21861542761325836
1772896250187741400,10.184741455078125,-0.2974673807621002,0.10530192404985428,0.09102871268987656
1772896250197709600,10.19470947265625,-0.3254867494106293,0.055991895496845245,-0.03785736858844757
1772896250207677700,10.204677734375,-0.38454848527908325,-0.0002836266648955643,-0.13941062986850739
1772896250217646600,10.214646484375,-0.4461905360221863,-0.06581682711839676,-0.1914551854133606
1772896250227614700,10.22461474609375,-0.5065638422966003,-0.1624395102262497,-0.21727772057056427
1772896250237582300,10.234582275390625,-0.5310431122779846,-0.2642281949520111,-0.25932052731513977
1772896250247550500,10.244550537109374,-0.5210266709327698,-0.388418585062027,-0.3199116885662079
1772896250257518600,10.2545185546875,-0.48327717185020447,-0.52190101146698,-0.3783387839794159
1772896250267487500,10.264487548828125,-0.4188995361328125,-0.6070417165756226,-0.40942347049713135
1772896250277455600,10.27445556640625,-0.34394803643226624,-0.6138336062431335,-0.3869061768054962
1772896250287423500,10.284423583984376,-0.2699430584907532,-0.5439652800559998,-0.30554288625717163
1772896250297391600,10.2943916015625,-0.20991115272045135,-0.37916436791419983,-0.19238649308681488
1772896250307359500,10.304359375,-0.1754346638917923,-0.1436423808336258,-0.06702563911676407
1772896250317328400,10.314328369140625,-0.13618233799934387,0.07257407158613205,0.08081015944480896
1772896250327296500,10.324296630859376,-0.1012432649731636,0.23695342242717743,0.22965529561042786
1772896250337264600,10.3342646484375,-0.08126769214868546,0.3712949752807617,0.35470667481422424
1772896250347232300,10.344232177734375,-0.09422716498374939,0.4506060481071472,0.44593432545661926
1772896250357200400,10.354200439453125,-0.10345368832349777,0.4524036943912506,0.5054938197135925
1772896250367169300,10.364169189453126,-0.08148074150085449,0.3988320827484131,0.5186263918876648
1772896250377137400,10.374137451171874,-0.031981900334358215,0.29814061522483826,0.46059077978134155
1772896250387105500,10.38410546875,0.039200931787490845,0.25868749618530273,0.366263747215271
1772896250397073400,10.394073486328125,0.028427911922335625,0.26966315507888794,0.2577063739299774
1772896250407041300,10.404041259765625,-0.05205334722995758,0.20833802223205566,0.10563348233699799
1772896250417010400,10.414010498046874,-0.13753975927829742,0.1825663447380066,0.004642955027520657
1772896250426978300,10.423978271484375,-0.1896040141582489,0.09133896976709366,0.007968710735440254
1772896250436946400,10.433946533203125,-0.19114971160888672,-0.15175224840641022,0.0829087346792221
1772896250446914600,10.44391455078125,-0.18598318099975586,-0.5230134129524231,0.13192448019981384
1772896250456882400,10.45388232421875,-0.16580840945243835,-0.9899651408195496,0.05662732571363449
1772896250466851600,10.4638515625,-0.1386183351278305,-1.5667592287063599,-0.11898737400770187
1772896250476819500,10.4738193359375,-0.11252787709236145,-2.116985321044922,-0.2920891046524048
1772896250486787300,10.483787353515625,-0.07729239016771317,-2.354189157485962,-0.30958473682403564
1772896250496755500,10.49375537109375,-0.05125253647565842,-2.1627187728881836,-0.1726876199245453
1772896250506723300,10.503723388671874,0.04013170674443245,-1.701926350593567,0.041433461010456085
1772896250516692500,10.5136923828125,0.1795404702425003,-0.9961490035057068,0.2053835093975067
1772896250526660400,10.523660400390625,0.3439064919948578,-0.19316519796848297,0.2637275159358978
1772896250536628500,10.53362841796875,0.47923797369003296,0.42872312664985657,0.24514903128147125
1772896250546596600,10.5435966796875,0.5556427240371704,0.7922094464302063,0.2553614675998688
1772896250556564200,10.553564208984374,0.5494282245635986,1.0431588888168335,0.29099562764167786
1772896250566533400,10.563533447265625,0.44870322942733765,1.1904503107070923,0.300140380859375
1772896250576501200,10.573501220703125,0.2993371784687042,1.1145861148834229,0.25070491433143616
1772896250586469400,10.583469482421876,0.15149444341659546,0.8679476380348206,0.1392955780029297
1772896250596437500,10.5934375,0.03315741941332817,0.5470615029335022,-0.0013369068037718534
1772896250606406400,10.603406494140625,-0.05405764281749725,0.2038561850786209,-0.15120922029018402
1772896250616374500,10.61337451171875,-0.10604840517044067,-0.08098006993532181,-0.2802921235561371
1772896250626342700,10.6233427734375,-0.12325535714626312,-0.24893152713775635,-0.3598497807979584
1772896250636310300,10.633310302734374,-0.08866515755653381,-0.35821086168289185,-0.40363189578056335
1772896250646278400,10.6432783203125,-0.020747089758515358,-0.43050849437713623,-0.452521413564682
1772896250656247300,10.653247314453125,0.05222032591700554,-0.4910842478275299,-0.48406893014907837
1772896250666215400,10.66321533203125,0.09250729531049728,-0.5194959044456482,-0.4696204960346222
1772896250676183600,10.67318359375,0.09108996391296387,-0.4629194438457489,-0.42636942863464355
1772896250686151400,10.6831513671875,0.08637669682502747,-0.3840600550174713,-0.38497164845466614
1772896250696119300,10.693119384765625,0.09343966841697693,-0.3245171010494232,-0.3518219590187073
1772896250706088200,10.703088134765625,0.11113983392715454,-0.214569553732872,-0.33285731077194214
1772896250716056300,10.713056396484374,0.130179300904274,-0.09777449816465378,-0.28730449080467224
1772896250726024400,10.7230244140625,0.12903201580047607,0.03569461405277252,-0.2299562394618988
1772896250735992300,10.732992431640625,0.10104884952306747,0.19624941051006317,-0.18492405116558075
1772896250745960400,10.74296044921875,0.06570550799369812,0.36917829513549805,-0.14806696772575378
1772896250755929300,10.752929443359376,0.025123195722699165,0.5177712440490723,-0.1179623231291771
1772896250765897500,10.7628974609375,-0.03164208307862282,0.6396052837371826,-0.08235079795122147
1772896250775865300,10.772865234375,-0.12671853601932526,0.7596123814582825,-0.0458441860973835
1772896250785833500,10.78283349609375,-0.23623916506767273,0.8833353519439697,-0.03313824534416199
1772896250795801300,10.79280126953125,-0.36006736755371094,0.9469140768051147,-0.023626232519745827
1772896250805770500,10.8027705078125,-0.5004300475120544,0.8172964453697205,-0.024593759328126907
1772896250815738400,10.81273828125,-0.620235025882721,0.5216325521469116,-0.026913905516266823
1772896250825706500,10.82270654296875,-0.6975197196006775,0.16066451370716095,-0.06331079453229904
1772896250835674600,10.832674560546875,-0.7411486506462097,-0.1271667331457138,-0.15895795822143555
1772896250845642200,10.842642333984376,-0.7612230181694031,-0.36066123843193054,-0.27449414134025574
1772896250855611400,10.852611328125,-0.7587758898735046,-0.525475263595581,-0.3719698190689087
1772896250865579300,10.862579345703125,-0.7164281606674194,-0.5830423831939697,-0.41518282890319824
1772896250875547400,10.87254736328125,-0.6313683986663818,-0.5694038271903992,-0.40353575348854065
1772896250885515500,10.882515625,-0.4910823702812195,-0.47600436210632324,-0.37735608220100403
1772896250895483400,10.8924833984375,-0.3685585856437683,-0.3505750596523285,-0.3667699992656708
1772896250905452500,10.90245263671875,-0.2658551037311554,-0.20655663311481476,-0.37742850184440613
1772896250915420400,10.91242041015625,-0.17642828822135925,-0.09308227151632309,-0.37749457359313965
1772896250925388300,10.92238818359375,-0.07385851442813873,0.02099529653787613,-0.31698861718177795
1772896250935356400,10.9323564453125,0.03423919528722763,0.13203926384449005,-0.22691969573497772
1772896250945324500,10.942324462890625,0.12048833072185516,0.254111647605896,-0.17051181197166443
1772896250955293400,10.95229345703125,0.18348248302936554,0.3641798198223114,-0.15228433907032013
1772896250965261600,10.962261474609376,0.20773296058177948,0.4441162049770355,-0.15321645140647888
1772896250975229400,10.9722294921875,0.22162693738937378,0.4739438593387604,-0.16459400951862335
1772896250985197300,10.982197265625,0.240571066737175,0.4303279519081116,-0.1706918478012085
1772896250995165400,10.99216552734375,0.2604025602340698,0.2825661897659302,-0.18919122219085693
1772896251005134300,11.00213427734375,0.28707703948020935,0.0704568549990654,-0.2256927788257599
1772896251015102500,11.0121025390625,0.3219985365867615,-0.15308170020580292,-0.2704453468322754
1772896251025070300,11.0220703125,0.35648009181022644,-0.31775638461112976,-0.2856203019618988
1772896251035038500,11.03203857421875,0.38482436537742615,-0.40395280718803406,-0.2743538022041321
1772896251045006600,11.042006591796875,0.40336957573890686,-0.43844765424728394,-0.26730281114578247
1772896251054975500,11.0519755859375,0.4211605489253998,-0.4108216166496277,-0.25571566820144653
1772896251064943400,11.061943359375,0.4207666516304016,-0.3292335569858551,-0.22392471134662628
1772896251074911200,11.0719111328125,0.38281795382499695,-0.22062158584594727,-0.1406726986169815
1772896251084879400,11.08187939453125,0.3012285530567169,-0.12121936678886414,-0.013569870963692665
1772896251094847500,11.091847412109376,0.1958581805229187,-0.046788543462753296,0.11962520331144333
1772896251104816400,11.10181640625,0.09872791171073914,-0.026492327451705933,0.1798294186592102
1772896251114784500,11.111784423828125,0.028615666553378105,-0.05927211046218872,0.15639813244342804
1772896251124752600,11.121752685546875,-0.022394521161913872,-0.1790938526391983,0.04355360195040703
1772896251134720300,11.13172021484375,-0.0338013730943203,-0.3746063709259033,-0.10237643867731094
1772896251144688400,11.1416884765625,-0.04048697277903557,-0.5442268252372742,-0.23386548459529877
1772896251154657300,11.1516572265625,-0.05086398124694824,-0.5328590869903564,-0.26429077982902527
1772896251164625400,11.16162548828125,-0.0856509879231453,-0.38811472058296204,-0.18082384765148163
1772896251174593500,11.171593505859375,-0.146295964717865,-0.10269175469875336,-0.007542338687926531
1772896251184561400,11.1815615234375,-0.21856535971164703,0.25273770093917847,0.20470280945301056
1772896251194529500,11.191529541015624,-0.29168909788131714,0.593932032585144,0.3801175057888031
1772896251204498400,11.20149853515625,-0.35084643959999084,0.9429608583450317,0.5233425498008728
1772896251214466300,11.21146630859375,-0.4002035856246948,1.2147105932235718,0.651692271232605
1772896251224434400,11.221434326171876,-0.4419238865375519,1.3988757133483887,0.7265031337738037
1772896251234402300,11.23140234375,-0.4907284379005432,1.4973151683807373,0.7162345051765442
1772896251244370400,11.241370361328125,-0.5154635906219482,1.472597599029541,0.6492270231246948
1772896251254339600,11.251339599609375,-0.5019017457962036,1.342049479484558,0.5460798740386963
1772896251264307500,11.261307373046876,-0.4632883071899414,1.0879215002059937,0.4240727126598358
1772896251274275300,11.271275390625,-0.40209418535232544,0.7720370888710022,0.3044983744621277
1772896251284243500,11.281243408203125,-0.33128151297569275,0.4344278872013092,0.20815426111221313
1772896251294212400,11.29121240234375,-0.26625511050224304,0.10951104760169983,0.11444162577390671
1772896251304180500,11.301180419921875,-0.16810005903244019,-0.19373191893100739,0.008820922113955021
1772896251314148400,11.3111484375,-0.0571754053235054,-0.4484238624572754,-0.07808761298656464
1772896251324116500,11.321116455078124,0.043777842074632645,-0.6467033624649048,-0.12595206499099731
1772896251334084600,11.331084716796875,0.1199096292257309,-0.7962087392807007,-0.15475095808506012
1772896251344053500,11.341053466796875,0.16371703147888184,-0.8554483652114868,-0.13137346506118774
1772896251354021400,11.351021484375,0.1874718964099884,-0.8620766997337341,-0.04731345176696777
1772896251363989200,11.3609892578125,0.20403169095516205,-0.7869009971618652,0.06910903006792068
1772896251373957400,11.370957275390625,0.17848612368106842,-0.630322277545929,0.2121756374835968
1772896251383925500,11.380925537109375,0.1236412450671196,-0.4492262601852417,0.33050522208213806
1772896251393894400,11.390894287109376,0.054919708520174026,-0.256803035736084,0.39341598749160767
1772896251403862500,11.400862548828124,-0.020049341022968292,-0.07095726579427719,0.39154139161109924
1772896251413830400,11.410830322265625,-0.0882989689707756,0.059659067541360855,0.35435569286346436
1772896251423798300,11.42079833984375,-0.1473713368177414,0.1422751247882843,0.31698355078697205
1772896251433766400,11.430766357421875,-0.19463206827640533,0.16756689548492432,0.30020269751548767
1772896251443735300,11.4407353515625,-0.22664593160152435,0.1401645690202713,0.3097226917743683
1772896251453703400,11.450703369140625,-0.23909753561019897,0.09430599212646484,0.32713258266448975
1772896251463671600,11.460671630859375,-0.23932337760925293,0.00785499345511198,0.3106348216533661
1772896251473639400,11.470639404296875,-0.24019555747509003,-0.08512741327285767,0.24568858742713928
1772896251483607600,11.480607666015626,-0.24763482809066772,-0.163894921541214,0.16506777703762054
1772896251493576400,11.490576416015625,-0.25949227809906006,-0.2133314460515976,0.10121343284845352
1772896251503544300,11.50054443359375,-0.27152204513549805,-0.23380237817764282,0.057020675390958786
1772896251513512400,11.510512451171875,-0.2921655476093292,-0.238738015294075,0.044854290783405304
1772896251523480300,11.520480224609376,-0.30471888184547424,-0.2287418395280838,0.06825654953718185
1772896251533448400,11.530448486328124,-0.3096792995929718,-0.21233916282653809,0.11596255749464035
1772896251543417300,11.540417236328125,-0.308770090341568,-0.18431603908538818,0.16211514174938202
1772896251553385500,11.550385498046875,-0.3103943467140198,-0.1470584273338318,0.19624833762645721
1772896251563353600,11.560353515625,-0.3184354901313782,-0.08346666395664215,0.22415506839752197
1772896251573321200,11.5703212890625,-0.32399192452430725,0.028192223981022835,0.25550368428230286
1772896251583289300,11.580289306640625,-0.30676794052124023,0.1782083511352539,0.30900150537490845
1772896251593258500,11.590258544921875,-0.2710576057434082,0.3215141296386719,0.37190350890159607
1772896251603226400,11.600226318359375,-0.21012075245380402,0.4388979971408844,0.44139763712882996
1772896251613194500,11.610194580078126,-0.13031326234340668,0.5139917135238647,0.5042032599449158
1772896251623162600,11.62016259765625,-0.03189747780561447,0.5151328444480896,0.5502775311470032
1772896251633130200,11.630130126953125,0.09349053353071213,0.4777844250202179,0.563583493232727
1772896251643099400,11.640099365234375,0.20946666598320007,0.42380160093307495,0.5210551619529724
1772896251653067300,11.6500673828125,0.31738168001174927,0.34179675579071045,0.446176141500473
1772896251663035400,11.660035400390624,0.4359743893146515,0.24440521001815796,0.36981001496315
1772896251673003500,11.67000341796875,0.5922595858573914,0.1660158634185791,0.31776759028434753
1772896251682971400,11.679971435546875,0.7309117317199707,0.11706723272800446,0.2713566720485687
1772896251692940500,11.6899404296875,0.8146916031837463,0.09588897973299026,0.22995837032794952
1772896251702908400,11.699908447265624,0.8343276381492615,0.15868312120437622,0.2457120269536972
1772896251712876300,11.709876220703125,0.7900379300117493,0.25668397545814514,0.3114132881164551
1772896251722844400,11.719844482421875,0.681341290473938,0.23174454271793365,0.3542347848415375
1772896251732813300,11.729813232421876,0.5343174338340759,-0.08517135679721832,0.3005262613296509
1772896251742781400,11.739781494140624,0.37458932399749756,-0.7491623759269714,0.12099166959524155
1772896251752749600,11.74974951171875,0.20741364359855652,-1.645331859588623,-0.1896359771490097
1772896251762717400,11.759717529296875,0.00618226220831275,-2.571317672729492,-0.5173307657241821
1772896251772685600,11.769685546875,-0.1796611100435257,-3.255326271057129,-0.6651564240455627
1772896251782654500,11.779654541015624,-0.38266029953956604,-3.4667232036590576,-0.4111502468585968
1772896251792622300,11.789622314453124,-0.4880969822406769,-3.1815123558044434,0.049128398299217224
1772896251802590500,11.799590576171875,-0.42130914330482483,-2.520869016647339,0.42433956265449524
1772896251812558300,11.809558349609375,-0.10108267515897751,-1.5227606296539307,0.5604380369186401
1772896251822526500,11.8195263671875,0.3983399271965027,-0.28710421919822693,0.4621969163417816
1772896251832495400,11.829495361328124,0.9143087267875671,0.8171395659446716,0.25518062710762024
1772896251842463500,11.83946337890625,1.2939964532852173,1.5417017936706543,0.09259811043739319
1772896251852431600,11.849431640625,1.5256885290145874,1.8670789003372192,-0.04073357954621315
1772896251862399200,11.859399169921875,1.5998034477233887,1.8577772378921509,-0.13431759178638458
1772896251872367400,11.869367431640624,1.4849737882614136,1.6259924173355103,-0.24729394912719727
1772896251882336300,11.879336181640625,1.3141943216323853,1.3098936080932617,-0.3342517614364624
1772896251892304400,11.889304443359375,1.0767812728881836,0.8888116478919983,-0.35537806153297424
1772896251902272500,11.8992724609375,0.7899361848831177,0.4327692687511444,-0.3467944264411926
1772896251912240400,11.909240478515626,0.4997512400150299,0.15177834033966064,-0.3141219913959503
1772896251922208300,11.919208251953124,0.2933730185031891,0.12007634341716766,-0.2966713607311249
1772896251932177400,11.929177490234375,0.20867358148097992,0.11430580168962479,-0.29543882608413696
1772896251942145300,11.939145263671875,0.2956380546092987,0.18606308102607727,-0.21292132139205933
1772896251952113400,11.949113525390626,0.43699970841407776,0.30691760778427124,-0.04650332033634186
1772896251962081500,11.95908154296875,0.5155677199363708,0.42531293630599976,0.09723973274230957
1772896251972049400,11.96904931640625,0.494144469499588,0.47493934631347656,0.1379605382680893
1772896251982018600,11.9790185546875,0.44726723432540894,0.4455215334892273,0.0795598030090332
1772896251991986400,11.988986328125,0.41871416568756104,0.34244388341903687,-0.020133230835199356
1772896252001954300,11.998954345703124,0.41633597016334534,0.1946171522140503,-0.1435353308916092
1772896252011922400,12.00892236328125,0.4395289123058319,0.022942867130041122,-0.2558056712150574
1772896252021890300,12.018890380859375,0.48304283618927,-0.14962171018123627,-0.3365282118320465
1772896252031859500,12.028859375,0.5415703058242798,-0.2500450015068054,-0.37950843572616577
1772896252041827300,12.038827392578124,0.6180720329284668,-0.24672402441501617,-0.3944237530231476
1772896252051795500,12.04879541015625,0.7191930413246155,-0.17028704285621643,-0.3424827754497528
1772896252061763600,12.058763671875,0.8157858848571777,-0.07211147993803024,-0.2490399181842804
1772896252071731500,12.0687314453125,0.9250737428665161,0.087745301425457,-0.17713776230812073
1772896252081700400,12.078700439453126,1.0338830947875977,0.267039954662323,-0.15048804879188538
1772896252091668500,12.08866845703125,1.1421594619750977,0.3954620957374573,-0.13803963363170624
1772896252101636400,12.09863623046875,1.251300573348999,0.44004395604133606,-0.09230782836675644
1772896252111604500,12.1086044921875,1.3763333559036255,0.44008469581604004,-0.004674646537750959
1772896252121573400,12.118573486328126,1.5286304950714111,0.3994120955467224,0.09215948730707169
1772896252131541500,12.12854150390625,1.6745562553405762,0.34660935401916504,0.13661350309848785
1772896252141509600,12.138509521484375,1.7849041223526,0.2514285147190094,0.10084538906812668
1772896252151477200,12.148477294921875,1.849160075187683,0.11203226447105408,-0.01811189204454422
1772896252161445400,12.1584453125,1.8649781942367554,-0.023677365854382515,-0.18125367164611816
1772896252171414300,12.168414306640624,1.8292744159698486,-0.17261065542697906,-0.3447006642818451
1772896252181382400,12.17838232421875,1.759900450706482,-0.35120463371276855,-0.5117945671081543
1772896252191350500,12.1883505859375,1.6711550951004028,-0.5760345458984375,-0.6674129366874695
1772896252201318400,12.198318359375,1.58437979221344,-0.789985179901123,-0.822789192199707
1772896252211286300,12.208286376953126,1.495017409324646,-0.8971699476242065,-0.9443801045417786
1772896252221255400,12.21825537109375,1.3754595518112183,-0.9087024927139282,-0.9692997932434082
1772896252231223300,12.228223388671875,1.2827240228652954,-0.83833247423172,-0.8309174180030823
1772896252241191400,12.23819140625,1.2154688835144043,-0.6891283392906189,-0.5878182649612427
1772896252251159600,12.24815966796875,1.1942203044891357,-0.5027962923049927,-0.35096919536590576
1772896252261127400,12.25812744140625,1.222308874130249,-0.32507050037384033,-0.19511356949806213
1772896252271096600,12.2680966796875,1.28209388256073,-0.1659674048423767,-0.13361425697803497
1772896252281064400,12.278064453125,1.362383246421814,-0.013769607990980148,-0.14104899764060974
1772896252291032300,12.2880322265625,1.448779582977295,0.14225247502326965,-0.148087739944458
1772896252301000400,12.29800048828125,1.553763747215271,0.31508496403694153,-0.14311107993125916
1772896252310968000,12.307968017578125,1.6781179904937744,0.48169153928756714,-0.1403840035200119
1772896252320937200,12.317937255859375,1.8194169998168945,0.5927109718322754,-0.14785709977149963
1772896252330905000,12.327905029296875,1.982164740562439,0.6735411286354065,-0.11929869651794434
1772896252340873200,12.337873291015624,2.154212236404419,0.7339800000190735,-0.04175277426838875
1772896252350841300,12.34784130859375,2.327805995941162,0.7688018679618835,0.04857232794165611
1772896252360809000,12.35780908203125,2.500605344772339,0.7384202480316162,0.10156603902578354
