time,seconds_elapsed,z,y,x
1772905619829244000,0.272243896484375,8.595019340515137,1.8978074789047241,0.8270193338394165
1772905619839063800,0.282063720703125,9.047561645507812,1.9336998462677002,0.9586246013641357
1772905619849244000,0.292243896484375,9.454340934753418,1.7997016906738281,1.054337501525879
1772905619859410700,0.30241064453125,9.717850685119629,1.5649060010910034,1.1045867204666138
1772905619869230600,0.312230712890625,9.835099220275879,1.3519448041915894,1.0950154066085815
1772905619879050800,0.32205078125,9.89970588684082,1.2705888748168945,0.9969097375869751
1772905619889240300,0.332240234375,9.93559741973877,1.368694543838501,0.8102695941925049
1772905619899309600,0.3423095703125,9.868598937988281,1.5840486288070679,0.5706881880760193
1772905619909129500,0.35212939453125,9.725028991699219,1.8092730045318604,0.36729827523231506
1772905619918949400,0.361949462890625,9.636494636535645,1.983949065208435,0.3170489966869354
1772905619929129500,0.37212939453125,9.610174179077148,2.0868403911590576,0.4630111753940582
1772905619939234000,0.382234130859375,9.500103950500488,2.137089729309082,0.7070791125297546
1772905619949054000,0.392053955078125,9.229415893554688,2.1658036708831787,0.905982494354248
1772905619958874000,0.4018740234375,8.846264839172363,2.192124605178833,0.9681958556175232
1772905619968768500,0.4117685546875,8.475378036499023,2.1945173740386963,0.8485547304153442
1772905619978724000,0.42172412109375,8.231010437011719,2.1179471015930176,0.6161518096923828
1772905619988724500,0.431724365234375,8.216653823852539,1.9432710409164429,0.38644084334373474
1772905619998699500,0.441699462890625,8.468199729919434,1.7662022113800049,0.19710876047611237
1772905620038959600,0.481959716796875,8.927620887756348,1.5050854682922363,0.8150551915168762
1772905620048884200,0.49188427734375,8.693124771118164,1.373480200767517,1.0184451341629028
1772905620058856400,0.5018564453125,8.647661209106445,1.2945170402526855,0.9586246013641357
1772905620068835600,0.511835693359375,8.805587768554688,1.25144624710083,0.6544370055198669
1772905620078810600,0.521810546875,9.093025207519531,1.2011969089508057,0.2907279431819916
1772905620088796000,0.5317958984375,9.339486122131348,1.1748759746551514,-0.00867398176342249
1772905620098775300,0.541775390625,9.423234939575195,1.210768222808838,-0.22642084956169128
1772905620108756500,0.551756591796875,9.346664428710938,1.2658032178878784,-0.35114672780036926
1772905620118736600,0.561736572265625,9.205488204956055,1.2705888748168945,-0.3535395562648773
1772905620128556500,0.571556640625,9.1624174118042,1.2035897970199585,-0.2841476798057556
1772905620138376700,0.581376708984375,9.37298583984375,1.1027921438217163,-0.2072782665491104
1772905620148385800,0.5913857421875,9.78963565826416,1.026221752166748,-0.13310076296329498
1772905620158268700,0.6012685546875,10.246963500976562,0.9879366755485535,-0.03978067636489868
1772905620168448800,0.61144873046875,10.589436531066895,0.9544371366500854,0.12293126434087753
1772905620178577200,0.6215771484375,10.890932083129883,0.9161519408226013,0.3433700501918793
1772905620188601000,0.63160107421875,11.257332801818848,0.91136634349823,0.534795880317688
1772905620198544100,0.641544189453125,11.527722358703613,0.9089735150337219,0.6616154313087463
1772905620208555000,0.651554931640625,11.417652130126953,0.8012964725494385,0.6783652305603027
1772905620218505000,0.6615048828125,10.898110389709473,0.5497509837150574,0.5946164131164551
1772905620228324900,0.671324951171875,10.273284912109375,0.25304099917411804,0.4654040038585663
1772905620238203600,0.68120361328125,9.770493507385254,0.08285148441791534,0.27397820353507996
1772905620248383700,0.6913837890625,9.38016414642334,0.07806584239006042,0.0032901312224566936
1772905620258430200,0.70143017578125,9.205488204956055,0.10438688844442368,-0.24077777564525604
1772905620268419600,0.711419677734375,9.241379737854004,0.2267199456691742,-0.3798605799674988
1772905620278387500,0.721387451171875,9.222237586975098,0.6095715761184692,-0.4085744619369507
1772905620288382000,0.7313818359375,8.86780071258545,1.0286146402359009,-0.18574285507202148
1772905620298352600,0.7413525390625,8.20947551727295,1.1602199077606201,0.2521436810493469
1772905620308338000,0.751337890625,7.4602227210998535,1.052542805671692,0.503689169883728
1772905620318310100,0.76131005859375,6.751348972320557,0.9783653616905212,0.2306082844734192
1772905620328282000,0.7712822265625,6.152844429016113,1.0477572679519653,-0.494716078042984
1772905620338254300,0.78125439453125,5.774479389190674,1.1892328262329102,-1.3495519161224365
1772905620348074200,0.79107421875,5.6548380851745605,1.3591232299804688,-1.9695920944213867
1772905620357886000,0.800885986328125,5.750551223754883,1.552941918373108,-2.1227328777313232
1772905620367906300,0.81090625,6.093023777008057,1.7231314182281494,-1.7276179790496826
1772905620377857800,0.82085791015625,6.574280261993408,1.7542381286621094,-0.9520443081855774
1772905620387867100,0.8308671875,7.067500591278076,1.6414763927459717,-0.3008974492549896
1772905620397824500,0.840824462890625,7.615756034851074,1.4835500717163086,-0.0445663221180439
1772905620408004600,0.851004638671875,8.235795974731445,1.34476637840271,-0.056530434638261795
1772905620418115300,0.861115234375,8.865407943725586,1.2921242713928223,-0.18813568353652954
1772905620427935200,0.870935302734375,9.377771377563477,1.3160524368286133,-0.3487538993358612
1772905620437755400,0.88075537109375,9.784850120544434,1.3591232299804688,-0.4420739710330963
1772905620447935200,0.890935302734375,10.213464736938477,1.4333007335662842,-0.37028929591178894
1772905620458014200,0.90101416015625,10.75693416595459,1.6295121908187866,-0.11635100096464157
1772905620467971000,0.91097119140625,11.302797317504883,1.9887347221374512,0.247358039021492
1772905620477960400,0.92096044921875,11.72423267364502,2.496312141418457,0.6544370055198669
1772905620487921400,0.93092138671875,11.865408897399902,3.0469605922698975,1.0423734188079834
1772905620497908000,0.940907958984375,11.451151847839355,3.4157543182373047,1.3561322689056396
1772905620507728000,0.950727783203125,10.33071231842041,3.4301111698150635,1.5308083295822144
1772905620517532700,0.96053271484375,8.788837432861328,3.0948169231414795,1.5332010984420776
1772905620527530000,0.970530029296875,7.493722438812256,2.5800609588623047,1.4015958309173584
1772905620537489200,0.9804892578125,7.041179656982422,2.1969103813171387,1.1428718566894531
1772905620547473700,0.9904736328125,7.57507848739624,2.184946060180664,0.8294121623039246
1772905620557435400,1.000435302734375,8.85344409942627,2.472383975982666,0.5874379873275757
1772905620567615500,1.010615478515625,10.435997009277344,2.7622146606445312,0.4821537733078003
1772905620577726200,1.020726318359375,11.70987606048584,2.7550361156463623,0.534795880317688
1772905620587691300,1.030691162109375,12.160025596618652,2.3503501415252686,0.6664010882377625
1772905620597684200,1.040684326171875,11.71705436706543,1.6558332443237305,0.7429714202880859
1772905620607504100,1.050504150390625,10.689934730529785,0.88025963306427,0.6879364848136902
1772905620617309400,1.060309326171875,9.528818130493164,0.2315055876970291,0.4582255482673645
1772905620627304700,1.0703046875,8.681160926818848,-0.07507480680942535,-0.011066804639995098
1772905620637268200,1.080268310546875,8.350651741027832,-0.03678964823484421,-0.7052844762802124
1772905620647260200,1.09026025390625,8.360222816467285,0.09481559693813324,-1.4572290182113647
1772905620657226800,1.100226806640625,8.365009307861328,0.1381855010986328,-2.06530499458313
1772905620667219700,1.1102197265625,8.262117385864258,0.054137613624334335,-2.3742783069610596
1772905620677188900,1.12018896484375,8.223832130432129,-0.08703892678022385,-2.383849620819092
1772905620687186000,1.13018603515625,8.365009307861328,-0.2066800594329834,-2.2495524883270264
1772905620697158100,1.140158203125,8.61176872253418,-0.271286278963089,-2.1897318363189697
1772905620707136800,1.15013671875,8.848658561706543,-0.271286278963089,-2.318944215774536
1772905620717109500,1.160109619140625,8.951549530029297,-0.19710876047611237,-2.527418851852417
1772905620727289600,1.17028955078125,8.786444664001465,-0.08464609831571579,-2.5848467350006104
1772905620737400000,1.180400146484375,8.257331848144531,0.01824527233839035,-2.4053850173950195
1772905620747346400,1.190346435546875,7.426723480224609,0.0972084179520607,-2.082054853439331
1772905620757345500,1.200345458984375,6.55992317199707,0.1333998590707779,-1.7180466651916504
1772905620767165400,1.21016552734375,6.073881149291992,0.06849455088376999,-1.3710874319076538
1772905620776985300,1.2199853515625,6.317949295043945,-0.0726819857954979,-1.0764710903167725
1772905620786962700,1.229962646484375,7.182356357574463,-0.20428723096847534,-0.9065806865692139
1772905620796930600,1.2399306640625,8.175975799560547,-0.20428723096847534,-0.8946165442466736
1772905620806922800,1.2499228515625,8.772088050842285,-0.05353940650820732,-0.968794047832489
1772905620816893400,1.2598935546875,8.709874153137207,0.15732808411121368,-1.026221752166748
1772905620826877400,1.26987744140625,8.097012519836426,0.3607180118560791,-1.052542805671692
1772905620836849400,1.279849365234375,7.385746002197266,0.5497509837150574,-1.1362916231155396
1772905620846830800,1.289830810546875,7.196712970733643,0.7175477147102356,-1.3878371715545654
1772905620856803600,1.299803466796875,7.967800140380859,0.8850452899932861,-1.7682958841323853
1772905620866789400,1.309789306640625,9.593423843383789,1.057328462600708,-2.06530499458313
1772905620876763600,1.319763671875,11.317153930664062,1.2011969089508057,-2.089233160018921
1772905620886754800,1.3297548828125,12.363415718078613,1.3423734903335571,-1.8714864253997803
1772905620896730600,1.339730712890625,12.451950073242188,1.5696916580200195,-1.5864413976669312
1772905620906708700,1.349708740234375,11.882159233093262,1.9121644496917725,-1.34476637840271
1772905620916685000,1.35968505859375,11.173583984375,2.252244234085083,-1.0310074090957642
1772905620926657300,1.3696572265625,10.718648910522461,2.441277265548706,-0.4420739710330963
1772905620936633000,1.379633056640625,10.62532901763916,2.465205430984497,0.381655216217041
1772905620946613200,1.38961328125,10.677970886230469,2.393420934677124,1.1668001413345337
1772905620956589600,1.399589599609375,10.565508842468262,2.276172637939453,1.6648063659667969
1772905620966573300,1.4095732421875,10.096216201782227,2.1251256465911865,1.815554141998291
1772905620976550400,1.41955029296875,9.279664993286133,1.9145572185516357,1.7772690057754517
1772905620986531300,1.42953125,8.384151458740234,1.588834285736084,1.9307087659835815
1772905620996508700,1.4395087890625,7.919943809509277,1.2083754539489746,2.414358139038086
1772905621006688500,1.4496884765625,8.123333930969238,0.9783653616905212,2.6799614429473877
1772905621016789200,1.459789306640625,9.02841854095459,0.9807581901550293,1.9953149557113647
1772905621026740500,1.469740478515625,10.373783111572266,1.1458629369735718,0.23778675496578217
1772905621036742700,1.47974267578125,11.436795234680176,1.191625714302063,-1.4213366508483887
1772905621046562600,1.4895625,11.910872459411621,1.026221752166748,-2.177767753601074
1772905621056383000,1.499383056640625,11.922837257385254,0.7725825905799866,-2.0557336807250977
1772905621066370600,1.50937060546875,11.604591369628906,0.5569294691085815,-1.3591232299804688
1772905621076341200,1.51934130859375,10.989038467407227,0.45643091201782227,-0.6071787476539612
1772905621086521300,1.529521240234375,10.172786712646484,0.44446679949760437,-0.1785643845796585
1772905621096640300,1.53964013671875,9.334700584411621,0.46839502453804016,-0.05174478888511658
1772905621106460400,1.54946044921875,8.748159408569336,0.4827519655227661,-0.0062811593525111675
1772905621116269000,1.55926904296875,8.571090698242188,0.494716078042984,0.05353940650820732
1772905621126246400,1.569246337890625,8.781659126281738,0.5186443328857422,0.11814561486244202
1772905621136216800,1.579216796875,9.212666511535645,0.49232324957847595,0.19950158894062042
1772905621146220800,1.589220703125,9.605388641357422,0.37507495284080505,0.2715853750705719
1772905621156194600,1.599194580078125,9.787242889404297,0.22432711720466614,0.2763710021972656
1772905621166185500,1.609185546875,9.736993789672852,0.09242277592420578,0.2521436810493469
1772905621176161000,1.6191611328125,9.509675025939941,0.04217349737882614,0.19950158894062042
1772905621186152000,1.62915185546875,9.215059280395508,0.08763712644577026,0.07507480680942535
1772905621196129000,1.63912890625,8.997312545776367,0.16450655460357666,-0.07088737189769745
1772905621206120200,1.6491201171875,8.970991134643555,0.21954147517681122,-0.14745768904685974
1772905621216098600,1.6590986328125,9.109774589538574,0.2554338276386261,-0.14506487548351288
1772905621226083800,1.669083740234375,9.313164710998535,0.2721835672855377,-0.12352947145700455
1772905621236063000,1.67906298828125,9.483354568481445,0.24825534224510193,-0.11156535893678665
1772905621246054100,1.68905419921875,9.55753231048584,0.19322042167186737,-0.13310076296329498
1772905621256034600,1.69903466796875,9.538389205932617,0.15254244208335876,-0.19770696759223938
1772905621266031600,1.709031494140625,9.485747337341309,0.1621137410402298,-0.2626122832298279
1772905621276013800,1.719013916015625,9.413662910461426,0.21954147517681122,-0.2745763957500458
1772905621285987000,1.728987060546875,9.27727222442627,0.29850462079048157,-0.23599213361740112
1772905621295968500,1.738968505859375,9.042776107788086,0.3798605799674988,-0.2072782665491104
1772905621305949200,1.74894921875,8.733802795410156,0.4707878530025482,-0.23838496208190918
1772905621315930400,1.758930419921875,8.405686378479004,0.5856433510780334,-0.32961133122444153
1772905621325911300,1.768911376953125,8.17119026184082,0.6768696904182434,-0.4205385744571686
1772905621346072600,1.789072509765625,8.357830047607422,0.6840481758117676,-0.24556341767311096
1772905621356183000,1.79918310546875,8.72183895111084,0.6816553473472595,0.046360939741134644
1772905621366003200,1.809003173828125,9.119346618652344,0.727118968963623,0.3840480446815491
1772905621375823000,1.818822998046875,9.37059211730957,0.7845467329025269,0.6711867451667786
1772905621386003200,1.829003173828125,9.358628273010254,0.8228318691253662,0.8174480199813843
1772905621396089600,1.839089599609375,9.11695384979248,0.8419744968414307,0.8150551915168762
1772905621406043600,1.849043701171875,8.784051895141602,0.8874381184577942,0.6999006271362305
1772905621416044800,1.859044921875,8.47298526763916,0.9759725332260132,0.5300102233886719
1772905621426003200,1.869003173828125,8.319544792175293,1.0357930660247803,0.3768695592880249
1772905621436000300,1.879000244140625,8.470592498779297,1.0286146402359009,0.29312077164649963
1772905621445964500,1.888964599609375,8.922835350036621,0.966401219367981,0.30508488416671753
1772905621455958300,1.898958251953125,9.478569030761719,0.8922237157821655,0.39840495586395264
1772905621465778200,1.908778076171875,9.868598937988281,0.8300103545188904,0.5180460810661316
1772905621475585300,1.918585205078125,9.949954986572266,0.8036893010139465,0.5946164131164551
1772905621485585200,1.928585205078125,9.756135940551758,0.8084749579429626,0.589830756187439
1772905621495550000,1.938550048828125,9.439984321594238,0.8180462121963501,0.5228317379951477
1772905621505535700,1.94853564453125,9.167202949523926,0.8132606148719788,0.4534398913383484
1772905621515502600,1.958502685546875,9.033205032348633,0.7845467329025269,0.4295116662979126
1772905621525682700,1.9686826171875,9.04516887664795,0.7295117974281311,0.4414757788181305
1772905621535775700,1.978775634765625,9.143274307250977,0.6625127792358398,0.4295116662979126
1772905621545736200,1.988736083984375,9.24855899810791,0.6023930907249451,0.3529413342475891
1772905621555731000,1.99873095703125,9.329915046691895,0.5593222975730896,0.2353939265012741
1772905621565550800,2.00855078125,9.4088773727417,0.5353940725326538,0.14925231039524078
1772905621575382300,2.01838232421875,9.490532875061035,0.5377869009971619,0.1301097273826599
1772905621585562400,2.028562255859375,9.550353050231934,0.542572557926178,0.15643078088760376
1772905621595590100,2.038590087890625,9.521639823913574,0.5377869009971619,0.18753747642040253
1772905621605575700,2.04857568359375,9.411270141601562,0.5306084156036377,0.21146570146083832
1772905621615565600,2.058565673828125,9.305986404418945,0.5569294691085815,0.24975086748600006
1772905621625558000,2.06855810546875,9.27009391784668,0.6358926296234131,0.3170489966869354
1772905621635548200,2.078548095703125,9.301200866699219,0.7438687682151794,0.4055834412574768
1772905621645368000,2.0883681640625,9.327521324157715,0.8539385795593262,0.49172505736351013
1772905621655198700,2.09819873046875,9.265308380126953,0.9472586512565613,0.5635097622871399
1772905621665252600,2.108252685546875,9.071489334106445,1.0166505575180054,0.625723123550415
1772905621675222000,2.118221923828125,8.776873588562012,1.0668997764587402,0.6759724020957947
1772905621685246700,2.128246826171875,8.484949111938477,1.1099705696105957,0.7046862840652466
1772905621695221800,2.1382216796875,8.329116821289062,1.1362916231155396,0.7070791125297546
1772905621705239300,2.1482392578125,8.376973152160645,1.1386845111846924,0.6807580590248108
1772905621715218700,2.15821875,8.621339797973633,1.1123634576797485,0.6640082597732544
1772905621725247700,2.168247802734375,8.95394229888916,1.069292664527893,0.6903293132781982
1772905621735232300,2.178232177734375,9.250951766967773,1.0310074090957642,0.7381857633590698
1772905621745241000,2.188240966796875,9.423234939575195,1.0046863555908203,0.7740781307220459
1772905621755228200,2.198228271484375,9.435198783874512,0.9807581901550293,0.7740781307220459
1772905621765245700,2.20824560546875,9.305986404418945,0.9520443081855774,0.7238288521766663
1772905621775235800,2.21823583984375,9.119346618652344,0.9161519408226013,0.6305087804794312
1772905621785056000,2.228055908203125,8.997312545776367,0.8706883192062378,0.5228317379951477
1772905621794919400,2.23791943359375,9.00688362121582,0.8108677864074707,0.4654040038585663
1772905621804940500,2.2479404296875,9.12413215637207,0.758225679397583,0.4749752879142761
1772905621814909400,2.257909423828125,9.258130073547363,0.7199404835700989,0.5204389095306396
1772905621825089500,2.268089599609375,9.327521324157715,0.7007979154586792,0.5635097622871399
1772905621835236400,2.278236328125,9.310771942138672,0.7007979154586792,0.5850451588630676
1772905621845238300,2.28823828125,9.26291561126709,0.7223333120346069,0.589830756187439
1772905621855073300,2.2980732421875,9.272486686706543,0.7510471940040588,0.5970092415809631
1772905621865062700,2.308062744140625,9.38016414642334,0.7630113363265991,0.625723123550415
1772905621875060000,2.31806005859375,9.538389205932617,0.7438687682151794,0.6616154313087463
1772905621885050000,2.328050048828125,9.66520881652832,0.7079764008522034,0.6831508874893188
1772905621894870300,2.337870361328125,9.69631576538086,0.6768696904182434,0.6903293132781982
1772905621904717300,2.34771728515625,9.617352485656738,0.667298436164856,0.7238288521766663
1772905621914897200,2.357897216796875,9.459127426147461,0.6792625188827515,0.8006982803344727
1772905621924984300,2.367984375,9.28445053100586,0.7079764008522034,0.8940183520317078
1772905621934974500,2.377974365234375,9.128917694091797,0.7486543655395508,0.9442676305770874
1772905621944775400,2.387775390625,9.00688362121582,0.7965108156204224,0.9131609201431274
1772905621954751200,2.397751220703125,8.910871505737305,0.844367265701294,0.8030911087989807
1772905621964765700,2.407765625,8.851051330566406,0.8874381184577942,0.6472585201263428
1772905621974745600,2.41774560546875,8.82951545715332,0.9233304262161255,0.49651068449020386
1772905621984783400,2.427783447265625,8.863015174865723,0.9568299651145935,0.39601215720176697
1772905621994769200,2.43776904296875,8.966205596923828,0.9783653616905212,0.3768695592880249
1772905622004589000,2.447589111328125,9.102596282958984,0.9783653616905212,0.4223332107067108
1772905622014453200,2.457453369140625,9.217452049255371,0.9592227935791016,0.4821537733078003
1772905622024492300,2.4674921875,9.27009391784668,0.9281160831451416,0.5180460810661316
1772905622034460000,2.4774599609375,9.224630355834961,0.8946165442466736,0.503689169883728
1772905622044475400,2.487475341796875,9.076275825500488,0.8706883192062378,0.45583271980285645
1772905622054447900,2.49744775390625,8.879764556884766,0.8682954907417297,0.38644084334373474
1772905622064449300,2.50744921875,8.72183895111084,0.8826524615287781,0.30508488416671753
1772905622074424600,2.517424560546875,8.676374435424805,0.8874381184577942,0.20907287299633026
1772905622084372000,2.5273720703125,8.764909744262695,0.8682954907417297,0.12293126434087753
1772905622094344700,2.5373447265625,8.944371223449707,0.8347960114479065,0.07746763527393341
1772905622104331800,2.547331787109375,9.1145601272583,0.8132606148719788,0.0726819857954979
1772905622114306000,2.55730615234375,9.207880973815918,0.8156534433364868,0.07507480680942535
1772905622124315400,2.5673154296875,9.23180866241455,0.8252246975898743,0.06071787327528
1772905622134293000,2.57729296875,9.241379737854004,0.8228318691253662,0.05353940650820732
1772905622144272000,2.58727197265625,9.308379173278809,0.8084749579429626,0.09182456880807877
1772905622154249700,2.597249755859375,9.439984321594238,0.7965108156204224,0.17318053543567657
1772905622164199400,2.607199462890625,9.55513858795166,0.7941179871559143,0.2593221664428711
1772905622174174200,2.61717431640625,9.545567512512207,0.8108677864074707,0.31465616822242737
1772905622184110000,2.627110107421875,9.40169906616211,0.8659027218818665,0.3242274820804596
1772905622194081000,2.6370810546875,9.198308944702148,0.9448658227920532,0.30508488416671753
1772905622204065800,2.647065673828125,9.030811309814453,1.0094720125198364,0.28594231605529785
1772905622214038300,2.657038330078125,8.968598365783691,1.0429716110229492,0.26440688967704773
1772905622224012000,2.667011962890625,9.064311027526855,1.0405787229537964,0.23778675496578217
1772905622233984500,2.676984619140625,9.286844253540039,0.9975079298019409,0.20428723096847534
1772905622243954000,2.686953857421875,9.543174743652344,0.9329017400741577,0.1899302899837494
1772905622253926100,2.696926025390625,9.713065147399902,0.877866804599762,0.20189441740512848
1772905622263912000,2.706911865234375,9.705886840820312,0.844367265701294,0.2234298139810562
1772905622273885700,2.7168857421875,9.521639823913574,0.8371888399124146,0.2306082844734192
1772905622283869000,2.726868896484375,9.250951766967773,0.8515457510948181,0.20189441740512848
1772905622293843700,2.73684375,9.026025772094727,0.8659027218818665,0.15882360935211182
1772905622303834600,2.746834716796875,8.934800148010254,0.8706883192062378,0.125324085354805
1772905622313810700,2.756810791015625,8.99970531463623,0.8635098934173584,0.13489536941051483
1772905622323799800,2.7667998046875,9.13848876953125,0.8563314080238342,0.1899302899837494
1772905622333777400,2.77677734375,9.212666511535645,0.8659027218818665,0.25692933797836304
1772905622343720200,2.78672021484375,9.148059844970703,0.8898309469223022,0.3074777126312256
1772905622353694200,2.796694091796875,8.970991134643555,0.9209375977516174,0.31465616822242737
1772905622363670300,2.806670166015625,8.800801277160645,0.9544371366500854,0.2763710021972656
1772905622373644500,2.81664453125,8.779266357421875,0.9735797047615051,0.19710876047611237
1772905622383641000,2.82664111328125,8.959027290344238,0.9616156220436096,0.11096715182065964
1772905622393617400,2.836617431640625,9.260522842407227,0.9257232546806335,0.08225327730178833
1772905622403619800,2.846619873046875,9.524032592773438,0.8898309469223022,0.1827518343925476
1772905622413599000,2.856598876953125,9.612566947937012,0.8706883192062378,0.45104706287384033
1772905622423577300,2.866577392578125,9.507282257080078,0.8850452899932861,0.8174480199813843
1772905622433556500,2.876556396484375,9.28445053100586,0.9352945685386658,1.090229868888855
1772905622443496200,2.88649609375,9.033205032348633,1.0070792436599731,1.118943691253662
1772905622453471200,2.89647119140625,8.834300994873047,1.0788638591766357,0.8844470977783203
1772905622463458800,2.906458740234375,8.755337715148926,1.1147562265396118,0.5060819983482361
1772905622473435400,2.916435302734375,8.827122688293457,1.0908280611038208,0.1779661774635315
1772905622483416000,2.926416015625,9.01406192779541,1.026221752166748,0.010468599386513233
1772905622493393000,2.936392822265625,9.253344535827637,0.966401219367981,-0.01824527233839035
1772905622503375600,2.946375732421875,9.463912963867188,0.9329017400741577,0.020039889961481094
1772905622513353200,2.956353271484375,9.57188892364502,0.9209375977516174,0.05353940650820732
1772905622523317200,2.966317138671875,9.543174743652344,0.9305089116096497,0.02961117960512638
1772905622533293300,2.976293212890625,9.396913528442383,0.9496514797210693,-0.04695914313197136
1772905622543262700,2.9862626953125,9.186345100402832,0.968794047832489,-0.15702898800373077
1772905622553238300,2.99623828125,8.956634521484375,0.9807581901550293,-0.2793620526790619
1772905622563207400,3.00620751953125,8.767302513122559,0.9855438470840454,-0.3798605799674988
1772905622573182200,3.01618212890625,8.70508861541748,0.9759725332260132,-0.44446679949760437
1772905622583135700,3.0261357421875,8.796015739440918,0.9448658227920532,-0.4612165689468384
1772905622593108200,3.036108154296875,8.970991134643555,0.9065806865692139,-0.43489551544189453
1772905622603106300,3.046106201171875,9.13848876953125,0.8826524615287781,-0.39421752095222473
1772905622613081600,3.05608154296875,9.236594200134277,0.8898309469223022,-0.33918261528015137
1772905622623037200,3.066037109375,9.236594200134277,0.9185447692871094,-0.25274190306663513
1772905622633010400,3.076010498046875,9.160024642944336,0.966401219367981,-0.15463615953922272
1772905622642992400,3.085992431640625,9.071489334106445,1.0142576694488525,-0.08045866340398788
1772905622652966700,3.095966552734375,9.011669158935547,1.0477572679519653,-0.07328019291162491
1772905622662948600,3.105948486328125,8.997312545776367,1.0621141195297241,-0.13549357652664185
1772905622672923400,3.11592333984375,9.018847465515137,1.0621141195297241,-0.22163519263267517
1772905622682894000,3.12589404296875,9.064311027526855,1.0501500368118286,-0.28654050827026367
1772905622692868600,3.13586865234375,9.12413215637207,1.0405787229537964,-0.28893333673477173
1772905622702841600,3.145841552734375,9.193523406982422,1.026221752166748,-0.2024926096200943
1772905622712815900,3.15581591796875,9.27009391784668,1.0094720125198364,-0.03738785535097122
1772905622722782500,3.165782470703125,9.315557479858398,0.9951151013374329,0.12293126434087753
1772905622732756000,3.175755859375,9.265308380126953,0.9831510186195374,0.19232311844825745
1772905622742735400,3.1857353515625,9.078668594360352,0.9735797047615051,0.13250255584716797
1772905622752709600,3.195709716796875,8.831908226013184,0.968794047832489,-0.032602209597826004
1772905622762889500,3.205889404296875,8.669196128845215,0.9640084505081177,-0.22402802109718323
1772905622773007600,3.216007568359375,8.685946464538574,0.9544371366500854,-0.35832518339157104
1772905622782827500,3.22582763671875,8.8438720703125,0.9400802254676819,-0.40378883481025696
1772905622792636700,3.23563671875,9.03799057006836,0.9281160831451416,-0.3774677813053131
1772905622802632400,3.245632568359375,9.160024642944336,0.9281160831451416,-0.32243284583091736
1772905622812606700,3.255606689453125,9.183952331542969,0.9352945685386658,-0.28175488114356995
1772905622822595800,3.265595947265625,9.174381256103516,0.9376873970031738,-0.28175488114356995
1772905622832571600,3.275571533203125,9.217452049255371,0.9161519408226013,-0.32961133122444153
1772905622842542800,3.28554296875,9.3490571975708,0.8539385795593262,-0.4181457459926605
1772905622852518100,3.29551806640625,9.535996437072754,0.7701897621154785,-0.5162515044212341
1772905622862491400,3.305491455078125,9.715457916259766,0.6912266612052917,-0.5856433510780334
1772905622872466400,3.315466552734375,9.830313682556152,0.6358926296234131,-0.597607433795929
1772905622882431700,3.325431640625,9.851848602294922,0.6167500615119934,-0.5593222975730896
1772905622892406000,3.335406005859375,9.794421195983887,0.6239284873008728,-0.4899304509162903
1772905622902390000,3.34539013671875,9.67238712310791,0.6577271223068237,-0.4301098585128784
1772905622912365300,3.355365234375,9.463912963867188,0.7031907439231873,-0.40378883481025696
1772905622922354400,3.3653544921875,9.188737869262695,0.7462615370750427,-0.4181457459926605
1772905622942294800,3.385294677734375,8.803194046020508,0.7965108156204224,-0.37507495284080505
1772905622952270000,3.39527001953125,8.73619556427002,0.8347960114479065,-0.22642084956169128
1772905622962243600,3.40524365234375,8.673981666564941,0.8826524615287781,-0.03738785535097122
1772905622972218600,3.415218505859375,8.60459041595459,0.9329017400741577,0.1013958603143692
1772905622982185500,3.425185546875,8.58784008026123,0.9640084505081177,0.1420738399028778
1772905622992159700,3.43515966796875,8.678768157958984,0.968794047832489,0.07986045628786087
1772905623002339800,3.44533984375,8.898907661437988,0.9448658227920532,-0.054137613624334335
1772905623012440000,3.455440185546875,9.198308944702148,0.9041878581047058,-0.21684955060482025
1772905623022260200,3.46526025390625,9.47348403930664,0.8587242364883423,-0.3439682424068451
1772905623032080100,3.475080078125,9.636494636535645,0.8204390406608582,-0.3798605799674988
1772905623042048000,3.485048095703125,9.667601585388184,0.8060821294784546,-0.31046873331069946
1772905623052019700,3.495019775390625,9.602995872497559,0.8204390406608582,-0.1666002720594406
1772905623062009600,3.505009521484375,9.456734657287598,0.8515457510948181,-0.02063809521496296
1772905623071983000,3.514983154296875,9.267701148986816,0.8898309469223022,0.06311069428920746
1772905623081986800,3.52498681640625,9.093025207519531,0.9305089116096497,0.06550352275371552
1772905623091963400,3.53496337890625,8.970991134643555,0.9640084505081177,0.015254244208335876
1772905623101930500,3.544930419921875,8.922835350036621,0.9831510186195374,-0.030209386721253395
1772905623111906000,3.554906005859375,8.951549530029297,0.9951151013374329,-0.0445663221180439
1772905623121904000,3.564904052734375,9.042776107788086,1.002293586730957,-0.05174478888511658
1772905623131882000,3.574882080078125,9.140881538391113,0.9903294444084167,-0.08285148441791534
1772905623141848600,3.5848486328125,9.210273742675781,0.9616156220436096,-0.125922292470932
1772905623151825400,3.594825439453125,9.260522842407227,0.9281160831451416,-0.16420745849609375
1772905623161805600,3.6048056640625,9.334700584411621,0.8994022011756897,-0.18095721304416656
1772905623171782700,3.61478271484375,9.430413246154785,0.8611170649528503,-0.17617157101631165
1772905623181749500,3.62474951171875,9.5264253616333,0.8036893010139465,-0.14506487548351288
1772905623191725600,3.6347255859375,9.595816612243652,0.7414759397506714,-0.09002995491027832
1772905623201704700,3.64470458984375,9.598209381103516,0.7031907439231873,-0.0038883367087692022
1772905623211681000,3.654680908203125,9.478569030761719,0.6888338327407837,0.11096715182065964
1772905623221677600,3.664677490234375,9.203095436096191,0.6936194896697998,0.23300109803676605
1772905623231656200,3.67465625,8.819944381713867,0.727118968963623,0.33379876613616943
1772905623241625300,3.684625244140625,8.4562349319458,0.7965108156204224,0.37926238775253296
1772905623251603000,3.69460302734375,8.259724617004395,0.8754739761352539,0.34576287865638733
1772905623261582600,3.70458251953125,8.319544792175293,0.9209375977516174,0.23300109803676605
1772905623271560200,3.714560302734375,8.61894702911377,0.9209375977516174,0.07028916478157043
1772905623281513500,3.724513427734375,9.069096565246582,0.8850452899932861,-0.06610172241926193
1772905623291488800,3.73448876953125,9.53360366821289,0.8419744968414307,-0.09002995491027832
1772905623301504000,3.74450390625,9.847063064575195,0.8204390406608582,-0.0038883367087692022
1772905623311483100,3.754483154296875,9.89013385772705,0.8371888399124146,0.16121642291545868
1772905623321462300,3.764462158203125,9.681958198547363,0.8850452899932861,0.3433700501918793
1772905623331441400,3.77444140625,9.358628273010254,0.9496514797210693,0.47258245944976807
1772905623341435100,3.78443505859375,9.071489334106445,1.0070792436599731,0.4773681163787842
1772905623351415800,3.794415771484375,8.910871505737305,1.0405787229537964,0.381655216217041
1772905623361424600,3.804424560546875,8.894122123718262,1.0453643798828125,0.254536509513855
1772905623371408100,3.814408203125,8.980562210083008,1.0286146402359009,0.16360925137996674
1772905623381364200,3.8243642578125,9.107381820678711,1.0046863555908203,0.16121642291545868
1772905623391345200,3.83434521484375,9.188737869262695,0.9879366755485535,0.24257239699363708
1772905623401353000,3.84435302734375,9.171988487243652,0.9711868762969971,0.3433700501918793
1772905623411336400,3.85433642578125,9.057132720947266,0.9616156220436096,0.36729827523231506
1772905623421302000,3.864302001953125,8.903693199157715,0.966401219367981,0.2835494875907898
1772905623431283700,3.87428369140625,8.796015739440918,0.9759725332260132,0.12771691381931305
1772905623441267000,3.884266845703125,8.81515884399414,0.9807581901550293,-0.032602209597826004
1772905623451249000,3.894248779296875,8.968598365783691,0.968794047832489,-0.13549357652664185
1772905623461203000,3.904202880859375,9.219844818115234,0.9257232546806335,-0.16899310052394867
1772905623471182000,3.91418212890625,9.480961799621582,0.8635098934173584,-0.15702898800373077
1772905623481165000,3.9241650390625,9.660423278808594,0.7989036440849304,-0.14267204701900482
1772905623491144700,3.934144775390625,9.693922996520996,0.7462615370750427,-0.14506487548351288
1772905623501120500,3.94412060546875,9.567103385925293,0.7199404835700989,-0.17138592898845673
1772905623511099600,3.954099609375,9.341878890991211,0.7103692293167114,-0.21684955060482025
1772905623521075700,3.96407568359375,9.148059844970703,0.7055835723876953,-0.26500511169433594
1772905623531054600,3.9740546875,9.093025207519531,0.6864410042762756,-0.2793620526790619
1772905623541019400,3.984019287109375,9.215059280395508,0.6577271223068237,-0.2431706041097641
1772905623550996700,3.993996826171875,9.416056632995605,0.6382854580879211,-0.19292132556438446
1772905623560979000,4.00397900390625,9.524032592773438,0.6505486369132996,-0.18095721304416656
1772905623570957000,4.01395703125,9.428020477294922,0.7007979154586792,-0.23838496208190918
1772905623580937200,4.023937255859375,9.198308944702148,0.7654041647911072,-0.32961133122444153
1772905623590915300,4.033915283203125,9.03799057006836,0.8108677864074707,-0.37507495284080505
1772905623600884500,4.043884521484375,9.097810745239258,0.8347960114479065,-0.33918261528015137
1772905623610861600,4.053861572265625,9.337093353271484,0.8347960114479065,-0.25274190306663513
1772905623620847900,4.063847900390625,9.550353050231934,0.8300103545188904,-0.19770696759223938
1772905623630826000,4.073825927734375,9.559925079345703,0.8419744968414307,-0.2192423790693283
1772905623640792300,4.083792236328125,9.358628273010254,0.8730811476707458,-0.29850462079048157
1772905623650769200,4.09376904296875,9.095417976379395,0.9065806865692139,-0.35832518339157104
1772905623660764400,4.103764404296875,8.922835350036621,0.9329017400741577,-0.36311084032058716
1772905623670743300,4.113743408203125,8.884550094604492,0.9448658227920532,-0.32721850275993347
1772905623680710700,4.123710693359375,8.901300430297852,0.9448658227920532,-0.3008974492549896
1772905623690688300,4.133688232421875,8.874979019165039,0.9376873970031738,-0.32721850275993347
1772905623700670700,4.143670654296875,8.779266357421875,0.9281160831451416,-0.4061816334724426
1772905623710648800,4.15364892578125,8.702695846557617,0.91136634349823,-0.49710890650749207
1772905623720637000,4.163636962890625,8.796015739440918,0.8754739761352539,-0.544965386390686
1772905623730616000,4.173615966796875,9.093025207519531,0.8132606148719788,-0.5162515044212341
1772905623740600300,4.183600341796875,9.437591552734375,0.7510471940040588,-0.4372883439064026
1772905623750580000,4.193580078125,9.605388641357422,0.727118968963623,-0.3655036687850952
1772905623760556500,4.203556640625,9.490532875061035,0.7510471940040588,-0.34636107087135315
1772905623770536000,4.213535888671875,9.200701713562012,0.8060821294784546,-0.3655036687850952
1772905623780533200,4.223533203125,8.975776672363281,0.8587242364883423,-0.36311084032058716
1772905623790514400,4.233514404296875,8.997312545776367,0.8946165442466736,-0.3008974492549896
1772905623800469800,4.2434697265625,9.224630355834961,0.9065806865692139,-0.2144567221403122
1772905623810448400,4.253448486328125,9.478569030761719,0.9041878581047058,-0.16899310052394867
1772905623820437500,4.2634375,9.626923561096191,0.8922237157821655,-0.18095721304416656
1772905623830417200,4.273417236328125,9.636494636535645,0.8898309469223022,-0.2192423790693283
1772905623840384800,4.283384765625,9.54796028137207,0.91136634349823,-0.24556341767311096
1772905623850363100,4.293363037109375,9.430413246154785,0.9424729943275452,-0.24077777564525604
1772905623860358000,4.30335791015625,9.337093353271484,0.968794047832489,-0.2024926096200943
1772905623870337800,4.313337890625,9.294022560119629,0.9783653616905212,-0.13549357652664185
1772905623880305200,4.32330517578125,9.282057762145996,0.9735797047615051,-0.04217349737882614
1772905623890284000,4.333283935546875,9.267701148986816,0.966401219367981,0.03918246924877167
1772905623900274000,4.34327392578125,9.234201431274414,0.9544371366500854,0.05593222752213478
1772905623910253800,4.35325390625,9.186345100402832,0.9329017400741577,-0.011066804639995098
1772905623920236300,4.363236328125,9.155238151550293,0.9065806865692139,-0.125922292470932
1772905623930216400,4.373216552734375,9.1624174118042,0.8850452899932861,-0.20488543808460236
1772905623940182500,4.3831826171875,9.191130638122559,0.8730811476707458,-0.19770696759223938
1772905623950161200,4.3931611328125,9.188737869262695,0.8826524615287781,-0.12113664299249649
1772905623960135200,4.40313525390625,9.104989051818848,0.91136634349823,-0.027816563844680786
1772905623970113500,4.413113525390625,8.980562210083008,0.9376873970031738,0.027218356728553772
1772905623980096800,4.4230966796875,8.891729354858398,0.9544371366500854,0.03918246924877167
1772905623990075600,4.43307568359375,8.891729354858398,0.9496514797210693,0.015254244208335876
1772905624000032500,4.443032470703125,8.980562210083008,0.9281160831451416,-0.032602209597826004
1772905624010009000,4.453009033203125,9.121739387512207,0.8946165442466736,-0.10199406743049622
1772905624019984100,4.462984130859375,9.236594200134277,0.8563314080238342,-0.1737787425518036
1772905624029960400,4.47296044921875,9.289237022399902,0.8347960114479065,-0.23359930515289307
1772905624039944200,4.482944091796875,9.24855899810791,0.8371888399124146,-0.2841476798057556
1772905624049921300,4.49292138671875,9.102596282958984,0.8659027218818665,-0.33918261528015137
1772905624059925000,4.502925048828125,8.891729354858398,0.8994022011756897,-0.389431893825531
1772905624069905000,4.51290478515625,8.733802795410156,0.9233304262161255,-0.41096729040145874
1772905624079917300,4.522917236328125,8.731410026550293,0.9209375977516174,-0.3846462368965149
1772905624089900500,4.532900634765625,8.910871505737305,0.8922237157821655,-0.32243284583091736
1772905624099870000,4.542869873046875,9.176774024963379,0.8515457510948181,-0.2626122832298279
1772905624109851600,4.5528515625,9.365806579589844,0.8228318691253662,-0.24795624613761902
1772905624119804400,4.562804443359375,9.382556915283203,0.8252246975898743,-0.2793620526790619
1772905624129783300,4.572783203125,9.250951766967773,0.8611170649528503,-0.3200400173664093
1772905624139786200,4.5827861328125,9.066703796386719,0.91136634349823,-0.33439695835113525
1772905624149767400,4.592767333984375,8.970991134643555,0.9568299651145935,-0.2913261651992798
1772905624159742200,4.6027421875,9.052347183227539,0.9951151013374329,-0.20967108011245728
1772905624169723000,4.612722900390625,9.253344535827637,1.0190433263778687,-0.15942180156707764
1772905624179659500,4.622659423828125,9.439984321594238,1.0238289833068848,-0.16420745849609375
1772905624189635800,4.6326357421875,9.495318412780762,1.0238289833068848,-0.2072782665491104
1772905624199568000,4.64256787109375,9.392127990722656,1.0310074090957642,-0.24077777564525604
1772905624209539600,4.65253955078125,9.176774024963379,1.0501500368118286,-0.23359930515289307
1772905624219538400,4.662538330078125,8.937192916870117,1.0716854333877563,-0.19531415402889252
1772905624229513000,4.672512939453125,8.776873588562012,1.0812567472457886,-0.1498505175113678
1772905624239502600,4.682502685546875,8.774480819702148,1.0788638591766357,-0.1091725304722786
1772905624249478700,4.692478759765625,8.918049812316895,1.0621141195297241,-0.06610172241926193
1772905624259453200,4.702453125,9.119346618652344,1.0477572679519653,-0.030209386721253395
1772905624269429000,4.712428955078125,9.258130073547363,1.0357930660247803,-0.025423740968108177
1772905624279394300,4.722394287109375,9.272486686706543,1.026221752166748,-0.054137613624334335
1772905624289369300,4.732369384765625,9.207880973815918,1.0142576694488525,-0.10677970945835114
1772905624299364600,4.742364501953125,9.126524925231934,0.9975079298019409,-0.1618146300315857
1772905624309341400,4.752341552734375,9.071489334106445,0.9759725332260132,-0.2072782665491104
1772905624319324000,4.762323974609375,9.073882102966309,0.9496514797210693,-0.24077777564525604
1772905624329301500,4.772301513671875,9.126524925231934,0.9281160831451416,-0.25752753019332886
1772905624339289600,4.78228955078125,9.212666511535645,0.9089735150337219,-0.2551347017288208
1772905624349268200,4.792268310546875,9.315557479858398,0.8970093727111816,-0.22402802109718323
1772905624359239400,4.802239501953125,9.404091835021973,0.8922237157821655,-0.1618146300315857
1772905624369217000,4.812217041015625,9.425627708435059,0.8994022011756897,-0.09002995491027832
1772905624379212000,4.8222119140625,9.353842735290527,0.9209375977516174,-0.032602209597826004
1772905624389191700,4.832191650390625,9.203095436096191,0.9472586512565613,-0.00867398176342249
1772905624399371800,4.842371826171875,9.073882102966309,0.968794047832489,-0.0038883367087692022
1772905624409493800,4.85249365234375,9.066703796386719,0.9831510186195374,-0.00867398176342249
1772905624419456800,4.862456787109375,9.193523406982422,0.9807581901550293,-0.013459627516567707
1772905624429463600,4.872463623046875,9.365806579589844,0.9711868762969971,-0.025423740968108177
1772905624439283500,4.882283447265625,9.47348403930664,0.968794047832489,-0.04695914313197136
1772905624449103000,4.89210302734375,9.435198783874512,0.9735797047615051,-0.056530434638261795
1772905624459115300,4.902115234375,9.265308380126953,0.9927222728729248,-0.023030918091535568
1772905624469091800,4.912091796875,9.047561645507812,1.0190433263778687,0.041575293987989426
1772905624489069300,4.9320693359375,8.776873588562012,1.069292664527893,0.14446666836738586
1772905624499049000,4.942049072265625,8.817551612854004,1.0740783214569092,0.11814561486244202
1772905624509028000,4.952028076171875,8.94676399230957,1.064507007598877,0.02961117960512638
1772905624518965000,4.961965087890625,9.126524925231934,1.0357930660247803,-0.08763712644577026
1772905624528939500,4.971939453125,9.303593635559082,0.9927222728729248,-0.18095721304416656
1772905624539119600,4.98211962890625,9.420842170715332,0.9424729943275452,-0.20488543808460236
1772905624549224700,4.992224609375,9.444769859313965,0.9089735150337219,-0.1498505175113678
1772905624559168800,5.002168701171875,9.365806579589844,0.9017950296401978,-0.05174478888511658
1772905624569168600,5.012168701171875,9.195916175842285,0.9209375977516174,0.03200400248169899
1772905624578988800,5.02198876953125,9.009276390075684,0.9448658227920532,0.06311069428920746
1772905624588808700,5.03180859375,8.874979019165039,0.9592227935791016,0.046360939741134644
1772905624598988800,5.04198876953125,8.839086532592773,0.9616156220436096,-0.0038883367087692022
1772905624609058600,5.05205859375,8.910871505737305,0.9448658227920532,-0.06610172241926193
1772905624628685000,5.07168505859375,9.294022560119629,0.8347960114479065,-0.21684955060482025
1772905624638686500,5.0816865234375,9.471091270446777,0.7677969932556152,-0.28893333673477173
1772905624648653800,5.09165380859375,9.562317848205566,0.7223333120346069,-0.3487538993358612
1772905624658834000,5.101833984375,9.545567512512207,0.7103692293167114,-0.4061816334724426
1772905624668935200,5.11193505859375,9.437591552734375,0.7295117974281311,-0.4612165689468384
1772905624678755000,5.121755126953125,9.282057762145996,0.7701897621154785,-0.5066801905632019
1772905624688559400,5.131559326171875,9.155238151550293,0.8180462121963501,-0.5282155871391296
1772905624698549500,5.141549560546875,9.107381820678711,0.8539385795593262,-0.5210371017456055
1772905624708517400,5.151517333984375,9.140881538391113,0.8730811476707458,-0.4899304509162903
1772905624718510000,5.161510009765625,9.200701713562012,0.8826524615287781,-0.4325026869773865
1772905624728480500,5.17148046875,9.227023124694824,0.9017950296401978,-0.35114672780036926
1772905624738459000,5.181458984375,9.181559562683105,0.9400802254676819,-0.2551347017288208
1772905624748430000,5.19143017578125,9.066703796386719,0.9879366755485535,-0.15224334597587585
1772905624758403300,5.2014033203125,8.937192916870117,1.0286146402359009,-0.05892325937747955
1772905624768375000,5.211375,8.889336585998535,1.0597213506698608,0.022432712838053703
1772905624778555000,5.221554931640625,8.961420059204102,1.0740783214569092,0.06071787327528
1772905624788653000,5.231653076171875,9.119346618652344,1.0764710903167725,0.027218356728553772
1772905624798473000,5.241472900390625,9.272486686706543,1.069292664527893,-0.07806584239006042
1772905624808293000,5.251293212890625,9.339486122131348,1.052542805671692,-0.19770696759223938
1772905624818269000,5.26126904296875,9.332307815551758,1.038185954093933,-0.2599203586578369
1772905624828239600,5.271239501953125,9.274879455566406,1.0357930660247803,-0.23599213361740112
1772905624838419500,5.28141943359375,9.169595718383789,1.0429716110229492,-0.1666002720594406
1772905624848531000,5.291531005859375,9.035597801208496,1.052542805671692,-0.11395817995071411
1772905624858350800,5.301350830078125,8.915657043457031,1.057328462600708,-0.11635100096464157
1772905624868151300,5.3111513671875,8.865407943725586,1.0453643798828125,-0.16420745849609375
1772905624878198500,5.321198486328125,8.915657043457031,1.0214362144470215,-0.21684955060482025
1772905624888174800,5.3311748046875,9.03799057006836,0.9951151013374329,-0.24077777564525604
1772905624898108700,5.341108642578125,9.140881538391113,0.9759725332260132,-0.2503490746021271
1772905624908080600,5.35108056640625,9.148059844970703,0.9711868762969971,-0.26979073882102966
1772905624918260500,5.361260498046875,9.085846900939941,0.9759725332260132,-0.29850462079048157
1772905624928358000,5.37135791015625,9.040383338928223,0.9831510186195374,-0.3032902777194977
1772905624938177800,5.381177734375,9.088239669799805,0.9783653616905212,-0.2841476798057556
1772905624947998000,5.390998046875,9.23180866241455,0.9616156220436096,-0.2599203586578369
1772905624958177800,5.401177734375,9.38016414642334,0.9305089116096497,-0.24556341767311096
1772905624968275000,5.41127490234375,9.442377090454102,0.8994022011756897,-0.23359930515289307
1772905624978095000,5.42109521484375,9.392127990722656,0.8970093727111816,-0.2144567221403122
1772905624987898000,5.430898193359375,9.250951766967773,0.9161519408226013,-0.18335004150867462
1772905624997890600,5.440890625,9.081061363220215,0.9448658227920532,-0.14745768904685974
1772905625007860200,5.450860107421875,8.961420059204102,0.9735797047615051,-0.12113664299249649
1772905625017849000,5.46084912109375,8.959027290344238,0.9903294444084167,-0.11395817995071411
1772905625027820500,5.470820556640625,9.073882102966309,0.9903294444084167,-0.125922292470932
1772905625037793500,5.48079345703125,9.23180866241455,0.9831510186195374,-0.15702898800373077
1772905625047765200,5.49076513671875,9.332307815551758,0.9807581901550293,-0.20488543808460236
1772905625057945300,5.5009453125,9.327521324157715,0.9831510186195374,-0.25274190306663513
1772905625068055800,5.511055908203125,9.236594200134277,0.9903294444084167,-0.2721835672855377
1772905625077875700,5.520875732421875,9.128917694091797,0.9975079298019409,-0.2551347017288208
1772905625087689500,5.530689453125,9.078668594360352,0.9975079298019409,-0.20967108011245728
1772905625097869600,5.54086962890625,9.102596282958984,0.9855438470840454,-0.15224334597587585
1772905625107966000,5.550966064453125,9.15284538269043,0.9616156220436096,-0.11395817995071411
1772905625117929700,5.5609296875,9.181559562683105,0.9448658227920532,-0.125922292470932
1772905625127927600,5.570927490234375,9.167202949523926,0.9400802254676819,-0.19292132556438446
1772905625137747500,5.58074755859375,9.13131046295166,0.9448658227920532,-0.2961117923259735
1772905625147549400,5.590549560546875,9.119346618652344,0.9496514797210693,-0.39182472229003906
1772905625157547300,5.60054736328125,9.160024642944336,0.9448658227920532,-0.43968117237091064
1772905625167514400,5.610514404296875,9.250951766967773,0.9329017400741577,-0.43968117237091064
1772905625177517600,5.620517578125,9.361021041870117,0.9209375977516174,-0.3966103494167328
1772905625187488500,5.630488525390625,9.423234939575195,0.91136634349823,-0.3248256742954254
1772905625197668400,5.64066845703125,9.382556915283203,0.9209375977516174,-0.2551347017288208
1772905625207772400,5.6507724609375,9.23898696899414,0.9448658227920532,-0.20967108011245728
1772905625217727200,5.660727294921875,9.083454132080078,0.9711868762969971,-0.18574285507202148
1772905625227725300,5.670725341796875,9.00688362121582,0.9879366755485535,-0.18574285507202148
1772905625237545500,5.68054541015625,9.049954414367676,0.9879366755485535,-0.1905284970998764
1772905625247361500,5.690361572265625,9.174381256103516,0.9807581901550293,-0.18813568353652954
1772905625257541600,5.700541748046875,9.28445053100586,0.9735797047615051,-0.19531415402889252
1772905625267656700,5.71065673828125,9.305986404418945,0.9711868762969971,-0.2144567221403122
1772905625277476900,5.720476806640625,9.253344535827637,0.968794047832489,-0.22163519263267517
1772905625287292400,5.73029248046875,9.212666511535645,0.968794047832489,-0.18813568353652954
1772905625297283000,5.740282958984375,9.236594200134277,0.968794047832489,-0.11156535893678665
1772905625307251700,5.750251708984375,9.294022560119629,0.968794047832489,-0.025423740968108177
1772905625317242000,5.7602421875,9.303593635559082,0.968794047832489,0.022432712838053703
1772905625327212800,5.770212890625,9.23180866241455,0.9616156220436096,0.008075776509940624
1772905625337393000,5.780392822265625,9.100203514099121,0.9424729943275452,-0.06849455088376999
1772905625347500500,5.79050048828125,8.951549530029297,0.9089735150337219,-0.18095721304416656
1772905625357320700,5.80032080078125,8.827122688293457,0.8587242364883423,-0.28893333673477173
1772905625367136800,5.81013671875,8.74337387084961,0.7989036440849304,-0.36311084032058716
1772905625377121300,5.820121337890625,8.719446182250977,0.7486543655395508,-0.42771705985069275
1772905625387092200,5.83009228515625,8.779266357421875,0.7199404835700989,-0.5042873620986938
1772905625397071600,5.840071533203125,8.925228118896484,0.7055835723876953,-0.5784648656845093
1772905625407043300,5.850043212890625,9.11695384979248,0.7055835723876953,-0.6287141442298889
1772905625417017600,5.860017578125,9.291629791259766,0.7151548862457275,-0.6430711150169373
1772905625426989600,5.869989501953125,9.40169906616211,0.7319046258926392,-0.6239284873008728
1772905625436973800,5.879973876953125,9.428020477294922,0.7606185078620911,-0.5952146053314209
1772905625446947000,5.889947021484375,9.399306297302246,0.791725218296051,-0.5736792087554932
1772905625456932400,5.899932373046875,9.37059211730957,0.8180462121963501,-0.5521438121795654
1772905625466907000,5.909906982421875,9.377771377563477,0.846760094165802,-0.5186443328857422
1772905625476902000,5.91990185546875,9.425627708435059,0.8754739761352539,-0.4612165689468384
1772905625486878700,5.929878662109375,9.480961799621582,0.9041878581047058,-0.37028929591178894
1772905625496838700,5.939838623046875,9.500103950500488,0.9400802254676819,-0.23838496208190918
1772905625506813700,5.949813720703125,9.449555397033691,0.9855438470840454,-0.0972084179520607
1772905625516993500,5.95999365234375,9.327521324157715,1.0357930660247803,0.012861421331763268
1772905625527085300,5.970085205078125,9.174381256103516,1.0788638591766357,0.06550352275371552
1772905625536905200,5.9799052734375,9.054739952087402,1.1099705696105957,0.06789634376764297
1772905625546725400,5.989725341796875,9.023633003234863,1.1171491146087646,0.0487537607550621
1772905625556905200,5.9999052734375,9.076275825500488,1.1003992557525635,0.03439682722091675
1772905625566989600,6.009989501953125,9.15284538269043,1.0668997764587402,0.03200400248169899
1772905625576809500,6.0198095703125,9.186345100402832,1.026221752166748,0.027218356728553772
1772905625586629400,6.02962939453125,9.136096000671387,0.9927222728729248,0.0032901312224566936
1772905625596597200,6.03959716796875,9.02841854095459,0.966401219367981,-0.054137613624334335
1772905625606566400,6.04956640625,8.941978454589844,0.9424729943275452,-0.14267204701900482
1772905625616566800,6.05956689453125,8.937192916870117,0.9233304262161255,-0.25274190306663513
1772905625626539000,6.0695390625,9.002098083496094,0.9041878581047058,-0.35114672780036926
1772905625636523500,6.0795234375,9.088239669799805,0.8922237157821655,-0.4085744619369507
1772905625646496800,6.089496826171875,9.14566707611084,0.8874381184577942,-0.4013960063457489
1772905625656676900,6.0996767578125,9.150452613830566,0.8874381184577942,-0.35114672780036926
1772905625666803000,6.109802978515625,9.109774589538574,0.8850452899932861,-0.28175488114356995
1772905625676622800,6.119622802734375,9.059525489807129,0.88025963306427,-0.22881366312503815
1772905625686440200,6.129440185546875,9.030811309814453,0.8659027218818665,-0.22163519263267517
1772905625696429300,6.13942919921875,9.04516887664795,0.8324031829833984,-0.25274190306663513
1772905625706403600,6.149403564453125,9.136096000671387,0.7845467329025269,-0.3152543902397156
1772905625716394200,6.159394287109375,9.305986404418945,0.7342974543571472,-0.3966103494167328
1772905625726370300,6.169370361328125,9.514460563659668,0.6984050869941711,-0.494716078042984
1772905625736344000,6.179343994140625,9.67238712310791,0.6816553473472595,-0.5952146053314209
1772905625746320000,6.18931982421875,9.705886840820312,0.6864410042762756,-0.6717849373817444
1772905625756304000,6.199303955078125,9.610174179077148,0.7055835723876953,-0.6957131624221802
1772905625766280400,6.209280517578125,9.461520195007324,0.7319046258926392,-0.6478567123413086
1772905625776263200,6.21926318359375,9.325128555297852,0.7630113363265991,-0.5377869009971619
1772905625786240300,6.229240234375,9.227023124694824,0.7941179871559143,-0.4085744619369507
1772905625796226800,6.239226806640625,9.155238151550293,0.8228318691253662,-0.30568310618400574
1772905625806205000,6.249204833984375,9.097810745239258,0.8419744968414307,-0.23599213361740112
1772905625816186600,6.2591865234375,9.061918258666992,0.8635098934173584,-0.18813568353652954
1772905625826165200,6.269165283203125,9.047561645507812,0.8922237157821655,-0.16420745849609375
1772905625836139800,6.279139892578125,9.064311027526855,0.9233304262161255,-0.17138592898845673
1772905625846118100,6.2891181640625,9.107381820678711,0.9544371366500854,-0.19531415402889252
1772905625856298000,6.299298095703125,9.15284538269043,0.9783653616905212,-0.22642084956169128
1772905625866408000,6.309407958984375,9.183952331542969,0.9831510186195374,-0.23359930515289307
1772905625876227800,6.319227783203125,9.195916175842285,0.9735797047615051,-0.18095721304416656
1772905625886035000,6.329034912109375,9.186345100402832,0.9640084505081177,-0.06610172241926193
1772905625896014000,6.33901416015625,9.13131046295166,0.9640084505081177,0.05593222752213478
1772905625905988400,6.34898828125,9.03799057006836,0.9735797047615051,0.12053844332695007
1772905625916168400,6.35916845703125,8.966205596923828,0.9831510186195374,0.09182456880807877
1772905625926280700,6.36928076171875,8.975776672363281,0.9783653616905212,-0.011066804639995098
1772905625936100900,6.379100830078125,9.073882102966309,0.9592227935791016,-0.1378864049911499
1772905625945917000,6.3889169921875,9.227023124694824,0.9329017400741577,-0.2431706041097641
1772905625955912700,6.39891259765625,9.361021041870117,0.9065806865692139,-0.29371899366378784
1772905625965887000,6.408886962890625,9.399306297302246,0.8946165442466736,-0.2913261651992798
1772905625975907800,6.418907958984375,9.334700584411621,0.8970093727111816,-0.2431706041097641
1772905625985887000,6.428886962890625,9.210273742675781,0.8994022011756897,-0.16899310052394867
1772905625996067000,6.439067138671875,9.078668594360352,0.8994022011756897,-0.09481559693813324
1772905626006149400,6.4491494140625,8.968598365783691,0.8922237157821655,-0.054137613624334335
1772905626016111000,6.459111083984375,8.894122123718262,0.8826524615287781,-0.06849455088376999
1772905626026114000,6.469114013671875,8.858229637145996,0.8682954907417297,-0.11874382197856903
1772905626036073000,6.479072998046875,8.858229637145996,0.846760094165802,-0.15942180156707764
1772905626046071600,6.489071533203125,8.8438720703125,0.846760094165802,-0.15942180156707764
1772905626055891700,6.4988916015625,8.817551612854004,0.8706883192062378,-0.14745768904685974
1772905626065708000,6.5087080078125,8.819944381713867,0.9017950296401978,-0.15463615953922272
1772905626075695600,6.518695556640625,8.901300430297852,0.9185447692871094,-0.18813568353652954
1772905626085663500,6.52866357421875,9.081061363220215,0.9185447692871094,-0.22402802109718323
1772905626095843300,6.53884326171875,9.303593635559082,0.91136634349823,-0.24556341767311096
1772905626105958000,6.5489580078125,9.46630573272705,0.913759171962738,-0.26979073882102966
1772905626115777800,6.55877783203125,9.504889488220215,0.9257232546806335,-0.3152543902397156
1772905626125588500,6.56858837890625,9.463912963867188,0.9448658227920532,-0.372682124376297
1772905626135570400,6.5785703125,9.428020477294922,0.9640084505081177,-0.41575294733047485
1772905626145539300,6.588539306640625,9.439984321594238,0.9783653616905212,-0.42293140292167664
1772905626155526100,6.598526123046875,9.46630573272705,0.9879366755485535,-0.40378883481025696
1772905626165496800,6.608496826171875,9.439984321594238,0.9951151013374329,-0.37507495284080505
1772905626175677000,6.618677001953125,9.320343017578125,1.002293586730957,-0.3367897868156433
1772905626185793500,6.62879345703125,9.15284538269043,1.002293586730957,-0.28175488114356995
1772905626195613700,6.63861376953125,9.018847465515137,0.9903294444084167,-0.2072782665491104
1772905626205433600,6.64843359375,8.968598365783691,0.9759725332260132,-0.15702898800373077
1772905626215407600,6.65840771484375,9.009276390075684,0.9568299651145935,-0.17138592898845673
1772905626225379300,6.66837939453125,9.121739387512207,0.9305089116096497,-0.2503490746021271
1772905626235559400,6.678559326171875,9.272486686706543,0.9065806865692139,-0.35114672780036926
1772905626245587200,6.688587158203125,9.40169906616211,0.8922237157821655,-0.4061816334724426
1772905626255566300,6.69856640625,9.476176261901855,0.8946165442466736,-0.3655036687850952
1772905626265561000,6.70856103515625,9.468698501586914,0.91136634349823,-0.2192423790693283
1772905626275562000,6.71856201171875,9.35623550415039,0.9376873970031738,-0.013459627516567707
1772905626285557200,6.72855712890625,9.143274307250977,0.9711868762969971,0.15643078088760376
1772905626295554000,6.738553955078125,8.889336585998535,1.002293586730957,0.21385852992534637
1772905626305549600,6.748549560546875,8.709874153137207,1.0190433263778687,0.14446666836738586
1772905626315531300,6.75853125,8.71226692199707,1.0166505575180054,-0.0038883367087692022
1772905626325525500,6.768525390625,8.915657043457031,0.9927222728729248,-0.15942180156707764
1772905626335345400,6.778345458984375,9.215059280395508,0.9544371366500854,-0.267397940158844
1772905626345232100,6.788232177734375,9.461520195007324,0.9161519408226013,-0.3080759048461914
1772905626355251500,6.79825146484375,9.543174743652344,0.8946165442466736,-0.28654050827026367
1772905626365225000,6.808224853515625,9.442377090454102,0.8970093727111816,-0.2144567221403122
1772905626375249700,6.818249755859375,9.222237586975098,0.9233304262161255,-0.11635100096464157
1772905626385228500,6.828228515625,9.002098083496094,0.9568299651145935,-0.027816563844680786
1772905626395257300,6.83825732421875,8.86780071258545,0.9783653616905212,0.008075776509940624
1772905626405241300,6.848241455078125,8.865407943725586,0.9759725332260132,-0.030209386721253395
1772905626415248000,6.858247802734375,8.975776672363281,0.9448658227920532,-0.1378864049911499
1772905626425234000,6.86823388671875,9.133703231811523,0.8922237157821655,-0.28175488114356995
1772905626435245800,6.878245849609375,9.260522842407227,0.844367265701294,-0.4181457459926605
1772905626445234700,6.888234619140625,9.320343017578125,0.8084749579429626,-0.5042873620986938
1772905626455054600,6.8980546875,9.346664428710938,0.7797610759735107,-0.5018945336341858
1772905626464910000,6.90791015625,9.361021041870117,0.7630113363265991,-0.40378883481025696
1772905626475090000,6.91808984375,9.3490571975708,0.7725825905799866,-0.2721835672855377
1772905626485272600,6.9282724609375,9.258130073547363,0.8108677864074707,-0.1905284970998764
1772905626495271200,6.938271240234375,9.11695384979248,0.8706883192062378,-0.19531415402889252
1772905626505092400,6.94809228515625,9.011669158935547,0.9329017400741577,-0.25274190306663513
1772905626515077600,6.95807763671875,9.009276390075684,0.9831510186195374,-0.3008974492549896
1772905626524897500,6.9678974609375,9.100203514099121,1.0142576694488525,-0.28893333673477173
1772905626534705000,6.977704833984375,9.200701713562012,1.0357930660247803,-0.2024926096200943
1772905626544801300,6.98780126953125,9.236594200134277,1.0597213506698608,-0.07806584239006042
1772905626554769700,6.997769775390625,9.195916175842285,1.0764710903167725,0.07028916478157043
1772905626564765700,7.007765625,9.112167358398438,1.0860424041748047,0.2353939265012741
1772905626574737000,7.01773681640625,9.023633003234863,1.093220829963684,0.3768695592880249
1772905626584916700,7.027916748046875,8.941978454589844,1.0836495161056519,0.4462614357471466
1772905626594991600,7.03799169921875,8.882157325744629,1.0501500368118286,0.41515472531318665
1772905626604988700,7.04798876953125,8.851051330566406,0.999900758266449,0.2787638306617737
1772905626614794800,7.057794677734375,8.865407943725586,0.9400802254676819,0.0726819857954979
1772905626624777500,7.067777587890625,8.93240737915039,0.8850452899932861,-0.13549357652664185
1772905626634714000,7.077714111328125,9.042776107788086,0.8347960114479065,-0.2913261651992798
1772905626644692200,7.087692138671875,9.160024642944336,0.7989036440849304,-0.3607180118560791
1772905626654758100,7.097758056640625,9.222237586975098,0.7773682475090027,-0.37507495284080505
1772905626664745200,7.1077451171875,9.203095436096191,0.7749754190444946,-0.372682124376297
1772905626674565400,7.1175654296875,9.107381820678711,0.789332389831543,-0.3846462368965149
1772905626684426200,7.12742626953125,9.018847465515137,0.8060821294784546,-0.41575294733047485
1772905626694474200,7.13747412109375,9.030811309814453,0.8108677864074707,-0.44446679949760437
1772905626704443400,7.147443359375,9.164810180664062,0.7989036440849304,-0.46839502453804016
1772905626714451700,7.15745166015625,9.35623550415039,0.7869395613670349,-0.49232324957847595
1772905626724425200,7.16742529296875,9.509675025939941,0.7869395613670349,-0.5282155871391296
1772905626734404900,7.17740478515625,9.591031074523926,0.7989036440849304,-0.5593222975730896
1772905626744378600,7.187378662109375,9.626923561096191,0.8228318691253662,-0.5593222975730896
1772905626754336800,7.197336669921875,9.638887405395508,0.8611170649528503,-0.511465847492218
1772905626764309200,7.207309326171875,9.614959716796875,0.91136634349823,-0.43489551544189453
1772905626774324200,7.21732421875,9.552745819091797,0.9640084505081177,-0.36311084032058716
1772905626784301000,7.227301025390625,9.463912963867188,1.0094720125198364,-0.32243284583091736
1772905626794288400,7.237288330078125,9.365806579589844,1.0405787229537964,-0.3008974492549896
1772905626804266000,7.247265869140625,9.294022560119629,1.0597213506698608,-0.27696922421455383
1772905626814243300,7.257243408203125,9.2557373046875,1.069292664527893,-0.22881366312503815
1772905626824221000,7.267220947265625,9.24855899810791,1.069292664527893,-0.1498505175113678
1772905626834194700,7.277194580078125,9.26291561126709,1.0597213506698608,-0.054137613624334335
1772905626844172000,7.287172119140625,9.26291561126709,1.0477572679519653,0.03439682722091675
1772905626854128600,7.297128662109375,9.222237586975098,1.038185954093933,0.08703892678022385
1772905626864104000,7.30710400390625,9.15284538269043,1.038185954093933,0.08464609831571579
1772905626874072300,7.317072265625,9.081061363220215,1.038185954093933,0.046360939741134644
1772905626884046800,7.327046875,9.035597801208496,1.0310074090957642,0.0008973084622994065
1772905626894023400,7.3370234375,9.023633003234863,1.0214362144470215,-0.02063809521496296
1772905626903998000,7.346998046875,9.02841854095459,1.0046863555908203,-0.0038883367087692022
1772905626913977000,7.35697705078125,9.02841854095459,0.9807581901550293,0.03439682722091675
1772905626923952000,7.3669521484375,9.023633003234863,0.9520443081855774,0.0726819857954979
1772905626933934000,7.37693408203125,9.004490852355957,0.9209375977516174,0.08225327730178833
1772905626943910000,7.386909912109375,8.963812828063965,0.8970093727111816,0.0487537607550621
1772905626953889800,7.396889892578125,8.908478736877441,0.8826524615287781,-0.011066804639995098
1772905626963866000,7.4068662109375,8.86062240600586,0.8874381184577942,-0.0852443054318428
1772905626973851100,7.41685107421875,8.831908226013184,0.8994022011756897,-0.15702898800373077
1772905626983828500,7.426828369140625,8.834300994873047,0.9065806865692139,-0.21684955060482025
1772905626993802000,7.436802001953125,8.889336585998535,0.9017950296401978,-0.2503490746021271
1772905627003778800,7.44677880859375,8.99252700805664,0.8850452899932861,-0.2626122832298279
1772905627013730800,7.456730712890625,9.11695384979248,0.8587242364883423,-0.26500511169433594
1772905627023705000,7.466705078125,9.23898696899414,0.8300103545188904,-0.27696922421455383
1772905627033701400,7.476701416015625,9.344271659851074,0.8108677864074707,-0.2961117923259735
1772905627043677700,7.486677734375,9.406484603881836,0.8084749579429626,-0.3080759048461914
1772905627053650200,7.496650146484375,9.4088773727417,0.8204390406608582,-0.31764721870422363
1772905627063626200,7.506626220703125,9.37059211730957,0.8491529226303101,-0.3320041298866272
1772905627073622500,7.51662255859375,9.322735786437988,0.8754739761352539,-0.35832518339157104
1772905627083600600,7.5266005859375,9.294022560119629,0.8970093727111816,-0.3774677813053131
1772905627093614300,7.5366142578125,9.305986404418945,0.9065806865692139,-0.36311084032058716
1772905627103596300,7.54659619140625,9.358628273010254,0.913759171962738,-0.31046873331069946
1772905627113533700,7.55653369140625,9.396913528442383,0.9209375977516174,-0.22881366312503815
1772905627123510800,7.5665107421875,9.365806579589844,0.9400802254676819,-0.1498505175113678
1772905627133480000,7.57647998046875,9.26291561126709,0.9783653616905212,-0.10199406743049622
1772905627143456300,7.586456298828125,9.140881538391113,1.0166505575180054,-0.09002995491027832
1772905627153434000,7.59643408203125,9.076275825500488,1.0429716110229492,-0.0972084179520607
1772905627163410700,7.60641064453125,9.097810745239258,1.052542805671692,-0.10438688844442368
1772905627173389000,7.61638916015625,9.169595718383789,1.0429716110229492,-0.10199406743049622
1772905627183365600,7.62636572265625,9.222237586975098,1.0286146402359009,-0.10199406743049622
1772905627193345800,7.636345703125,9.198308944702148,1.0190433263778687,-0.10677970945835114
1772905627203323000,7.646322998046875,9.109774589538574,1.0190433263778687,-0.09002995491027832
1772905627213286700,7.65628662109375,9.002098083496094,1.0310074090957642,-0.04935196787118912
1772905627223262500,7.666262451171875,8.934800148010254,1.0477572679519653,0.0032901312224566936
1772905627233244700,7.67624462890625,8.925228118896484,1.0621141195297241,0.03918246924877167
1772905627243221000,7.686220947265625,8.963812828063965,1.0668997764587402,0.03439682722091675
1772905627253187800,7.696187744140625,9.04516887664795,1.0477572679519653,-0.00867398176342249
1772905627263163100,7.7061630859375,9.174381256103516,1.0094720125198364,-0.08285148441791534
1772905627273137200,7.71613720703125,9.341878890991211,0.9520443081855774,-0.17617157101631165
1772905627283112400,7.726112548828125,9.512067794799805,0.8850452899932861,-0.2431706041097641
1772905627293072000,7.73607177734375,9.629316329956055,0.8324031829833984,-0.24077777564525604
1772905627303045600,7.746045654296875,9.622138023376465,0.8180462121963501,-0.1737787425518036
1772905627313021000,7.75602099609375,9.46630573272705,0.8395816683769226,-0.07567301392555237
1772905627322994700,7.76599462890625,9.200701713562012,0.8874381184577942,-0.0014955141814425588
1772905627332982500,7.775982421875,8.913264274597168,0.9448658227920532,0.012861421331763268
1772905627342957800,7.785957763671875,8.72183895111084,0.9927222728729248,-0.025423740968108177
1772905627352953000,7.795953125,8.71226692199707,1.0166505575180054,-0.06849455088376999
1772905627362930400,7.805930419921875,8.879764556884766,1.0118649005889893,-0.08285148441791534
1772905627372915500,7.81591552734375,9.107381820678711,0.9927222728729248,-0.07806584239006042
1772905627382893600,7.8258935546875,9.2557373046875,0.9711868762969971,-0.09002995491027832
1772905627392880600,7.835880615234375,9.26291561126709,0.9544371366500854,-0.11874382197856903
1772905627402859500,7.845859619140625,9.176774024963379,0.9520443081855774,-0.12831512093544006
1772905627412827400,7.855827392578125,9.083454132080078,0.9616156220436096,-0.07806584239006042
1772905627422805200,7.86580517578125,9.009276390075684,0.9807581901550293,0.008075776509940624
1772905627432801500,7.875801513671875,8.94676399230957,1.0046863555908203,0.06789634376764297
1772905627442781400,7.885781494140625,8.915657043457031,1.0190433263778687,0.07507480680942535
1772905627452738600,7.895738525390625,8.94676399230957,1.026221752166748,0.03439682722091675
1772905627462716200,7.905716064453125,9.026025772094727,1.0310074090957642,-0.0445663221180439
1772905627472685600,7.915685546875,9.11695384979248,1.033400297164917,-0.13549357652664185
1772905627482662100,7.925662109375,9.195916175842285,1.0310074090957642,-0.21206390857696533
1772905627492633900,7.9356337890625,9.26291561126709,1.026221752166748,-0.2503490746021271
1772905627502610000,7.94560986328125,9.317950248718262,1.0142576694488525,-0.2312064915895462
1772905627512600800,7.955600830078125,9.341878890991211,1.0118649005889893,-0.16420745849609375
1772905627522578400,7.965578369140625,9.322735786437988,1.0214362144470215,-0.08045866340398788
1772905627532758300,7.97575830078125,9.2557373046875,1.0429716110229492,-0.013459627516567707
1772905627542865400,7.985865478515625,9.167202949523926,1.0668997764587402,0.012861421331763268
1772905627552685600,7.995685546875,9.090632438659668,1.088435173034668,-0.0062811593525111675
1772905627562509600,8.005509521484376,9.071489334106445,1.1003992557525635,-0.04935196787118912
1772905627572505900,8.015505859375,9.13131046295166,1.088435173034668,-0.08045866340398788
1772905627582482700,8.025482666015625,9.258130073547363,1.057328462600708,-0.06849455088376999
1772905627592448300,8.0354482421875,9.38734245300293,1.0238289833068848,-0.023030918091535568
1772905627602423800,8.045423828125,9.428020477294922,0.999900758266449,0.015254244208335876
1772905627612424400,8.055424560546875,9.332307815551758,0.9927222728729248,0.012861421331763268
1772905627622402600,8.065402587890626,9.167202949523926,1.002293586730957,-0.03738785535097122
1772905627632412000,8.075411865234376,9.047561645507812,1.0118649005889893,-0.11635100096464157
1772905627642393300,8.085393310546875,9.054739952087402,1.0070792436599731,-0.18574285507202148
1772905627652573200,8.0955732421875,9.167202949523926,0.9879366755485535,-0.24077777564525604
1772905627662684200,8.10568408203125,9.301200866699219,0.9568299651145935,-0.2793620526790619
1772905627672504000,8.115504150390626,9.384949684143066,0.9257232546806335,-0.2913261651992798
1772905627682326500,8.125326416015625,9.392127990722656,0.91136634349823,-0.25274190306663513
1772905627692278300,8.1352783203125,9.315557479858398,0.9185447692871094,-0.16899310052394867
1772905627702252800,8.145252685546875,9.174381256103516,0.9400802254676819,-0.08045866340398788
1772905627712433000,8.155432861328125,9.01406192779541,0.968794047832489,-0.030209386721253395
1772905627722525400,8.165525390625,8.896514892578125,0.9927222728729248,-0.03738785535097122
1772905627732345300,8.175345458984374,8.870193481445312,1.0094720125198364,-0.08045866340398788
1772905627742153000,8.185153076171876,8.956634521484375,1.0214362144470215,-0.13070793449878693
1772905627752157000,8.195156982421874,9.095417976379395,1.0286146402359009,-0.15463615953922272
1772905627762130400,8.20513037109375,9.198308944702148,1.0310074090957642,-0.13310076296329498
1772905627772094700,8.2150947265625,9.243772506713867,1.0310074090957642,-0.07806584239006042
1772905627782067200,8.225067138671875,9.26291561126709,1.0286146402359009,-0.0014955141814425588
1772905627792045300,8.23504541015625,9.279664993286133,1.0286146402359009,0.05593222752213478
1772905627802018300,8.245018310546875,9.274879455566406,1.0310074090957642,0.05114658549427986
1772905627812000000,8.255,9.2557373046875,1.026221752166748,-0.00867398176342249
1772905627821974000,8.26497412109375,9.234201431274414,1.026221752166748,-0.0972084179520607
1772905627832154000,8.275154052734376,9.210273742675781,1.026221752166748,-0.1785643845796585
1772905627842237400,8.285237548828125,9.193523406982422,1.0238289833068848,-0.21684955060482025
1772905627852057600,8.2950576171875,9.183952331542969,1.0238289833068848,-0.2072782665491104
1772905627861863700,8.30486376953125,9.186345100402832,1.0190433263778687,-0.15224334597587585
1772905627871866600,8.31486669921875,9.195916175842285,1.0070792436599731,-0.06610172241926193
1772905627881838800,8.3248388671875,9.186345100402832,0.9975079298019409,0.015254244208335876
1772905627892019000,8.33501904296875,9.136096000671387,0.9975079298019409,0.06311069428920746
1772905627902129200,8.345129150390624,9.054739952087402,1.002293586730957,0.06550352275371552
1772905627911949000,8.354948974609375,8.990134239196777,1.0094720125198364,0.02961117960512638
1772905627921761000,8.364760986328125,8.985347747802734,1.0166505575180054,-0.01585244946181774
1772905627931748400,8.374748291015624,9.042776107788086,1.0166505575180054,-0.03978067636489868
1772905627941720300,8.38472021484375,9.11695384979248,1.0142576694488525,-0.04935196787118912
1772905627951712800,8.394712646484376,9.155238151550293,1.0118649005889893,-0.04695914313197136
1772905627961686800,8.404686767578125,9.140881538391113,1.0142576694488525,-0.023030918091535568
1772905627971654000,8.41465380859375,9.085846900939941,1.026221752166748,0.020039889961481094
1772905627981627100,8.424627197265625,9.030811309814453,1.0453643798828125,0.06789634376764297
1772905627991603200,8.434603271484375,9.002098083496094,1.0621141195297241,0.09900303930044174
1772905628001576700,8.44457666015625,9.00688362121582,1.0740783214569092,0.08703892678022385
1772905628011554800,8.454554931640626,9.033205032348633,1.0788638591766357,0.015254244208335876
1772905628021528800,8.46452880859375,9.083454132080078,1.0740783214569092,-0.08763712644577026
1772905628031498800,8.474498779296875,9.157630920410156,1.064507007598877,-0.17617157101631165
1772905628041472300,8.48447216796875,9.229415893554688,1.0549356937408447,-0.21684955060482025
1772905628051468500,8.494468505859375,9.27009391784668,1.0477572679519653,-0.1905284970998764
1772905628061444400,8.5044443359375,9.267701148986816,1.0453643798828125,-0.1091725304722786
1772905628071408000,8.514408203125,9.219844818115234,1.0501500368118286,-0.02063809521496296
1772905628081383000,8.5243828125,9.140881538391113,1.057328462600708,0.020039889961481094
1772905628091381500,8.534381591796874,9.073882102966309,1.057328462600708,-0.00867398176342249
1772905628101358800,8.54435888671875,9.081061363220215,1.0549356937408447,-0.08763712644577026
1772905628111342800,8.5543427734375,9.160024642944336,1.0453643798828125,-0.18095721304416656
1772905628121320700,8.56432080078125,9.260522842407227,1.033400297164917,-0.25274190306663513
1772905628131306500,8.574306396484374,9.332307815551758,1.0214362144470215,-0.28654050827026367
1772905628141285000,8.58428515625,9.334700584411621,1.0118649005889893,-0.2745763957500458
1772905628151261200,8.59426123046875,9.265308380126953,1.0070792436599731,-0.22402802109718323
1772905628161239600,8.604239501953124,9.157630920410156,1.0046863555908203,-0.15224334597587585
1772905628171216400,8.61421630859375,9.069096565246582,1.0046863555908203,-0.08763712644577026
1772905628181194800,8.62419482421875,9.030811309814453,1.002293586730957,-0.03738785535097122
1772905628191166000,8.634166015625,9.057132720947266,1.0046863555908203,-0.01585244946181774
1772905628201143300,8.644143310546875,9.1145601272583,1.0118649005889893,-0.023030918091535568
1772905628211122200,8.6541220703125,9.179166793823242,1.0214362144470215,-0.04217349737882614
1772905628221099800,8.664099853515625,9.222237586975098,1.0310074090957642,-0.04935196787118912
1772905628231108900,8.67410888671875,9.234201431274414,1.0357930660247803,-0.01824527233839035
1772905628241089800,8.68408984375,9.222237586975098,1.0310074090957642,0.041575293987989426
1772905628251062500,8.6940625,9.179166793823242,1.026221752166748,0.10857433080673218
1772905628261042400,8.70404248046875,9.100203514099121,1.026221752166748,0.15882360935211182
1772905628271021300,8.714021240234375,8.997312545776367,1.033400297164917,0.15643078088760376
1772905628281001200,8.724001220703125,8.913264274597168,1.0477572679519653,0.10378868132829666
1772905628290976000,8.73397607421875,8.889336585998535,1.0597213506698608,0.022432712838053703
1772905628300955400,8.743955322265625,8.927620887756348,1.0668997764587402,-0.04695914313197136
1772905628310920200,8.753920166015625,9.016454696655273,1.0621141195297241,-0.07088737189769745
1772905628320898000,8.76389794921875,9.1145601272583,1.052542805671692,-0.05892325937747955
1772905628330871300,8.773871337890625,9.174381256103516,1.0357930660247803,-0.03978067636489868
1772905628340848600,8.7838486328125,9.191130638122559,1.0190433263778687,-0.027816563844680786
1772905628350823200,8.7938232421875,9.193523406982422,1.0070792436599731,-0.025423740968108177
1772905628360800300,8.80380029296875,9.215059280395508,0.9927222728729248,-0.027816563844680786
1772905628370788600,8.81378857421875,9.2557373046875,0.9831510186195374,-0.032602209597826004
1772905628380767000,8.82376708984375,9.282057762145996,0.9879366755485535,-0.04695914313197136
1772905628390743600,8.83374365234375,9.274879455566406,1.002293586730957,-0.06610172241926193
1772905628400721700,8.8437216796875,9.24855899810791,1.0214362144470215,-0.08285148441791534
1772905628410690800,8.85369091796875,9.224630355834961,1.038185954093933,-0.08763712644577026
1772905628420668200,8.863668212890625,9.205488204956055,1.0477572679519653,-0.07088737189769745
1772905628430631700,8.873631591796874,9.215059280395508,1.0405787229537964,-0.02063809521496296
1772905628440607500,8.883607421875,9.282057762145996,1.0166505575180054,0.05353940650820732
1772905628450582800,8.893582763671875,9.38016414642334,0.9807581901550293,0.13968102633953094
1772905628460558600,8.90355859375,9.437591552734375,0.9544371366500854,0.18753747642040253
1772905628470538200,8.913538330078126,9.404091835021973,0.9400802254676819,0.15643078088760376
1772905628480514600,8.9235146484375,9.322735786437988,0.9329017400741577,0.06311069428920746
1772905628490489600,8.933489501953124,9.246166229248047,0.9376873970031738,-0.03978067636489868
1772905628500465700,8.943465576171874,9.193523406982422,0.9472586512565613,-0.10438688844442368
1772905628510442500,8.9534423828125,9.136096000671387,0.9616156220436096,-0.11635100096464157
1772905628520418600,8.96341845703125,9.057132720947266,0.9759725332260132,-0.0852443054318428
1772905628530405400,8.9734052734375,8.978169441223145,0.9807581901550293,-0.01585244946181774
1772905628540382700,8.9833828125,8.934800148010254,0.9855438470840454,0.06311069428920746
1772905628550367200,8.9933671875,8.93958568572998,0.9879366755485535,0.10618150234222412
1772905628560345300,9.003345458984375,8.975776672363281,0.9927222728729248,0.08464609831571579
1772905628570329000,9.0133291015625,9.03799057006836,0.9975079298019409,0.020039889961481094
1772905628580307700,9.0233076171875,9.100203514099121,1.0094720125198364,-0.030209386721253395
1772905628590281000,9.033281005859376,9.128917694091797,1.0238289833068848,-0.025423740968108177
1772905628600258800,9.0432587890625,9.11695384979248,1.0429716110229492,0.020039889961481094
1772905628610233000,9.053233154296874,9.078668594360352,1.057328462600708,0.06789634376764297
1772905628620210700,9.063210693359375,9.054739952087402,1.0621141195297241,0.08703892678022385
1772905628630189800,9.07318994140625,9.093025207519531,1.0549356937408447,0.07746763527393341
1772905628640167400,9.08316748046875,9.183952331542969,1.0405787229537964,0.06550352275371552
1772905628650161200,9.0931611328125,9.260522842407227,1.0238289833068848,0.05593222752213478
1772905628660140500,9.103140625,9.291629791259766,1.0046863555908203,0.06071787327528
1772905628670116400,9.113116455078124,9.294022560119629,0.9903294444084167,0.08703892678022385
1772905628680095500,9.123095458984375,9.279664993286133,0.9831510186195374,0.11096715182065964
1772905628690061300,9.133061279296875,9.260522842407227,0.9831510186195374,0.09182456880807877
1772905628700039200,9.1430390625,9.2557373046875,0.9807581901550293,0.017647067084908485
1772905628710017000,9.15301708984375,9.28445053100586,0.9759725332260132,-0.07328019291162491
1772905628719995000,9.162994873046875,9.334700584411621,0.9711868762969971,-0.13070793449878693
1772905628729977600,9.1729775390625,9.382556915283203,0.9735797047615051,-0.12352947145700455
1772905628739956000,9.1829560546875,9.396913528442383,0.9879366755485535,-0.06131608039140701
1772905628749927200,9.19292724609375,9.346664428710938,1.0142576694488525,0.015254244208335876
1772905628759904500,9.202904541015625,9.210273742675781,1.0453643798828125,0.06071787327528
1772905628769964000,9.212964111328125,9.030811309814453,1.0764710903167725,0.06550352275371552
1772905628779949800,9.22294970703125,8.891729354858398,1.1003992557525635,0.03918246924877167
1772905628789922800,9.2329228515625,8.86062240600586,1.1123634576797485,0.015254244208335876
1772905628799907300,9.2429072265625,8.934800148010254,1.1147562265396118,0.015254244208335876
1772905628809837600,9.252837646484375,9.054739952087402,1.119541883468628,0.03918246924877167
1772905628819816400,9.26281640625,9.133703231811523,1.124327540397644,0.07986045628786087
1772905628829785900,9.272785888671875,9.12413215637207,1.1362916231155396,0.11814561486244202
1772905628839764000,9.282763916015625,9.054739952087402,1.1602199077606201,0.1372881978750229
1772905628849733000,9.292733154296876,9.004490852355957,1.1820544004440308,0.13489536941051483
1772905628859710200,9.302710205078125,9.026025772094727,1.1868400573730469,0.1301097273826599
1772905628869676800,9.3126767578125,9.11695384979248,1.179661512374878,0.1372881978750229
1772905628879652900,9.32265283203125,9.227023124694824,1.1578270196914673,0.1540379524230957
1772905628889586700,9.332586669921875,9.301200866699219,1.1338988542556763,0.16121642291545868
1772905628899558400,9.342558349609375,9.327521324157715,1.1075778007507324,0.13250255584716797
1772905628909543400,9.35254345703125,9.344271659851074,1.0836495161056519,0.06311069428920746
1772905628919516400,9.362516357421875,9.368199348449707,1.0621141195297241,-0.03738785535097122
1772905628929486800,9.37248681640625,9.39452075958252,1.0453643798828125,-0.1378864049911499
1772905628939459600,9.38245947265625,9.392127990722656,1.0405787229537964,-0.2072782665491104
1772905628949416000,9.392416015625,9.332307815551758,1.0501500368118286,-0.22881366312503815
1772905628959387100,9.40238720703125,9.236594200134277,1.057328462600708,-0.18095721304416656
1772905628969375200,9.412375244140625,9.148059844970703,1.0477572679519653,-0.08045866340398788
1772905628979348200,9.42234814453125,9.095417976379395,1.0214362144470215,0.024825535714626312
1772905628989340200,9.432340087890625,9.085846900939941,0.9831510186195374,0.06789634376764297
1772905628999315000,9.44231494140625,9.126524925231934,0.9424729943275452,0.005682953633368015
1772905629009284600,9.45228466796875,9.191130638122559,0.91136634349823,-0.14027923345565796
1772905629019259000,9.4622587890625,9.265308380126953,0.8922237157821655,-0.28654050827026367
1772905629029240800,9.47224072265625,9.339486122131348,0.8874381184577942,-0.3607180118560791
1772905629039215900,9.4822158203125,9.365806579589844,0.8994022011756897,-0.33918261528015137
1772905629049395700,9.492395751953126,9.305986404418945,0.9305089116096497,-0.2626122832298279
1772905629059499500,9.50249951171875,9.191130638122559,0.966401219367981,-0.18095721304416656
1772905629069319400,9.5123193359375,9.088239669799805,0.9951151013374329,-0.12352947145700455
1772905629079125500,9.52212548828125,9.040383338928223,1.0142576694488525,-0.09242277592420578
1772905629089129500,9.53212939453125,9.042776107788086,1.0357930660247803,-0.06370890140533447
1772905629099103700,9.542103759765626,9.078668594360352,1.064507007598877,-0.013459627516567707
1772905629109116200,9.5521162109375,9.136096000671387,1.095613718032837,0.06311069428920746
1772905629119094500,9.562094482421875,9.207880973815918,1.1267203092575073,0.1420738399028778
1772905629129070300,9.5720703125,9.2557373046875,1.1578270196914673,0.18035900592803955
1772905629139048400,9.58204833984375,9.253344535827637,1.184447169303894,0.16360925137996674
1772905629149019400,9.592019287109375,9.23180866241455,1.2035897970199585,0.12293126434087753
1772905629158996700,9.601996826171876,9.207880973815918,1.2203395366668701,0.1133599728345871
1772905629169176600,9.612176513671875,9.157630920410156,1.2394821643829346,0.1372881978750229
1772905629179262200,9.62226220703125,9.064311027526855,1.2610175609588623,0.1779661774635315
1772905629189218800,9.63221875,8.949156761169434,1.277767300605774,0.19710876047611237
1772905629199220200,9.64222021484375,8.889336585998535,1.2801600694656372,0.1827518343925476
1772905629209168400,9.65216845703125,8.956634521484375,1.2705888748168945,0.15164513885974884
1772905629219164400,9.662164306640625,9.133703231811523,1.2538390159606934,0.10618150234222412
1772905629229116400,9.672116455078125,9.337093353271484,1.2418749332427979,0.046360939741134644
1772905629239108000,9.682108154296875,9.490532875061035,1.2251251935958862,-0.013459627516567707
1772905629248928000,9.691927978515626,9.524032592773438,1.215553879737854,-0.04695914313197136
1772905629258748000,9.701747802734374,9.437591552734375,1.215553879737854,-0.03978067636489868
1772905629268698600,9.71169873046875,9.27727222442627,1.2251251935958862,0.022432712838053703
1772905629278658300,9.721658203125,9.107381820678711,1.2346965074539185,0.1301097273826599
1772905629288838100,9.731838134765624,8.973383903503418,1.2394821643829346,0.247358039021492
1772905629298941400,9.74194140625,8.889336585998535,1.2370892763137817,0.3314059376716614
1772905629308761300,9.75176123046875,8.851051330566406,1.2323036193847656,0.3481557071208954
1772905629318561800,9.761561767578126,8.841479301452637,1.2275179624557495,0.29312077164649963
1772905629328554200,9.77155419921875,8.863015174865723,1.222732424736023,0.19950158894062042
1772905629338517800,9.781517822265625,8.915657043457031,1.222732424736023,0.12053844332695007
1772905629348697600,9.791697509765624,8.987740516662598,1.2346965074539185,0.09661021083593369
1772905629358811000,9.801810791015624,9.02841854095459,1.2562319040298462,0.1372881978750229
1772905629368630800,9.811630859375,8.985347747802734,1.2993026971817017,0.20907287299633026
1772905629378451000,9.821450927734375,8.879764556884766,1.3423734903335571,0.2955136001110077
1772905629388412000,9.831411865234376,8.781659126281738,1.3710874319076538,0.3720839321613312
1772905629398377500,9.84137744140625,8.74337387084961,1.3710874319076538,0.42711883783340454
1772905629408364300,9.8513642578125,8.776873588562012,1.3519448041915894,0.46061834692955017
1772905629418331600,9.86133154296875,8.86780071258545,1.3256237506866455,0.4773681163787842
1772905629428314600,9.871314697265625,8.982954978942871,1.3088740110397339,0.49651068449020386
1772905629438283800,9.88128369140625,9.069096565246582,1.3088740110397339,0.5300102233886719
1772905629448272100,9.891272216796875,9.12413215637207,1.3208380937576294,0.5802595019340515
1772905629458243300,9.901243408203126,9.109774589538574,1.3423734903335571,0.625723123550415
1772905629468234200,9.911234130859375,9.049954414367676,1.3495519161224365,0.6352944374084473
1772905629478207500,9.92120751953125,9.02841854095459,1.332802176475525,0.5994020700454712
1772905629488387300,9.93138720703125,9.104989051818848,1.3088740110397339,0.5395814776420593
1772905629498496500,9.94149658203125,9.253344535827637,1.2873386144638062,0.47258245944976807
1772905629508316400,9.95131640625,9.4088773727417,1.2705888748168945,0.42711883783340454
1772905629518117400,9.961117431640625,9.497711181640625,1.2610175609588623,0.43908295035362244
1772905629528164400,9.971164306640626,9.471091270446777,1.2586246728897095,0.5108676552772522
1772905629538141700,9.9811416015625,9.344271659851074,1.2610175609588623,0.6376872062683105
1772905629548321800,9.99132177734375,9.193523406982422,1.2801600694656372,0.7740781307220459
1772905629558350300,10.001350341796876,9.109774589538574,1.3160524368286133,0.870090126991272
1772905629568170200,10.011170166015624,9.11695384979248,1.3495519161224365,0.8868398666381836
1772905629577985500,10.020985595703126,9.174381256103516,1.3830515146255493,0.8318049907684326
1772905629587994000,10.030994140625,9.23180866241455,1.4141582250595093,0.7334001660346985
1772905629597966000,10.040966064453125,9.241379737854004,1.4476577043533325,0.656829833984375
1772905629608146200,10.051146240234376,9.176774024963379,1.495514154434204,0.6520441770553589
1772905629628092700,10.0710927734375,8.925228118896484,1.581655740737915,0.8533403873443604
1772905629637901000,10.080901123046875,8.882157325744629,1.5984054803848267,1.0040881633758545
1772905629647884000,10.090884033203125,8.951549530029297,1.612762451171875,1.1356934309005737
1772905629657856300,10.100856201171876,9.073882102966309,1.6366907358169556,1.2242279052734375
1772905629667840300,10.11084033203125,9.171988487243652,1.6654045581817627,1.2577273845672607
1772905629677813800,10.120813720703126,9.24855899810791,1.6869399547576904,1.2385848760604858
1772905629687993600,10.13099365234375,9.315557479858398,1.6968103647232056,1.212263822555542
1772905629698102000,10.14110205078125,9.351449966430664,1.6968103647232056,1.2146565914154053
1772905629708044000,10.1510439453125,9.315557479858398,1.6992031335830688,1.2337992191314697
1772905629718043000,10.16104296875,9.186345100402832,1.711167335510254,1.2433704137802124
1772905629727990300,10.170990234375,8.99252700805664,1.7207385301589966,1.2146565914154053
1772905629737984000,10.18098388671875,8.80798053741455,1.71595299243927,1.1524431705474854
1772905629747804000,10.190803955078126,8.719446182250977,1.6920247077941895,1.07826566696167
1772905629757624000,10.2006240234375,8.769695281982422,1.6558332443237305,1.0328021049499512
1772905629767804000,10.210803955078125,8.95394229888916,1.6103696823120117,1.0567302703857422
1772905629777886000,10.220885986328126,9.188737869262695,1.5672988891601562,1.1333006620407104
1772905629787705900,10.230705810546874,9.351449966430664,1.5337992906570435,1.1931211948394775
1772905629797526000,10.240526123046875,9.38016414642334,1.5122638940811157,1.2026925086975098
1772905629807489500,10.250489501953124,9.274879455566406,1.495514154434204,1.169192910194397
1772905629817452500,10.26045263671875,9.071489334106445,1.4787644147872925,1.0998010635375977
1772905629827515600,10.270515625,8.827122688293457,1.459621787071228,1.0136594772338867
1772905629837489000,10.280489013671875,8.628518104553223,1.4428720474243164,0.9323035478591919
1772905629847416300,10.290416259765625,8.511270523071289,1.4428720474243164,0.87248295545578
1772905629857385000,10.300385009765625,8.48016357421875,1.4500504732131958,0.8509475588798523
1772905629867565000,10.31056494140625,8.532805442810059,1.454836130142212,0.8844470977783203
1772905629877660700,10.32066064453125,8.623732566833496,1.4691931009292603,0.9538389444351196
1772905629887614200,10.3306142578125,8.688339233398438,1.4979069232940674,1.023230791091919
1772905629897609700,10.340609619140626,8.702695846557617,1.5385849475860596,1.0639088153839111
1772905629907554800,10.350554931640625,8.688339233398438,1.5840486288070679,1.0639088153839111
1772905629917545200,10.360545166015624,8.693124771118164,1.6295121908187866,1.0328021049499512
1772905629927502000,10.370502197265624,8.72183895111084,1.672582983970642,0.9873384237289429
1772905629937489200,10.3804892578125,8.784051895141602,1.711167335510254,0.9705886840820312
1772905629947309000,10.39030908203125,8.86062240600586,1.7542381286621094,1.0112667083740234
1772905629957125600,10.400125732421875,8.915657043457031,1.8092730045318604,1.0998010635375977
1772905629967118300,10.410118408203125,8.908478736877441,1.8667007684707642,1.205085277557373
1772905629977078300,10.420078369140626,8.851051330566406,1.9193428754806519,1.291226863861084
1772905629987059700,10.430059814453125,8.784051895141602,1.955235242843628,1.334596872329712
1772905629997022000,10.44002197265625,8.764909744262695,1.9767706394195557,1.3417752981185913
1772905630007005200,10.450005126953124,8.824729919433594,1.986341953277588,1.327418327331543
1772905630016969200,10.45996923828125,8.951549530029297,1.983949065208435,1.3106685876846313
1772905630026946300,10.4699462890625,9.109774589538574,1.9719849824905396,1.303490161895752
1772905630036911900,10.479911865234374,9.265308380126953,1.948056697845459,1.3202399015426636
1772905630046896400,10.489896484375,9.361021041870117,1.9265213012695312,1.3657035827636719
1772905630056863700,10.49986376953125,9.337093353271484,1.9097715616226196,1.4015958309173584
1772905630066857200,10.509857177734375,9.198308944702148,1.8954145908355713,1.4015958309173584
1772905630076827400,10.519827392578126,9.016454696655273,1.8810577392578125,1.3561322689056396
1772905630086792400,10.52979248046875,8.865407943725586,1.8643079996109009,1.2840484380722046
1772905630096762000,10.53976220703125,8.786444664001465,1.8475581407546997,1.200299620628357
1772905630106744300,10.549744384765624,8.800801277160645,1.826022744178772,1.1213364601135254
1772905630116715300,10.55971533203125,8.886942863464355,1.806880235671997,1.0663015842437744
1772905630126707500,10.56970751953125,9.011669158935547,1.7925232648849487,1.0447661876678467
1772905630136680400,10.579680419921875,9.12413215637207,1.7877376079559326,1.0495518445968628
1772905630146668300,10.589668212890626,9.179166793823242,1.802094578742981,1.0686944723129272
1772905630156642800,10.599642822265626,9.1624174118042,1.833201289176941,1.090229868888855
1772905630166639600,10.6096396484375,9.097810745239258,1.8738791942596436,1.114158034324646
1772905630176616400,10.619616455078125,9.049954414367676,1.916949987411499,1.1715857982635498
1772905630186596000,10.62959619140625,9.071489334106445,1.9624136686325073,1.2792627811431885
1772905630196573400,10.639573486328125,9.176774024963379,2.0006988048553467,1.4111671447753906
1772905630206753300,10.649753173828126,9.315557479858398,2.0318055152893066,1.5092729330062866
1772905630216864300,10.6598642578125,9.416056632995605,2.0533409118652344,1.547558069229126
1772905630226684200,10.66968408203125,9.439984321594238,2.072483539581299,1.5427724123001099
1772905630236504000,10.679504150390626,9.36341381072998,2.082054853439331,1.5355939865112305
1772905630246458400,10.689458251953125,9.222237586975098,2.0868403911590576,1.5427724123001099
1772905630256431000,10.69943115234375,9.081061363220215,2.0772690773010254,1.5667005777359009
1772905630266410000,10.709409912109376,8.985347747802734,2.048555374145508,1.5978072881698608
1772905630276383500,10.719383544921875,8.937192916870117,2.010270118713379,1.5978072881698608
1772905630286563300,10.729563232421874,8.894122123718262,1.979163408279419,1.5236297845840454
1772905630296676600,10.739676513671874,8.82233715057373,1.955235242843628,1.3800604343414307
1772905630306496800,10.749496826171875,8.714659690856934,1.9456639289855957,1.2026925086975098
1772905630316301000,10.759301025390625,8.58784008026123,1.9432710409164429,1.0567302703857422
1772905630326292200,10.769292236328125,8.4562349319458,1.9384855031967163,0.9801599979400635
1772905630336265000,10.779264892578125,8.331509590148926,1.9313069581985474,0.9586246013641357
1772905630346444800,10.78944482421875,8.235795974731445,1.9193428754806519,0.9681958556175232
1772905630356553700,10.7995537109375,8.197511672973633,1.9002002477645874,0.9873384237289429
1772905630366374000,10.809373779296875,8.221439361572266,1.8786648511886597,1.0064810514450073
1772905630376176000,10.819176025390625,8.274081230163574,1.861915111541748,1.0088738203048706
1772905630386171400,10.82917138671875,8.314759254455566,1.857129454612732,0.9849455952644348
1772905630396143400,10.839143310546875,8.3267240524292,1.8595223426818848,0.9346963167190552
1772905630406128600,10.849128662109376,8.30997371673584,1.8762720823287964,0.8629116415977478
1772905630416102100,10.85910205078125,8.28126049041748,1.9002002477645874,0.7911269664764404
1772905630426094600,10.869094482421875,8.28843879699707,1.916949987411499,0.745364248752594
1772905630436070100,10.879070068359376,8.386544227600098,1.916949987411499,0.7597211599349976
1772905630446250000,10.88925,8.60459041595459,1.9049859046936035,0.8294121623039246
1772905630456365000,10.899364990234375,8.898907661437988,1.888236165046692,0.8988040089607239
1772905630466185200,10.909185302734375,9.171988487243652,1.8810577392578125,0.9179465770721436
1772905630475996200,10.91899609375,9.310771942138672,1.893021821975708,0.8676972985267639
1772905630485983000,10.92898291015625,9.27727222442627,1.928914189338684,0.7692924737930298
1772905630495957000,10.93895703125,9.11695384979248,1.979163408279419,0.6735795736312866
1772905630505946600,10.948946533203125,8.915657043457031,2.0294127464294434,0.6209374666213989
1772905630515922400,10.95892236328125,8.769695281982422,2.0629122257232666,0.6209374666213989
1772905630525897000,10.96889697265625,8.73619556427002,2.074876308441162,0.6544370055198669
1772905630535872500,10.97887255859375,8.793622970581055,2.0629122257232666,0.6879364848136902
1772905630545856300,10.988856201171876,8.884550094604492,2.0461623668670654,0.6855437159538269
1772905630555832600,10.99883251953125,8.95394229888916,2.0318055152893066,0.6352944374084473
1772905630566012700,11.0090126953125,8.975776672363281,2.0150556564331055,0.5563312768936157
1772905630576118500,11.019118408203125,8.94676399230957,2.00309157371521,0.4941178858280182
1772905630586071300,11.0290712890625,8.872586250305176,2.00309157371521,0.4821537733078003
1772905630596073500,11.039073486328125,8.764909744262695,2.0054845809936523,0.5108676552772522
1772905630605893400,11.048893310546875,8.673981666564941,2.0054845809936523,0.5324030518531799
1772905630615694000,11.058694091796875,8.635697364807129,1.9959131479263306,0.5108676552772522
1772905630625874000,11.0688740234375,8.659625053405762,1.9767706394195557,0.4534398913383484
1772905630635979000,11.07897900390625,8.760123252868652,1.9456639289855957,0.3888336718082428
1772905630645927400,11.088927490234376,8.934800148010254,1.9097715616226196,0.33379876613616943
1772905630655922000,11.098921875,9.12413215637207,1.8762720823287964,0.2955136001110077
1772905630665742000,11.1087421875,9.26291561126709,1.8475581407546997,0.26919254660606384
1772905630675562000,11.11856201171875,9.327521324157715,1.826022744178772,0.26201409101486206
1772905630685525200,11.128525146484375,9.339486122131348,1.8116658926010132,0.2763710021972656
1772905630695488800,11.13848876953125,9.327521324157715,1.802094578742981,0.31465616822242737
1772905630705668900,11.1486689453125,9.294022560119629,1.794916033744812,0.3696911036968231
1772905630715762700,11.1587626953125,9.217452049255371,1.7925232648849487,0.4295116662979126
1772905630725731300,11.1687314453125,9.083454132080078,1.794916033744812,0.4821537733078003
1772905630735724500,11.178724609375,8.934800148010254,1.7901304960250854,0.534795880317688
1772905630745544700,11.188544677734376,8.834300994873047,1.7733806371688843,0.5826523303985596
1772905630755382500,11.198382568359374,8.805587768554688,1.7374883890151978,0.6161518096923828
1772905630765562600,11.208562744140625,8.824729919433594,1.6920247077941895,0.6209374666213989
1772905630775571500,11.218571533203125,8.863015174865723,1.6462619304656982,0.5874379873275757
1772905630785550600,11.228550537109374,8.910871505737305,1.6031911373138428,0.5395814776420593
1772905630795537700,11.23853759765625,8.961420059204102,1.5625132322311401,0.5108676552772522
1772905630805528300,11.2485283203125,8.968598365783691,1.5314065217971802,0.503689169883728
1772905630815515600,11.258515625,8.891729354858398,1.5098711252212524,0.4941178858280182
1772905630825335600,11.26833544921875,8.745766639709473,1.490728497505188,0.46779683232307434
1772905630835205000,11.278205078125,8.606983184814453,1.4739787578582764,0.43190449476242065
1772905630845243400,11.288243408203124,8.544769287109375,1.4476577043533325,0.4055834412574768
1772905630855212500,11.298212646484375,8.575876235961914,1.404586911201477,0.40319061279296875
1772905630865246700,11.308246826171874,8.654839515686035,1.3495519161224365,0.42711883783340454
1772905630875222500,11.318222412109375,8.700303077697754,1.2969099283218384,0.4462614357471466
1772905630885243000,11.328242919921875,8.664410591125488,1.246660590171814,0.4223332107067108
1772905630895223300,11.338223388671874,8.568697929382324,1.2011969089508057,0.3529413342475891
1772905630905244400,11.348244384765625,8.470592498779297,1.155434250831604,0.2593221664428711
1772905630915229200,11.358229248046875,8.415258407592773,1.1123634576797485,0.1779661774635315
1772905630925248300,11.368248291015625,8.4200439453125,1.0788638591766357,0.11814561486244202
1772905630935236400,11.378236328125,8.468199729919434,1.0501500368118286,0.08225327730178833
1772905630945056300,11.38805615234375,8.530412673950195,1.0310074090957642,0.07028916478157043
1772905630954918700,11.397918701171875,8.58066177368164,1.0238289833068848,0.06789634376764297
1772905630964947200,11.407947265625,8.630910873413086,1.0166505575180054,0.06071787327528
1772905630974915300,11.417915283203126,8.707481384277344,0.999900758266449,0.05353940650820732
1772905630985095400,11.428095458984375,8.80798053741455,0.9855438470840454,0.05593222752213478
1772905630995266600,11.4382666015625,8.922835350036621,0.968794047832489,0.08225327730178833
1772905631005269800,11.448269775390624,9.026025772094727,0.9544371366500854,0.1372881978750229
1772905631015241700,11.45824169921875,9.083454132080078,0.9472586512565613,0.20428723096847534
1772905631025243000,11.468242919921876,9.081061363220215,0.9448658227920532,0.26919254660606384
1772905631035244000,11.478244140625,9.018847465515137,0.9424729943275452,0.3242274820804596
1772905631045064200,11.488064208984374,8.889336585998535,0.9305089116096497,0.37926238775253296
1772905631054884000,11.497884033203125,8.796015739440918,0.913759171962738,0.43908295035362244
1772905631065064200,11.508064208984376,8.83669376373291,0.913759171962738,0.486939400434494
1772905631075239000,11.518239013671876,8.978169441223145,0.9257232546806335,0.5156532526016235
1772905631085239800,11.52823974609375,9.14566707611084,0.9305089116096497,0.5252245664596558
1772905631095042800,11.538042724609374,9.282057762145996,0.9400802254676819,0.486939400434494
1772905631105030100,11.548030029296875,9.406484603881836,0.9376873970031738,0.4223332107067108
1772905631115017500,11.558017578125,9.504889488220215,0.9209375977516174,0.35533416271209717
1772905631124837400,11.56783740234375,9.552745819091797,0.8898309469223022,0.28594231605529785
1772905631134755800,11.577755859375,9.567103385925293,0.8539385795593262,0.20428723096847534
1772905631144768800,11.587768798828124,9.569496154785156,0.8156534433364868,0.1372881978750229
1772905631154743600,11.59774365234375,9.602995872497559,0.7821539044380188,0.10618150234222412
1772905631164563700,11.607563720703125,9.698708534240723,0.7701897621154785,0.10618150234222412
1772905631174426600,11.617426513671875,9.839884757995605,0.7725825905799866,0.12293126434087753
1772905631184475400,11.627475341796876,9.966704368591309,0.7654041647911072,0.15164513885974884
1772905631194435800,11.637435791015625,10.031609535217285,0.7510471940040588,0.18035900592803955
1772905631204398600,11.647398681640626,10.057930946350098,0.7319046258926392,0.19950158894062042
1772905631214359300,11.657359375,10.079465866088867,0.7031907439231873,0.21625134348869324
1772905631224331500,11.66733154296875,10.09860897064209,0.6553342938423157,0.2306082844734192
1772905631234293200,11.677293212890625,10.110572814941406,0.5904290080070496,0.247358039021492
1772905631244297500,11.68729736328125,10.139286994934082,0.5138586759567261,0.2763710021972656
1772905631254263800,11.697263916015626,10.196714401245117,0.43968117237091064,0.3361915946006775
1772905631264253200,11.707253173828125,10.20628547668457,0.3798605799674988,0.4534398913383484
1772905631274221800,11.717221923828125,10.141679763793945,0.32961133122444153,0.6089733839035034
1772905631284182300,11.727182373046874,10.079465866088867,0.2267199456691742,0.8030911087989807
1772905631294150100,11.737150146484375,10.093823432922363,0.20997019112110138,0.8988040089607239
1772905631304105700,11.747105712890624,10.170393943786621,0.32961133122444153,0.8485547304153442
1772905631314072300,11.757072265625,10.23739242553711,0.3774677813053131,0.7692924737930298
1772905631324066600,11.767066650390625,10.239785194396973,0.3248256742954254,0.6855437159538269
1772905631334036000,11.777035888671875,10.187143325805664,0.24107688665390015,0.5874379873275757
1772905631344025900,11.78702587890625,10.089037895202637,0.15493527054786682,0.486939400434494
1772905631353997300,11.796997314453124,9.969097137451172,0.09002995491027832,0.40319061279296875
1772905631363986200,11.806986083984375,9.847063064575195,0.06610172241926193,0.3768695592880249
1772905631373959400,11.81695947265625,9.698708534240723,0.07567301392555237,0.4247260093688965
1772905631383954700,11.82695458984375,9.507282257080078,0.0972084179520607,0.503689169883728
1772905631393930200,11.83693017578125,9.286844253540039,0.11635100096464157,0.5659025311470032
1772905631403902200,11.846902099609375,9.100203514099121,0.04695914313197136,0.6376872062683105
1772905631413877500,11.85687744140625,9.052347183227539,-0.020039889961481094,0.656829833984375
1772905631423887000,11.86688720703125,9.212666511535645,0.0852443054318428,0.5611169338226318
1772905631433865700,11.87686572265625,9.528818130493164,0.17647066712379456,0.49172505736351013
1772905631443835400,11.88683544921875,9.801599502563477,0.15493527054786682,0.5156532526016235
1772905631453813000,11.89681298828125,9.90688419342041,0.11635100096464157,0.5611169338226318
1772905631463774500,11.9067744140625,9.851848602294922,0.08045866340398788,0.5850451588630676
1772905631473750500,11.91675048828125,9.717850685119629,0.04935196787118912,0.589830756187439
1772905631483712300,11.926712158203125,9.598209381103516,0.032602209597826004,0.5850451588630676
1772905631493687000,11.93668701171875,9.543174743652344,0.025423740968108177,0.5730810165405273
1772905631503667200,11.946667236328125,9.504889488220215,0.03738785535097122,0.5276173949241638
1772905631513642500,11.956642578125,9.411270141601562,0.05174478888511658,0.44386860728263855
1772905631523636000,11.966635986328125,9.246166229248047,0.011066804639995098,0.3577269911766052
1772905631533613000,11.976613037109376,9.052347183227539,-0.10378868132829666,0.3002992272377014
1772905631543628000,11.9866279296875,8.944371223449707,-0.08464609831571579,0.20189441740512848
1772905631553609000,11.99660888671875,9.023633003234863,0.09242277592420578,0.12053844332695007
1772905631563581400,12.00658154296875,9.219844818115234,0.25782662630081177,0.15164513885974884
1772905631573561600,12.0165615234375,9.384949684143066,0.3032902777194977,0.2787638306617737
1772905631583565000,12.02656494140625,9.471091270446777,0.28175488114356995,0.3696911036968231
1772905631593547800,12.0365478515625,9.514460563659668,0.30568310618400574,0.30987054109573364
1772905631603474000,12.046473876953126,9.562317848205566,0.372682124376297,0.13250255584716797
1772905631613450800,12.05645068359375,9.638887405395508,0.4085744619369507,-0.03978067636489868
1772905631623460000,12.066460205078124,9.710672378540039,0.41096729040145874,-0.1666002720594406
1772905631633440300,12.076440185546875,9.70349407196045,0.4253242313861847,-0.26979073882102966
1772905631643404000,12.086404052734375,9.591031074523926,0.4660021960735321,-0.3655036687850952
1772905631653382400,12.09638232421875,9.437591552734375,0.5258227586746216,-0.45164528489112854
1772905631663367000,12.106366943359374,9.327521324157715,0.6023930907249451,-0.5066801905632019
1772905631673346000,12.116345947265625,9.291629791259766,0.6792625188827515,-0.5258227586746216
1772905631683321000,12.126321044921875,9.315557479858398,0.7438687682151794,-0.5258227586746216
1772905631693299700,12.1362998046875,9.37059211730957,0.7941179871559143,-0.5066801905632019
1772905631703322400,12.146322265625,9.392127990722656,0.844367265701294,-0.47557350993156433
1772905631713305600,12.1563056640625,9.334700584411621,0.8994022011756897,-0.4468596279621124
1772905631723224300,12.166224365234376,9.222237586975098,0.9496514797210693,-0.4492524564266205
1772905631733201000,12.176200927734374,9.1145601272583,0.999900758266449,-0.5066801905632019
1772905631743196700,12.18619677734375,9.03799057006836,1.0477572679519653,-0.6143572330474854
1772905631753175000,12.196175048828126,8.99970531463623,1.1027921438217163,-0.7411768436431885
1772905631763139000,12.20613916015625,8.99252700805664,1.1530413627624512,-0.846760094165802
1772905631773116200,12.2161162109375,9.030811309814453,1.1820544004440308,-0.8874381184577942
1772905631783128300,12.22612841796875,9.12413215637207,1.191625714302063,-0.8539385795593262
1772905631793109000,12.23610888671875,9.234201431274414,1.1772687435150146,-0.7483552694320679
1772905631803068200,12.246068115234374,9.310771942138672,1.155434250831604,-0.6143572330474854
1772905631813046500,12.256046630859375,9.303593635559082,1.1386845111846924,-0.5306084156036377
1772905631823053300,12.26605322265625,9.205488204956055,1.1267203092575073,-0.542572557926178
1772905631833034800,12.27603466796875,9.061918258666992,1.1219347715377808,-0.6478567123413086
1772905631843007200,12.28600732421875,8.93958568572998,1.1291131973266602,-0.7821539044380188
1772905631852987600,12.295987548828125,8.882157325744629,1.1482558250427246,-0.8874381184577942
1772905631862959600,12.305959716796876,8.874979019165039,1.1820544004440308,-0.9305089116096497
1772905631872939300,12.315939208984375,8.858229637145996,1.222732424736023,-0.9017950296401978
1772905631882910000,12.325909912109376,8.772088050842285,1.2729816436767578,-0.8276175260543823
1772905631892888800,12.335888916015625,8.614161491394043,1.3184453248977661,-0.7148557901382446
1772905631902863000,12.345863037109375,8.444271087646484,1.3710874319076538,-0.5712863802909851
1772905631912841200,12.35584130859375,8.312366485595703,1.4213366508483887,-0.4181457459926605
1772905631922826200,12.365826171875,8.233403205871582,1.4715858697891235,-0.3032902777194977
1772905631932805000,12.37580517578125,8.197511672973633,1.5194423198699951,-0.25274190306663513
1772905631942779600,12.385779541015625,8.216653823852539,1.5553346872329712,-0.28893333673477173
1772905631952758000,12.395758056640625,8.286046028137207,1.5912270545959473,-0.39421752095222473
1772905631962748400,12.40574853515625,8.39611530303955,1.6223337650299072,-0.5186443328857422
1772905631972728000,12.41572802734375,8.549555778503418,1.643869161605835,-0.6119644045829773
1772905631982705700,12.42570556640625,8.738588333129883,1.6510475873947144,-0.6550351977348328
1772905631992685000,12.43568505859375,8.898907661437988,1.6414763927459717,-0.6598208546638489
1772905632002662100,12.445662109375,8.959027290344238,1.6342978477478027,-0.6813562512397766
1772905632012641300,12.455641357421875,8.906085968017578,1.6151553392410278,-0.7435696125030518
1772905632022609200,12.465609130859375,8.803194046020508,1.5936198234558105,-0.8491529226303101
1772905632032587000,12.4755869140625,8.764909744262695,1.5984054803848267,-0.9735797047615051
1772905632042560800,12.485560791015626,8.858229637145996,1.5984054803848267,-1.0453643798828125
1772905632052538400,12.495538330078125,9.016454696655273,1.6079767942428589,-1.0549356937408447
1772905632062518800,12.505518798828126,9.121739387512207,1.6175481081008911,-1.0286146402359009
1772905632072496600,12.51549658203125,9.078668594360352,1.612762451171875,-0.9975079298019409
1772905632082484200,12.525484130859375,8.870193481445312,1.6223337650299072,-1.0214362144470215
1772905632092463000,12.535463134765624,8.616554260253906,1.6319050788879395,-1.1123634576797485
1772905632102439400,12.545439453125,8.4562349319458,1.6175481081008911,-1.2367901802062988
1772905632112418000,12.55541796875,8.458627700805664,1.576870083808899,-1.3519448041915894
1772905632122386200,12.56538623046875,8.621339797973633,1.5122638940811157,-1.4189438819885254
1772905632132363800,12.57536376953125,8.865407943725586,1.4428720474243164,-1.459621787071228
1772905632142333700,12.585333740234375,9.085846900939941,1.3806586265563965,-1.5194423198699951
1772905632152310300,12.595310302734376,9.169595718383789,1.34476637840271,-1.6558332443237305
1772905632162285300,12.605285400390626,9.059525489807129,1.3567304611206055,-1.8690935373306274
1772905632172262000,12.615261962890624,8.803194046020508,1.4069796800613403,-2.105983018875122
1772905632182233900,12.62523388671875,8.504091262817383,1.490728497505188,-2.287837505340576
1772905632192210000,12.6352099609375,8.252546310424805,1.5792629718780518,-2.3503501415252686
1772905632202201300,12.645201416015626,8.080263137817383,1.6510475873947144,-2.2902302742004395
1772905632212179000,12.655178955078124,7.9845499992370605,1.6821542978286743,-2.1729819774627686
1772905632222162400,12.665162353515624,7.941479206085205,1.674975872039795,-2.082054853439331
1772905632232140800,12.675140869140625,7.95344352722168,1.6319050788879395,-2.067697763442993
1772905632242135300,12.68513525390625,8.044370651245117,1.5720844268798828,-2.12751841545105
1772905632252115200,12.695115234375,8.216653823852539,1.5146567821502686,-2.2280170917510986
1772905632262295000,12.705294921875,8.449056625366211,1.4763715267181396,-2.3380868434906006
1772905632272375600,12.71537548828125,8.700303077697754,1.4572290182113647,-2.4197418689727783
1772905632282195700,12.72519580078125,8.918049812316895,1.4572290182113647,-2.4532413482666016
1772905632292004400,12.73500439453125,9.078668594360352,1.466800332069397,-2.4460630416870117
1772905632301999600,12.74499951171875,9.169595718383789,1.4691931009292603,-2.424527645111084
1772905632311974700,12.754974609375,9.207880973815918,1.4476577043533325,-2.3910279273986816
1772905632321945900,12.76494580078125,9.212666511535645,1.4117653369903564,-2.3356940746307373
1772905632331920400,12.77492041015625,9.183952331542969,1.3782658576965332,-2.2447667121887207
1772905632341906700,12.78490673828125,9.090632438659668,1.3615161180496216,-2.1418752670288086
1772905632351882500,12.794882568359375,8.922835350036621,1.3639088869094849,-2.082054853439331
1772905632361864400,12.804864501953125,8.69791030883789,1.3806586265563965,-2.120339870452881
1772905632371841000,12.814841064453125,8.451449394226074,1.399801254272461,-2.261516571044922
1772905632381825000,12.824824951171875,8.276473999023438,1.4117653369903564,-2.465205430984497
1772905632391802400,12.83480224609375,8.250153541564941,1.4093725681304932,-2.68534517288208
1772905632401796600,12.844796630859374,8.336295127868652,1.3878371715545654,-2.903391122817993
1772905632411775700,12.854775634765625,8.4562349319458,1.3591232299804688,-3.090031385421753
1772905632421752300,12.86475244140625,8.537590980529785,1.34476637840271,-3.209672451019287
1772905632431731000,12.87473095703125,8.520841598510742,1.3567304611206055,-3.2192437648773193
1772905632441718500,12.884718505859375,8.400900840759277,1.3926228284835815,-3.1091740131378174
1772905632451698200,12.8946982421875,8.214261054992676,1.4452649354934692,-2.917748212814331
1772905632461698600,12.904698486328124,8.018049240112305,1.5074782371520996,-2.7379872798919678
1772905632471680300,12.91468017578125,7.8526458740234375,1.5625132322311401,-2.6494529247283936
1772905632481651000,12.92465087890625,7.76889705657959,1.5984054803848267,-2.682952404022217
1772905632491631600,12.934631591796874,7.8287177085876465,1.6055840253829956,-2.7906293869018555
1772905632501608700,12.944608642578125,8.082655906677246,1.5840486288070679,-2.893819808959961
1772905632511588900,12.9545888671875,8.482556343078613,1.5409778356552124,-2.9512476921081543
1772905632521551000,12.964551025390625,8.901300430297852,1.4787644147872925,-2.9703903198242188
1772905632531529500,12.974529541015626,9.250951766967773,1.404586911201477,-2.9919257164001465
1772905632541542100,12.984542236328124,9.492925643920898,1.3304094076156616,-3.034996509552002
1772905632551524000,12.994524169921876,9.65085220336914,1.2634103298187256,-3.106781005859375
1772905632561480000,13.00447998046875,9.78245735168457,1.2059825658798218,-3.1642088890075684
1772905632571459300,13.014459228515625,9.930811882019043,1.1602199077606201,-3.1953155994415283
1772905632581460700,13.024460693359375,10.09860897064209,1.1434701681137085,-3.224029302597046
1772905632591442400,13.0344423828125,10.218250274658203,1.1578270196914673,-3.271885871887207
1772905632601409000,13.044408935546874,10.208678245544434,1.215553879737854,-3.3245279788970947
1772905632611389200,13.05438916015625,10.050752639770508,1.332802176475525,-3.341277837753296
1772905632621351000,13.064350830078125,9.794421195983887,1.5002998113632202,-3.279064416885376
1772905632631329000,13.0743291015625,9.519247055053711,1.6845471858978271,-3.1115667819976807
