time,seconds_elapsed,z,y,x
1772905619891554800,0.334554931640625,-0.006717681884765625,-0.0008622407913208008,-0.0006764531135559082
1772905619901554700,0.3445546875,-0.006741523742675781,-0.0009287595748901367,-0.0005497336387634277
1772905619911554800,0.354554931640625,-0.006695747375488281,-0.0010750293731689453,-0.0003872513771057129
1772905619921554700,0.3645546875,-0.006598472595214844,-0.0012276172637939453,-0.0002491772174835205
1772905619931554800,0.374554931640625,-0.006539344787597656,-0.0013462305068969727,-0.00021505355834960938
1772905619941554700,0.3845546875,-0.0065212249755859375,-0.0014162063598632812,-0.000314176082611084
1772905619951554800,0.394554931640625,-0.00644683837890625,-0.0014503002166748047,-0.0004798769950866699
1772905619961554700,0.4045546875,-0.006262779235839844,-0.0014696121215820312,-0.0006147027015686035
1772905619971554800,0.414554931640625,-0.0060024261474609375,-0.0014874935150146484,-0.0006569027900695801
1772905619981554700,0.4245546875,-0.0057506561279296875,-0.0014891624450683594,-0.000575721263885498
1772905619991554800,0.434554931640625,-0.005585670471191406,-0.0014371871948242188,-0.00041812658309936523
1772905620001554700,0.4445546875,-0.0055751800537109375,-0.0013186931610107422,-0.00026217103004455566
1772905620011554800,0.454554931640625,-0.0057468414306640625,-0.001198410987854004,-0.0001338273286819458
1772905620021554700,0.4645546875,-0.006009101867675781,-0.001139998435974121,-0.00007697194814682007
1772905620031554800,0.474554931640625,0.005763053894042969,-0.039432525634765625,0.27997782826423645
1772905620041554700,0.4845546875,-0.23845291137695312,-0.11602091789245605,0.32288333773612976
1772905620051554800,0.494554931640625,-0.24068927764892578,-0.13270235061645508,0.20295393466949463
1772905620061554700,0.5045546875,-0.05138874053955078,-0.0799405574798584,-0.060546040534973145
1772905620071554800,0.514554931640625,0.15214920043945312,-0.04397404193878174,-0.3047138452529907
1772905620081554700,0.5245546875,0.2813291549682617,-0.05112731456756592,-0.364362508058548
1772905620091554800,0.534554931640625,0.2404327392578125,-0.02715122699737549,-0.29947221279144287
1772905620101554700,0.5445546875,0.07745933532714844,0.035115838050842285,-0.21786631643772125
1772905620111554800,0.554554931640625,-0.0830087661743164,0.05424511432647705,-0.12434469163417816
1772905620121554700,0.5645546875,-0.14760112762451172,0.003929615020751953,-0.002155989408493042
1772905620131554800,0.574554931640625,-0.04670906066894531,-0.07309567928314209,0.07482901215553284
1772905620141554700,0.5845546875,0.16387939453125,-0.17333996295928955,0.15113867819309235
1772905620151554800,0.594554931640625,0.5803136825561523,-0.2499558925628662,0.22509221732616425
1772905620161554700,0.6045546875,1.037449836730957,-0.28796201944351196,0.3181546628475189
1772905620171554800,0.614554931640625,1.379664421081543,-0.32148438692092896,0.48095881938934326
1772905620181554700,0.6245546875,1.6813383102416992,-0.3594852685928345,0.7009258270263672
1772905620191554800,0.634554931640625,2.0374183654785156,-0.35999226570129395,0.8843772411346436
1772905620201554700,0.6445546875,0.6318607330322266,-0.015937626361846924,0.3237994611263275
1772905620211554800,0.654554931640625,0.5217275619506836,-0.12367916107177734,0.34025126695632935
1772905620221554700,0.6645546875,0.0020275115966796875,-0.37506985664367676,0.25614893436431885
1772905620231554800,0.674554931640625,0.9979686737060547,-1.018369197845459,0.7912976145744324
1772905620241554700,0.6845546875,0.4679708480834961,-1.1882315874099731,0.5879182815551758
1772905620251554800,0.694554931640625,0.044445037841796875,-1.1926945447921753,0.30268627405166626
1772905620261554700,0.7045546875,-0.16922855377197266,-1.1657154560089111,0.04098133742809296
1772905620271554800,0.714554931640625,-0.17696762084960938,-1.042519211769104,-0.11797323822975159
1772905620281554700,0.7245546875,-0.2433910369873047,-0.6577580571174622,-0.16898082196712494
1772905620291554800,0.734554931640625,-0.6472187042236328,-0.23633742332458496,0.029820382595062256
1772905620301554700,0.7445546875,-1.3554754257202148,-0.10132312774658203,0.4431881308555603
1772905620311554800,0.754554931640625,-2.1527280807495117,-0.20463597774505615,0.6694908142089844
1772905620321554700,0.7645546875,-2.904721260070801,-0.27303630113601685,0.37164944410324097
1772905620331554800,0.774554931640625,-3.54111909866333,-0.19602274894714355,-0.37796300649642944
1772905620341554700,0.7845546875,-3.951326847076416,-0.04506564140319824,-1.2554168701171875
1772905620351554800,0.794554931640625,-4.096868991851807,0.1370323896408081,-1.8959159851074219
1772905620361554700,0.8045546875,-4.02101469039917,0.34573376178741455,-2.0665555000305176
1772905620371554800,0.814554931640625,-3.6930713653564453,0.5333263874053955,-1.686016321182251
1772905620381554700,0.8245546875,-3.221341609954834,0.584868311882019,-0.9221018552780151
1772905620391554800,0.834554931640625,-2.7334136962890625,0.4953728914260864,-0.2803020477294922
1772905620401554700,0.8445546875,-2.1871867179870605,0.3627462387084961,-0.03146185725927353
1772905620411554800,0.854554931640625,-1.5672874450683594,0.2513319253921509,-0.04885939881205559
1772905620421554700,0.8645546875,-0.9360809326171875,0.22768795490264893,-0.18412713706493378
1772905620431554800,0.874554931640625,-0.4189414978027344,0.2815098762512207,-0.3464372456073761
1772905620441554700,0.8845546875,-0.002231597900390625,0.35221242904663086,-0.4404219686985016
1772905620451554800,0.894554931640625,0.44249629974365234,0.4496470093727112,-0.36838436126708984
1772905620461554700,0.9045546875,1.0100517272949219,0.6641986966133118,-0.11339125037193298
1772905620471554800,0.914554931640625,1.5892086029052734,1.0359327793121338,0.2533222734928131
1772905620481554700,0.9245546875,2.0542430877685547,1.549849033355713,0.665006160736084
1772905620491554800,0.934554931640625,2.250528335571289,2.099916934967041,1.0595508813858032
1772905620501554700,0.9445546875,1.9034147262573242,2.460205554962158,1.3821444511413574
1772905620511554800,0.954554931640625,0.8623180389404297,2.4572629928588867,1.5685758590698242
1772905620521554700,0.9645546875,-0.5895586013793945,2.0948832035064697,1.5857912302017212
1772905620531554800,0.974554931640625,-1.7864437103271484,1.5425069332122803,1.4724072217941284
1772905620541554700,0.9845546875,-2.134549617767334,1.1136009693145752,1.2356517314910889
1772905620551554800,0.994554931640625,-1.4927558898925781,1.0490642786026,0.9469020366668701
1772905620561554700,1.0045546875,-0.1056985855102539,1.2770898342132568,0.7277214527130127
1772905620571554800,1.014554931640625,1.579920768737793,1.500955581665039,0.6393320560455322
1772905620581554700,1.0245546875,2.9415998458862305,1.421903371810913,0.7024961709976196
1772905620591554800,1.034554931640625,3.4619321823120117,0.9404644966125488,0.8374384641647339
1772905620601554700,1.0445546875,3.069124221801758,0.16618382930755615,0.9091634750366211
1772905620611554800,1.054554931640625,2.07022762298584,-0.690131664276123,0.8400952219963074
1772905620621554700,1.0645546875,0.9140663146972656,-1.4173262119293213,0.5864624977111816
1772905620631554800,1.074554931640625,0.047430992126464844,-1.7973716259002686,0.08353394269943237
1772905620641554700,1.0845546875,-0.32671165466308594,-1.8260326385498047,-0.653829038143158
1772905620651554800,1.094554931640625,-0.3853483200073242,-1.753389835357666,-1.4571490287780762
1772905620661554700,1.1045546875,-0.4718647003173828,-1.7606103420257568,-2.1200482845306396
1772905620671554800,1.114554931640625,-0.6832551956176758,-1.8858293294906616,-2.483142852783203
1772905620681554700,1.1245546875,-0.8364744186401367,-2.0596232414245605,-2.544682025909424
1772905620691554800,1.134554931640625,-0.8118114471435547,-2.2033374309539795,-2.458066940307617
1772905620701554700,1.1445546875,-0.6783285140991211,-2.2842774391174316,-2.4397904872894287
1772905620711554800,1.154554931640625,-0.5460147857666016,-2.294203996658325,-2.6042449474334717
1772905620721554700,1.1645546875,-0.5367145538330078,-2.2252278327941895,-2.8410866260528564
1772905620731554800,1.174554931640625,-0.7830915451049805,-2.1149327754974365,-2.920693874359131
1772905620741554700,1.1845546875,-1.3796682357788086,-2.0125648975372314,-2.7574164867401123
1772905620751554800,1.194554931640625,-2.263401985168457,-1.9331459999084473,-2.445275068283081
1772905620761554700,1.2045546875,-3.168531894683838,-1.895308494567871,-2.087940216064453
1772905620771554800,1.214554931640625,-3.679551124572754,-1.9552719593048096,-1.7438039779663086
1772905620781554700,1.2245546875,-3.449159622192383,-2.087838888168335,-1.4500311613082886
1772905620791554800,1.234554931640625,-2.5906152725219727,-2.205720901489258,-1.2788740396499634
1772905620801554700,1.2445546875,-1.5982122421264648,-2.185978412628174,-1.2625057697296143
1772905620811554800,1.254554931640625,-1.0003061294555664,-2.008866548538208,-1.3270227909088135
1772905620821554700,1.2645546875,-1.0566692352294922,-1.7648770809173584,-1.3675600290298462
1772905620831554800,1.274554931640625,-1.6576013565063477,-1.5204572677612305,-1.368119239807129
1772905620841554700,1.2845546875,-2.348964214324951,-1.2820074558258057,-1.4159927368164062
1772905620851554800,1.294554931640625,-2.509396553039551,-1.056251883506775,-1.6203917264938354
1772905620861554700,1.3045546875,-1.7000370025634766,-0.8219929933547974,-1.9424357414245605
1772905620871554800,1.314554931640625,-0.026106834411621094,-0.5751622915267944,-2.168729543685913
1772905620881554700,1.3245546875,1.7554798126220703,-0.3501911163330078,-2.110015392303467
1772905620891554800,1.334554931640625,2.868393898010254,-0.12152755260467529,-1.7986472845077515
1772905620901554700,1.3445546875,3.0319032669067383,0.19890141487121582,-1.4117072820663452
1772905620911554800,1.354554931640625,2.5432024002075195,0.6394667625427246,-1.0618714094161987
1772905620921554700,1.3645546875,1.9195404052734375,1.0823249816894531,-0.6368083357810974
1772905620931554800,1.374554931640625,1.552018165588379,1.3779691457748413,0.06456002593040466
1772905620941554700,1.3845546875,1.5472135543823242,1.5102962255477905,0.9994547963142395
1772905620951554800,1.394554931640625,1.688629150390625,1.5465478897094727,1.8933742046356201
1772905620961554700,1.4045546875,1.6640205383300781,1.5255532264709473,2.4963207244873047
1772905620971554800,1.414554931640625,1.2643537521362305,1.4520267248153687,2.747828960418701
1772905620981554700,1.4245546875,0.49820518493652344,1.2989277839660645,2.8054513931274414
1772905620991554800,1.434554931640625,-0.3644828796386719,1.010738492012024,3.0346758365631104
1772905621001554700,1.4445546875,-0.8116703033447266,0.6470470428466797,3.569397449493408
1772905621011554800,1.454554931640625,-0.6051883697509766,0.41391056776046753,3.8602757453918457
1772905621021554700,1.4645546875,0.28837013244628906,0.3933079242706299,3.174518346786499
1772905621031554800,1.474554931640625,1.6069726943969727,0.5168293118476868,1.391077995300293
1772905621041554700,1.4845546875,2.6262712478637695,0.5034466981887817,-0.3171851634979248
1772905621051554800,1.494554931640625,3.0388612747192383,0.26410001516342163,-1.1432441473007202
1772905621061554700,1.5045546875,2.9713191986083984,-0.06769311428070068,-1.1084997653961182
1772905621071554800,1.514554931640625,2.571965217590332,-0.3575035333633423,-0.5147660970687866
1772905621081554700,1.5245546875,1.874669075012207,-0.5275619029998779,0.12039697170257568
1772905621091554800,1.534554931640625,0.9729042053222656,-0.6033667325973511,0.4353647530078888
1772905621101554700,1.5445546875,0.04408836364746094,-0.6370800733566284,0.4582176208496094
1772905621111554800,1.554554931640625,-0.6393308639526367,-0.6740595102310181,0.4118545353412628
1772905621121554700,1.5645546875,-0.9176568984985352,-0.7070430517196655,0.3934069871902466
1772905621131554800,1.574554931640625,-0.8090400695800781,-0.7214192748069763,0.3926643133163452
1772905621141554700,1.5845546875,-0.4771556854248047,-0.7791578769683838,0.41920775175094604
1772905621151554800,1.594554931640625,-0.17737388610839844,-0.9215579032897949,0.4435574412345886
1772905621161554700,1.6045546875,-0.07958793640136719,-1.09187650680542,0.4051401615142822
1772905621171554800,1.614554931640625,-0.2041492462158203,-1.2382429838180542,0.3398851752281189
1772905621181554700,1.6245546875,-0.49498844146728516,-1.299201488494873,0.24642086029052734
1772905621191554800,1.634554931640625,-0.8408670425415039,-1.2610859870910645,0.08109760284423828
1772905621201554700,1.6445546875,-1.0974454879760742,-1.1891064643859863,-0.10584332793951035
1772905621211554800,1.654554931640625,-1.1501283645629883,-1.1364555358886719,-0.22296813130378723
1772905621221554700,1.6645546875,-1.0269088745117188,-1.1013541221618652,-0.259535014629364
1772905621231554800,1.674554931640625,-0.8310947418212891,-1.0844700336456299,-0.27460938692092896
1772905621241554700,1.6845546875,-0.6639308929443359,-1.107008457183838,-0.29584354162216187
1772905621251554800,1.694554931640625,-0.5901784896850586,-1.1582027673721313,-0.3459705412387848
1772905621261554700,1.7045546875,-0.6081829071044922,-1.1914174556732178,-0.43356895446777344
1772905621271554800,1.714554931640625,-0.656886100769043,-1.1696887016296387,-0.5151148438453674
1772905621291554800,1.734554931640625,-0.8419218063354492,-0.9913921356201172,-0.5060655474662781
1772905621301554700,1.7445546875,-1.0549230575561523,-0.8789104223251343,-0.4798547625541687
1772905621311554800,1.754554931640625,-1.3355674743652344,-0.7494089603424072,-0.5113966464996338
1772905621321554700,1.7645546875,-1.630234718322754,-0.5882579684257507,-0.6010165810585022
1772905621331554800,1.774554931640625,-1.8283605575561523,-0.4434202313423157,-0.6873602867126465
1772905621341554700,1.7845546875,-1.8141775131225586,-0.36185306310653687,-0.668024480342865
1772905621351554800,1.794554931640625,-1.5645360946655273,-0.3117276430130005,-0.4864831566810608
1772905621361554700,1.8045546875,-1.1620235443115234,-0.24687504768371582,-0.17096857726573944
1772905621371554800,1.814554931640625,-0.7276449203491211,-0.13303732872009277,0.19656242430210114
1772905621381554700,1.8245546875,-0.4422473907470703,-0.007702767848968506,0.5190770626068115
1772905621391554800,1.834554931640625,-0.4241476058959961,0.09651046991348267,0.6995622515678406
1772905621401554700,1.8445546875,-0.6398916244506836,0.1782171130180359,0.7306177616119385
1772905621411554800,1.854554931640625,-0.949254035949707,0.2817038297653198,0.6484370827674866
1772905621421554700,1.8645546875,-1.2370414733886719,0.42235851287841797,0.5090994834899902
1772905621431554800,1.874554931640625,-1.3636722564697266,0.524502694606781,0.3822876513004303
1772905621441554700,1.8845546875,-1.1807928085327148,0.5498784184455872,0.3185257315635681
1772905621451554800,1.894554931640625,-0.6898555755615234,0.5107290148735046,0.3424019515514374
1772905621461554700,1.9045546875,-0.09005260467529297,0.45053133368492126,0.4388234615325928
1772905621471554800,1.914554931640625,0.3491783142089844,0.3936867415904999,0.5531209111213684
1772905621481554700,1.9245546875,0.48270225524902344,0.36468517780303955,0.6170294284820557
1772905621491554800,1.934554931640625,0.34256935119628906,0.3593851625919342,0.5982015132904053
1772905621501554700,1.9445546875,0.08048057556152344,0.35218918323516846,0.5159325003623962
1772905621511554800,1.954554931640625,-0.1400146484375,0.324749231338501,0.42968496680259705
1772905621521554700,1.9645546875,-0.22483158111572266,0.2687494158744812,0.3872092366218567
1772905621531554800,1.974554931640625,-0.1682109832763672,0.1858174204826355,0.37899839878082275
1772905621541554700,1.9845546875,-0.03090953826904297,0.09082549810409546,0.3453851342201233
1772905621551554800,1.994554931640625,0.10782146453857422,0.0034114718437194824,0.24589861929416656
1772905621561554700,2.0045546875,0.21728038787841797,-0.06638360023498535,0.10470142960548401
1772905621571554800,2.014554931640625,0.3197927474975586,-0.11572831869125366,-0.006193727254867554
1772905621581554700,2.0245546875,0.4187774658203125,-0.13703179359436035,-0.0507071316242218
1772905621591554800,2.034554931640625,0.49055004119873047,-0.15385079383850098,-0.05017895996570587
1772905621601554700,2.0445546875,0.46849727630615234,-0.17779874801635742,-0.04499314725399017
1772905621611554800,2.054554931640625,0.36019134521484375,-0.20139968395233154,-0.04663853347301483
1772905621621554700,2.0645546875,0.2521543502807617,-0.18864387273788452,-0.03294245898723602
1772905621631554800,2.074554931640625,0.2092447280883789,-0.12059319019317627,0.011108189821243286
1772905621641554700,2.0845546875,0.22917556762695312,-0.021432220935821533,0.07888087630271912
1772905621651554800,2.094554931640625,0.24020099639892578,0.08224624395370483,0.14682486653327942
1772905621661554700,2.1045546875,0.15866851806640625,0.1710120439529419,0.20318984985351562
1772905621671554800,2.114554931640625,-0.05818653106689453,0.2373911738395691,0.2527341842651367
1772905621681554700,2.1245546875,-0.37643909454345703,0.28587353229522705,0.29299479722976685
1772905621691554800,2.134554931640625,-0.6917963027954102,0.3281146287918091,0.31426119804382324
1772905621701554700,2.1445546875,-0.8689937591552734,0.3542003035545349,0.3115033507347107
1772905621711554800,2.154554931640625,-0.84027099609375,0.3566743731498718,0.2819567918777466
1772905621721554700,2.1645546875,-0.6126766204833984,0.33075541257858276,0.2634594440460205
1772905621731554800,2.174554931640625,-0.29389095306396484,0.2885732054710388,0.28903892636299133
1772905621741554700,2.1845546875,-0.008376121520996094,0.2517443895339966,0.3360544741153717
1772905621751554800,2.194554931640625,0.15529441833496094,0.2267627716064453,0.37037524580955505
1772905621761554700,2.2045546875,0.16115093231201172,0.20338881015777588,0.3677178919315338
1772905621771554800,2.214554931640625,0.028145790100097656,0.17433905601501465,0.31370314955711365
1772905621781554700,2.2245546875,-0.1603565216064453,0.13712924718856812,0.21558964252471924
1772905621791554800,2.234554931640625,-0.28293323516845703,0.08931350708007812,0.10220351815223694
1772905621801554700,2.2445546875,-0.2730846405029297,0.02610039710998535,0.03822106122970581
1772905621811554800,2.254554931640625,-0.1546945571899414,-0.031006276607513428,0.04033386707305908
1772905621821554700,2.2645546875,-0.01845073699951172,-0.07502853870391846,0.07728356122970581
1772905621831554800,2.274554931640625,0.05440330505371094,-0.10129380226135254,0.11063513159751892
1772905621841554700,2.2845546875,0.042438507080078125,-0.10984987020492554,0.1218160092830658
1772905621851554800,2.294554931640625,0.0008840560913085938,-0.09761375188827515,0.11586910486221313
1772905621861554700,2.3045546875,0.018530845642089844,-0.07828700542449951,0.11207684874534607
1772905621871554800,2.314554931640625,0.13621807098388672,-0.07567065954208374,0.12959575653076172
1772905621881554700,2.3245546875,0.3059835433959961,-0.1039344072341919,0.15396183729171753
1772905621891554800,2.334554931640625,0.4460773468017578,-0.14848846197128296,0.16352254152297974
1772905621901554700,2.3445546875,0.4910860061645508,-0.18756413459777832,0.15828782320022583
1772905621911554800,2.354554931640625,0.42565441131591797,-0.20419961214065552,0.179121732711792
1772905621921554700,2.3645546875,0.28037166595458984,-0.19834399223327637,0.24302828311920166
1772905621931554800,2.374554931640625,0.117340087890625,-0.17482846975326538,0.3238898515701294
1772905621941554700,2.3845546875,-0.02907085418701172,-0.13846248388290405,0.36199426651000977
1772905621951554800,2.394554931640625,-0.14539051055908203,-0.09403449296951294,0.3191191554069519
1772905621961554700,2.4045546875,-0.23914241790771484,-0.04872804880142212,0.19774657487869263
1772905621971554800,2.414554931640625,-0.3007974624633789,-0.007371366024017334,0.03155297040939331
1772905621981554700,2.4245546875,-0.3276090621948242,0.027535319328308105,-0.1289527714252472
1772905621991554800,2.434554931640625,-0.30209922790527344,0.060607969760894775,-0.23803424835205078
1772905622001554700,2.4445546875,-0.20902442932128906,0.08205193281173706,-0.26440829038619995
1772905622011554800,2.454554931640625,-0.08352851867675781,0.08218574523925781,-0.22492903470993042
1772905622021554700,2.4645546875,0.01980876922607422,0.0635332465171814,-0.16998550295829773
1772905622031554800,2.474554931640625,0.06049537658691406,0.033506691455841064,-0.13797563314437866
1772905622041554700,2.4845546875,0.004179954528808594,0.0019055604934692383,-0.1553027629852295
1772905622051554800,2.494554931640625,-0.15319347381591797,-0.019106507301330566,-0.20526811480522156
1772905622061554700,2.5045546875,-0.35642528533935547,-0.017429828643798828,-0.2759876251220703
1772905622071554800,2.514554931640625,-0.5194091796875,0.0021921396255493164,-0.35803136229515076
1772905622081554700,2.5245546875,-0.568202018737793,0.013382434844970703,-0.4540010094642639
1772905622091554800,2.534554931640625,-0.4816303253173828,0.0016638636589050293,-0.540175199508667
1772905622101554700,2.5445546875,-0.3031654357910156,-0.023543357849121094,-0.5854642987251282
1772905622111554800,2.554554931640625,-0.13367366790771484,-0.03718799352645874,-0.5897546410560608
1772905622121554700,2.5645546875,-0.04043865203857422,-0.027726054191589355,-0.5864839553833008
1772905622131554800,2.574554931640625,-0.01639270782470703,-0.012171685695648193,-0.5995115041732788
1772905622141554700,2.5845546875,-0.0063266754150390625,-0.009926974773406982,-0.604790449142456
1772905622151554800,2.594554931640625,0.06186676025390625,-0.02119654417037964,-0.5638996362686157
1772905622161554700,2.6045546875,0.19557762145996094,-0.03173112869262695,-0.47914373874664307
1772905622171554800,2.614554931640625,0.3134918212890625,-0.034352898597717285,-0.3887738287448883
1772905622181554700,2.6245546875,0.3078451156616211,-0.01939237117767334,-0.32866600155830383
1772905622191554800,2.634554931640625,0.16900157928466797,0.03244781494140625,-0.3131515681743622
1772905622201554700,2.6445546875,-0.028792381286621094,0.10695230960845947,-0.32553306221961975
1772905622211554800,2.654554931640625,-0.1895904541015625,0.16693484783172607,-0.3370108902454376
1772905622221554700,2.6645546875,-0.2436656951904297,0.19580966234207153,-0.34980300068855286
1772905622231554800,2.674554931640625,-0.1381692886352539,0.18882745504379272,-0.36610472202301025
1772905622241554700,2.6845546875,0.09559917449951172,0.1412786841392517,-0.38815945386886597
1772905622251554800,2.694554931640625,0.36384010314941406,0.07240664958953857,-0.3895392417907715
1772905622261554700,2.7045546875,0.543853759765625,0.013405919075012207,-0.3629947304725647
1772905622271554800,2.714554931640625,0.5443534851074219,-0.02372157573699951,-0.32523518800735474
1772905622281554700,2.7245546875,0.3654136657714844,-0.03418952226638794,-0.30018866062164307
1772905622291554800,2.734554931640625,0.09816455841064453,-0.022781074047088623,-0.3094630241394043
1772905622301554700,2.7445546875,-0.12567806243896484,-0.010994434356689453,-0.33169496059417725
1772905622311554800,2.754554931640625,-0.21772384643554688,-0.008353233337402344,-0.34327298402786255
1772905622321554700,2.7645546875,-0.15679359436035156,-0.01723194122314453,-0.31112951040267944
1772905622331554800,2.774554931640625,-0.024643898010253906,-0.025673329830169678,-0.23334550857543945
1772905622341554700,2.7845546875,0.03977394104003906,-0.01697099208831787,-0.1438620388507843
1772905622351554800,2.794554931640625,-0.037438392639160156,0.0064029693603515625,-0.07175987958908081
1772905622361554700,2.8045546875,-0.22686386108398438,0.037183165550231934,-0.043673694133758545
1772905622371554800,2.814554931640625,-0.40821075439453125,0.0705103874206543,-0.06225228309631348
1772905622381554700,2.8245546875,-0.4399538040161133,0.08957505226135254,-0.12289787828922272
1772905622391554800,2.834554931640625,-0.2693452835083008,0.07752823829650879,-0.19219554960727692
1772905622401554700,2.8445546875,0.024547576904296875,0.04125875234603882,-0.20549780130386353
1772905622411554800,2.854554931640625,0.2813272476196289,0.004641056060791016,-0.09089690446853638
1772905622421554700,2.8645546875,0.36460018157958984,-0.015600621700286865,0.18988150358200073
1772905622431554800,2.874554931640625,0.25528621673583984,-0.0027198195457458496,0.5663084983825684
1772905622441554700,2.8845546875,0.029977798461914062,0.04569453001022339,0.8467622399330139
1772905622451554800,2.894554931640625,-0.22290992736816406,0.1153104305267334,0.8803032636642456
1772905622461554700,2.9045546875,-0.42228126525878906,0.18460893630981445,0.6477609276771545
1772905622471554800,2.914554931640625,-0.5014572143554688,0.2176998257637024,0.2689722180366516
1772905622481554700,2.9245546875,-0.4295806884765625,0.19066518545150757,-0.06192213296890259
1772905622491554800,2.934554931640625,-0.24259567260742188,0.12273639440536499,-0.23459327220916748
1772905622501554700,2.9445546875,-0.0026483535766601562,0.05967116355895996,-0.27045923471450806
1772905622511554800,2.954554931640625,0.20896148681640625,0.02306467294692993,-0.24122722446918488
1772905622521554700,2.9645546875,0.3181295394897461,0.008153796195983887,-0.2183658480644226
1772905622531554800,2.974554931640625,0.2914113998413086,0.014926493167877197,-0.2529792785644531
1772905622541554700,2.9845546875,0.14797115325927734,0.03135579824447632,-0.3396131992340088
1772905622551554800,2.994554931640625,-0.05955696105957031,0.04779022932052612,-0.4586409032344818
1772905622561554700,3.0045546875,-0.2857379913330078,0.056984007358551025,-0.5883558392524719
1772905622571554800,3.014554931640625,-0.4707164764404297,0.0588914155960083,-0.6952172517776489
1772905622581554700,3.0245546875,-0.5282773971557617,0.04629892110824585,-0.764930784702301
1772905622591554800,3.034554931640625,-0.4321022033691406,0.012014806270599365,-0.7856084108352661
1772905622601554700,3.0445546875,-0.25163841247558594,-0.029569804668426514,-0.7620922327041626
1772905622611554800,3.054554931640625,-0.07796573638916016,-0.056842923164367676,-0.72316575050354
1772905622621554700,3.0645546875,0.02647876739501953,-0.05296558141708374,-0.6689596176147461
1772905622631554800,3.074554931640625,0.032769203186035156,-0.027438580989837646,-0.5829920768737793
1772905622641554700,3.0845546875,-0.03766441345214844,0.017400801181793213,-0.48458826541900635
1772905622651554800,3.094554931640625,-0.12017154693603516,0.062429606914520264,-0.40945369005203247
1772905622661554700,3.1045546875,-0.17397594451904297,0.09329211711883545,-0.4003344476222992
1772905622671554800,3.114554931640625,-0.1822967529296875,0.10520273447036743,-0.4593433141708374
1772905622681554700,3.1245546875,-0.154998779296875,0.10294961929321289,-0.5407448410987854
1772905622691554800,3.134554931640625,-0.10445213317871094,0.08891606330871582,-0.5988286733627319
1772905622701554700,3.1445546875,-0.04032135009765625,0.07743453979492188,-0.5926987528800964
1772905622711554800,3.154554931640625,0.032599449157714844,0.061262547969818115,-0.49586910009384155
1772905622721554700,3.1645546875,0.11199283599853516,0.042723238468170166,-0.3178366720676422
1772905622731554800,3.174554931640625,0.15969276428222656,0.026549339294433594,-0.14238546788692474
1772905622741554700,3.1845546875,0.1114501953125,0.01273256540298462,-0.055956289172172546
1772905622751554800,3.194554931640625,-0.07316303253173828,0.0013188719749450684,-0.09724165499210358
1772905622761554700,3.2045546875,-0.3175010681152344,-0.005218386650085449,-0.24248921871185303
1772905622771554800,3.214554931640625,-0.47803306579589844,-0.011588096618652344,-0.412717342376709
1772905622781554700,3.2245546875,-0.4589395523071289,-0.02254253625869751,-0.5241091251373291
1772905622791554800,3.234554931640625,-0.29836273193359375,-0.038086652755737305,-0.5455837249755859
1772905622801554700,3.2445546875,-0.10169029235839844,-0.0510479211807251,-0.4940794110298157
1772905622811554800,3.254554931640625,0.023342132568359375,-0.05185651779174805,-0.4129751920700073
1772905622821554700,3.2645546875,0.050391197204589844,-0.04529982805252075,-0.3456451892852783
1772905622831554800,3.274554931640625,0.04403114318847656,-0.04334384202957153,-0.318625271320343
1772905622841554700,3.2845546875,0.09013080596923828,-0.06515222787857056,-0.3392467796802521
1772905622851554800,3.294554931640625,0.22443103790283203,-0.12751924991607666,-0.40055572986602783
1772905622861554700,3.3045546875,0.41350460052490234,-0.2113451361656189,-0.47187870740890503
1772905622871554800,3.314554931640625,0.5953893661499023,-0.29033178091049194,-0.5155802965164185
1772905622881554700,3.3245546875,0.7129411697387695,-0.3453245162963867,-0.5036789178848267
1772905622891554800,3.334554931640625,0.7372531890869141,-0.36434632539749146,-0.44398200511932373
1772905622901554700,3.3445546875,0.6804094314575195,-0.3569870591163635,-0.3559786081314087
1772905622911554800,3.354554931640625,0.5566473007202148,-0.32326364517211914,-0.2803939878940582
1772905622921554700,3.3645546875,0.34444522857666016,-0.27755117416381836,-0.24099956452846527
1772905622931554800,3.374554931640625,0.0631093978881836,-0.2342119812965393,-0.24474726617336273
1772905622941554700,3.3845546875,-0.19138431549072266,-0.2075822949409485,-0.25072208046913147
1772905622951554800,3.394554931640625,-0.33983707427978516,-0.1832270622253418,-0.18687741458415985
1772905622961554700,3.4045546875,-0.4179658889770508,-0.1442779302597046,-0.03373521566390991
1772905622971554800,3.414554931640625,-0.4925251007080078,-0.0954056978225708,0.1588985025882721
1772905622981554700,3.4245546875,-0.5750885009765625,-0.043669044971466064,0.30062413215637207
1772905622991554800,3.434554931640625,-0.6053380966186523,-0.010467052459716797,0.34413862228393555
1772905623001554700,3.4445546875,-0.5258817672729492,-0.0028246045112609863,0.28511980175971985
1772905623011554800,3.454554931640625,-0.3150520324707031,-0.022986173629760742,0.1549937129020691
1772905623021554700,3.4645546875,-0.02314472198486328,-0.058847129344940186,-0.002986311912536621
1772905623031554800,3.474554931640625,0.24678802490234375,-0.09832334518432617,-0.1241169422864914
1772905623041554700,3.4845546875,0.40598106384277344,-0.12938910722732544,-0.15332664549350739
1772905623051554800,3.494554931640625,0.4350290298461914,-0.13533198833465576,-0.07628309726715088
1772905623061554700,3.5045546875,0.36949634552001953,-0.11152029037475586,0.07578422129154205
1772905623071554800,3.514554931640625,0.2232837677001953,-0.07018148899078369,0.23084773123264313
1772905623081554700,3.5245546875,0.03450489044189453,-0.02120792865753174,0.323963463306427
1772905623091554800,3.534554931640625,-0.13965988159179688,0.030280709266662598,0.3345344066619873
1772905623101554700,3.5445546875,-0.26215457916259766,0.0744020938873291,0.2908138036727905
1772905623111554800,3.554554931640625,-0.3110084533691406,0.10371202230453491,0.24995791912078857
1772905623121554700,3.5645546875,-0.2832479476928711,0.12517637014389038,0.2380015254020691
1772905623131554800,3.574554931640625,-0.1932363510131836,0.14100688695907593,0.23071211576461792
1772905623141554700,3.5845546875,-0.09604454040527344,0.1367095708847046,0.19673246145248413
1772905623151554800,3.594554931640625,-0.027582168579101562,0.11373311281204224,0.14790688455104828
1772905623161554700,3.6045546875,0.021727561950683594,0.08384394645690918,0.101014643907547
1772905623171554800,3.614554931640625,0.09497833251953125,0.056635916233062744,0.07297191023826599
1772905623181554700,3.6245546875,0.18941402435302734,0.01785755157470703,0.0640392154455185
1772905623191554800,3.634554931640625,0.283599853515625,-0.041862308979034424,0.08042149245738983
1772905623201554700,3.6445546875,0.35245418548583984,-0.10787796974182129,0.12021972984075546
1772905623211554800,3.654554931640625,0.35484886169433594,-0.15113353729248047,0.19099478423595428
1772905623221554700,3.6645546875,0.23574352264404297,-0.17128461599349976,0.29075080156326294
1772905623231554800,3.674554931640625,-0.03786182403564453,-0.17277932167053223,0.3983003795146942
1772905623241554700,3.6845546875,-0.4176769256591797,-0.14584696292877197,0.4851476550102234
1772905623251554800,3.694554931640625,-0.7767858505249023,-0.08238285779953003,0.5178417563438416
1772905623261554700,3.7045546875,-0.9697141647338867,-0.008470296859741211,0.472357839345932
1772905623271554800,3.714554931640625,-0.9073343276977539,0.032894670963287354,0.34854409098625183
1772905623281554700,3.7245546875,-0.605778694152832,0.0297890305519104,0.17499321699142456
1772905623291554800,3.734554931640625,-0.15338802337646484,-0.008239269256591797,0.028207801282405853
1772905623301554700,3.7445546875,0.3133678436279297,-0.052579641342163086,-0.005760721862316132
1772905623311554800,3.754554931640625,0.6292858123779297,-0.07469844818115234,0.07048281282186508
1772905623321554700,3.7645546875,0.6740598678588867,-0.058087825775146484,0.22555026412010193
1772905623331554800,3.774554931640625,0.46631717681884766,-0.010099053382873535,0.3969408869743347
1772905623341554700,3.7845546875,0.14212417602539062,0.05494272708892822,0.5150741338729858
1772905623351554800,3.794554931640625,-0.1477069854736328,0.11320102214813232,0.5081469416618347
1772905623361554700,3.8045546875,-0.309234619140625,0.14795470237731934,0.4002930223941803
1772905623371554800,3.814554931640625,-0.3262367248535156,0.15441018342971802,0.26119866967201233
1772905623381554700,3.8245546875,-0.23973846435546875,0.13972020149230957,0.1580672562122345
1772905623391554800,3.834554931640625,-0.11184406280517578,0.11820197105407715,0.14355915784835815
1772905623401554700,3.8445546875,-0.02852153778076172,0.10415893793106079,0.2127232849597931
1772905623411554800,3.854554931640625,-0.04233837127685547,0.09006386995315552,0.3006976246833801
1772905623421554700,3.8645546875,-0.15375423431396484,0.08299869298934937,0.3115653991699219
1772905623431554800,3.874554931640625,-0.30347728729248047,0.08995431661605835,0.21421700716018677
1772905623441554700,3.8845546875,-0.4077110290527344,0.10106146335601807,0.044750139117240906
1772905623451554800,3.894554931640625,-0.3850517272949219,0.10653167963027954,-0.12954306602478027
1772905623461554700,3.9045546875,-0.2283163070678711,0.09425818920135498,-0.24618978798389435
1772905623471554800,3.914554931640625,0.026580810546875,0.04980188608169556,-0.2930363714694977
1772905623481554700,3.9245546875,0.29074668884277344,-0.014876961708068848,-0.2938021719455719
1772905623491554800,3.934554931640625,0.47281551361083984,-0.08295446634292603,-0.29122740030288696
1772905623501554700,3.9445546875,0.5079212188720703,-0.1399242877960205,-0.30414825677871704
1772905623511554800,3.954554931640625,0.381591796875,-0.1709633469581604,-0.3395357131958008
1772905623521554700,3.9645546875,0.15701580047607422,-0.18541765213012695,-0.3924156427383423
1772905623531554800,3.974554931640625,-0.03546333312988281,-0.1950286626815796,-0.4459657669067383
1772905623541554700,3.9845546875,-0.08771705627441406,-0.2186834216117859,-0.4643728733062744
1772905623551554800,3.994554931640625,0.03582286834716797,-0.25146573781967163,-0.4311012923717499
1772905623561554700,4.0045546875,0.23677921295166016,-0.27412426471710205,-0.38234442472457886
1772905623571554800,4.014554931640625,0.34284210205078125,-0.26503217220306396,-0.3710702061653137
1772905623581554700,4.0245546875,0.2441253662109375,-0.21696621179580688,-0.4287106990814209
1772905623591554800,4.034554931640625,0.010508537292480469,-0.15388506650924683,-0.5194956064224243
1772905623601554700,4.0445546875,-0.15395355224609375,-0.10938650369644165,-0.5642088055610657
1772905623611554800,4.054554931640625,-0.09814834594726562,-0.08597856760025024,-0.5265907645225525
1772905623621554700,4.0645546875,0.13674259185791016,-0.08618521690368652,-0.4375046491622925
1772905623631554800,4.074554931640625,0.34432315826416016,-0.09099560976028442,-0.37818342447280884
1772905623641554700,4.0845546875,0.34703540802001953,-0.07886290550231934,-0.3940292000770569
1772905623651554800,4.094554931640625,0.14035797119140625,-0.04721522331237793,-0.4658433198928833
1772905623661554700,4.1045546875,-0.12771320343017578,-0.012617290019989014,-0.5169605612754822
1772905623671554800,4.114554931640625,-0.3040943145751953,0.015514791011810303,-0.5113760232925415
1772905623681554700,4.1245546875,-0.3459453582763672,0.03010028600692749,-0.46333613991737366
1772905623691554800,4.134554931640625,-0.33270740509033203,0.033575236797332764,-0.4232029914855957
1772905623701554700,4.1445546875,-0.3629941940307617,0.030732035636901855,-0.4343806207180023
1772905623711554800,4.154554931640625,-0.4631538391113281,0.026352107524871826,-0.49716150760650635
1772905623721554700,4.1645546875,-0.544158935546875,0.015645146369934082,-0.5710389018058777
1772905623731554800,4.174554931640625,-0.45517730712890625,-0.013363838195800781,-0.6010021567344666
1772905623741554700,4.1845546875,-0.1626873016357422,-0.0680462121963501,-0.5534525513648987
1772905623751554800,4.194554931640625,0.1777658462524414,-0.12232524156570435,-0.4546164870262146
1772905623761554700,4.2045546875,0.3417825698852539,-0.13817232847213745,-0.36195480823516846
1772905623771554800,4.214554931640625,0.22409343719482422,-0.10626220703125,-0.32115593552589417
1772905623781554700,4.2245546875,-0.06755447387695312,-0.04354196786880493,-0.3181980848312378
1772905623791554800,4.234554931640625,-0.2937583923339844,0.016344785690307617,-0.2935726046562195
1772905623801554700,4.2445546875,-0.27265167236328125,0.0584530234336853,-0.2091999650001526
1772905623811554800,4.254554931640625,-0.04516792297363281,0.07529550790786743,-0.10107898712158203
1772905623821554700,4.2645546875,0.2092275619506836,0.0763862133026123,-0.03390197455883026
1772905623831554800,4.274554931640625,0.35926151275634766,0.06649661064147949,-0.02458009123802185
1772905623841554700,4.2845546875,0.3715476989746094,0.06480222940444946,-0.042313143610954285
1772905623851554800,4.294554931640625,0.2866935729980469,0.08570915460586548,-0.0491892546415329
1772905623861554700,4.3045546875,0.1739940643310547,0.11489808559417725,-0.02634131908416748
1772905623871554800,4.314554931640625,0.08611679077148438,0.13805586099624634,0.02857792377471924
1772905623881554700,4.3245546875,0.049530029296875,0.1432902216911316,0.11094281077384949
1772905623891554800,4.334554931640625,0.045218467712402344,0.13312023878097534,0.21855977177619934
1772905623901554700,4.3445546875,0.038417816162109375,0.12017464637756348,0.31318554282188416
1772905623911554800,4.354554931640625,0.011786460876464844,0.10246866941452026,0.34101665019989014
1772905623921554700,4.3645546875,-0.03054046630859375,0.07536846399307251,0.2824462652206421
1772905623931554800,4.374554931640625,-0.057769775390625,0.04375249147415161,0.1734144538640976
1772905623941554700,4.3845546875,-0.04835319519042969,0.017257273197174072,0.0978887528181076
1772905623951554800,4.394554931640625,-0.018942832946777344,0.000745236873626709,0.10634014010429382
1772905623961554700,4.4045546875,-0.022240638732910156,0.00628209114074707,0.1820930391550064
1772905623971554800,4.414554931640625,-0.10873126983642578,0.03155547380447388,0.27241113781929016
1772905623981554700,4.4245546875,-0.2379159927368164,0.05502963066101074,0.32209813594818115
1772905623991554800,4.434554931640625,-0.3331184387207031,0.06943720579147339,0.3263086974620819
1772905624001554700,4.4445546875,-0.3400545120239258,0.06265723705291748,0.2923172116279602
1772905624011554800,4.454554931640625,-0.2578268051147461,0.03931552171707153,0.23330157995224
1772905624021554700,4.4645546875,-0.1221780776977539,0.00406879186630249,0.15211327373981476
1772905624031554800,4.474554931640625,-0.012186050415039062,-0.0359843373298645,0.06791083514690399
1772905624041554700,4.4845546875,0.036103248596191406,-0.05934798717498779,-0.004931509494781494
1772905624051554800,4.494554931640625,-0.008447647094726562,-0.05888849496841431,-0.06864431500434875
1772905624061554700,4.5045546875,-0.15764999389648438,-0.0322643518447876,-0.1372133493423462
1772905624071554800,4.514554931640625,-0.37057971954345703,-0.001054525375366211,-0.20054182410240173
1772905624081554700,4.5245546875,-0.5298604965209961,0.020408809185028076,-0.23418954014778137
1772905624091554800,4.534554931640625,-0.5327367782592773,0.015489935874938965,-0.21865452826023102
1772905624101554700,4.5445546875,-0.3532419204711914,-0.015629231929779053,-0.16573305428028107
1772905624111554800,4.554554931640625,-0.08739662170410156,-0.05847889184951782,-0.113776296377182
1772905624121554700,4.5645546875,0.10192012786865234,-0.08907496929168701,-0.1059017926454544
1772905624131554800,4.574554931640625,0.11893749237060547,-0.0882490873336792,-0.14210353791713715
1772905624141554700,4.5845546875,-0.012240409851074219,-0.05360990762710571,-0.18649151921272278
1772905624151554800,4.594554931640625,-0.19548320770263672,-0.004316985607147217,-0.20326851308345795
1772905624161554700,4.6045546875,-0.28910255432128906,0.04047209024429321,-0.1615375429391861
1772905624171554800,4.614554931640625,-0.20418071746826172,0.0783509612083435,-0.08075466752052307
1772905624181554700,4.6245546875,0.001934051513671875,0.10209929943084717,-0.030658140778541565
1772905624191554800,4.634554931640625,0.1950836181640625,0.10684776306152344,-0.03543555736541748
1772905624201554700,4.6445546875,0.2578105926513672,0.10693061351776123,-0.07835347950458527
1772905624211554800,4.654554931640625,0.1636219024658203,0.11438077688217163,-0.11137114465236664
1772905624221554700,4.6645546875,-0.041919708251953125,0.13404744863510132,-0.10318627953529358
1772905624231554800,4.674554931640625,-0.2700986862182617,0.1563730239868164,-0.0631980150938034
1772905624241554700,4.6845546875,-0.4180459976196289,0.16666048765182495,-0.01521456241607666
1772905624251554800,4.694554931640625,-0.4071779251098633,0.1644890308380127,0.028839007019996643
1772905624261554700,4.7045546875,-0.25075721740722656,0.14740413427352905,0.07609336078166962
1772905624271554800,4.714554931640625,-0.038466453552246094,0.13212239742279053,0.1168728694319725
1772905624281554700,4.7245546875,0.10992050170898438,0.11861610412597656,0.12716369330883026
1772905624291554800,4.734554931640625,0.13232994079589844,0.10686910152435303,0.10456258058547974
1772905624301554700,4.7445546875,-0.0968313217163086,-0.057752251625061035,-0.08490367233753204
1772905624311554800,4.754554931640625,-0.1773519515991211,-0.07721179723739624,-0.1396627128124237
1772905624321554700,4.7645546875,-0.233489990234375,-0.10217863321304321,-0.18514470756053925
1772905624341554700,4.7845546875,-0.17728042602539062,-0.15481865406036377,-0.23496393859386444
1772905624351554800,4.794554931640625,-0.09081172943115234,-0.17614030838012695,-0.23258402943611145
1772905624361554700,4.8045546875,0.013886451721191406,-0.18580150604248047,-0.20115071535110474
1772905624371554800,4.814554931640625,0.10313224792480469,-0.19476807117462158,-0.1315673440694809
1772905624381554700,4.8245546875,0.1257038116455078,-0.1824352741241455,-0.060071371495723724
1772905624391554800,4.834554931640625,0.055710792541503906,-0.16023075580596924,0.002270776778459549
1772905624401554700,4.8445546875,-0.09434127807617188,-0.1313883662223816,0.028352873399853706
1772905624411554800,4.854554931640625,-0.2234945297241211,-0.1002766489982605,0.034145910292863846
1772905624421554700,4.8645546875,-0.229248046875,-0.08301204442977905,0.02942943014204502
1772905624431554800,4.874554931640625,-0.10075092315673828,-0.08250898122787476,0.026554737240076065
1772905624441554700,4.8845546875,0.07229137420654297,-0.08711022138595581,0.014709075912833214
1772905624451554800,4.894554931640625,0.31586456298828125,-0.01942664384841919,0.13318182528018951
1772905624461554700,4.9045546875,0.2732582092285156,-0.016147613525390625,0.1168438196182251
1772905624471554800,4.914554931640625,0.09914207458496094,0.0018938779830932617,0.1433558315038681
1772905624491554800,4.934554931640625,-0.3104877471923828,0.05804389715194702,0.26042628288269043
1772905624501554700,4.9445546875,-0.39955615997314453,0.07685822248458862,0.2888513505458832
1772905624511554800,4.954554931640625,-0.3610649108886719,0.08144396543502808,0.2549373507499695
1772905624521554700,4.9645546875,-0.23353290557861328,0.07176434993743896,0.1587022840976715
1772905624541554700,4.9845546875,0.12013053894042969,-0.0000776052474975586,-0.06710696220397949
1772905624551554800,4.994554931640625,0.2358255386352539,-0.05025899410247803,-0.09818654507398605
1772905624561554700,5.0045546875,0.2581300735473633,-0.08354032039642334,-0.049803294241428375
1772905624571554800,5.014554931640625,0.1776123046875,-0.09030264616012573,0.0421457439661026
1772905624581554700,5.0245546875,0.006365776062011719,-0.07053011655807495,0.1201428472995758
1772905624591554800,5.034554931640625,-0.1813488006591797,-0.04577744007110596,0.14580397307872772
1772905624601554700,5.0445546875,-0.31624698638916016,-0.030432045459747314,0.12386259436607361
1772905624621554700,5.0645546875,-0.2819633483886719,-0.04243028163909912,0.0017049908638000488
1772905624631554800,5.074554931640625,-0.1103963851928711,-0.08417433500289917,-0.07703632861375809
1772905624641554700,5.0845546875,0.09952735900878906,-0.14977240562438965,-0.1580420881509781
1772905624651554800,5.094554931640625,0.3670949935913086,-0.2608393430709839,-0.29398268461227417
1772905624661554700,5.1045546875,0.34998130798339844,-0.27140283584594727,-0.3554554581642151
1772905624671554800,5.114554931640625,0.24210166931152344,-0.2509593963623047,-0.41415074467658997
1772905624681554700,5.1245546875,0.08646965026855469,-0.20912903547286987,-0.46284496784210205
1772905624691554800,5.134554931640625,-0.040307044982910156,-0.1603056788444519,-0.4871309697628021
1772905624701554700,5.1445546875,-0.08784961700439453,-0.12362301349639893,-0.4821954667568207
1772905624711554800,5.154554931640625,-0.05367851257324219,-0.10384249687194824,-0.45282283425331116
1772905624721554700,5.1645546875,0.007190704345703125,-0.09375756978988647,-0.39663177728652954
1772905624731554800,5.174554931640625,0.10147571563720703,0.02648681402206421,0.16775837540626526
1772905624741554700,5.1845546875,0.05598735809326172,0.06478887796401978,0.26353561878204346
1772905624751554800,5.194554931640625,-0.058933258056640625,0.11266392469406128,0.3661867678165436
1772905624761554700,5.2045546875,-0.1882162094116211,0.15336447954177856,0.45956867933273315
1772905624771554800,5.214554931640625,-0.23610401153564453,0.18417280912399292,0.5406605005264282
1772905624781554700,5.2245546875,-0.1641244888305664,0.19853705167770386,0.5787324905395508
1772905624791554800,5.234554931640625,-0.0045146942138671875,0.204026460647583,0.5478579998016357
1772905624801554700,5.2445546875,0.1505422592163086,0.1977248191833496,0.4417451024055481
1772905624811554800,5.254554931640625,0.21953582763671875,0.17979073524475098,0.32261982560157776
1772905624831554800,5.274554931640625,0.15376758575439453,0.15780025720596313,0.28607189655303955
1772905624841554700,5.2845546875,0.049640655517578125,0.16391712427139282,0.3575948178768158
1772905624851554800,5.294554931640625,-0.08221244812011719,0.17145097255706787,0.41529518365859985
1772905624861554700,5.3045546875,-0.20105552673339844,0.17307186126708984,0.4147060513496399
1772905624871554800,5.314554931640625,-0.25084781646728516,0.15831702947616577,0.36876681447029114
1772905624881554700,5.3245546875,-0.19919776916503906,0.13231045007705688,0.31815916299819946
1772905624891554800,5.334554931640625,-0.07498550415039062,0.10258454084396362,0.2961629629135132
1772905624901554700,5.3445546875,0.027873992919921875,0.08002978563308716,0.28914880752563477
1772905624911554800,5.354554931640625,0.03482246398925781,0.07776093482971191,0.2664743661880493
1772905624921554700,5.3645546875,-0.02608489990234375,0.07889926433563232,0.23741048574447632
1772905624931554800,5.374554931640625,-0.07085704803466797,0.08181893825531006,0.23376351594924927
1772905624941554700,5.3845546875,-0.02479839324951172,0.07485371828079224,0.2523782253265381
1772905624951554800,5.394554931640625,0.11698722839355469,0.05797076225280762,0.2718017101287842
1772905624961554700,5.4045546875,0.26380252838134766,0.024756789207458496,0.2832038402557373
1772905624971554800,5.414554931640625,0.3246746063232422,-0.003991961479187012,0.2900107502937317
1772905624981554700,5.4245546875,0.2731361389160156,-0.0066075921058654785,0.3059706687927246
1772905624991554800,5.434554931640625,0.12914466857910156,0.011902928352355957,0.33373841643333435
1772905625001554700,5.4445546875,-0.04388713836669922,0.043672800064086914,0.3660949170589447
1772905625011554800,5.454554931640625,-0.1669921875,0.0773000717163086,0.38846129179000854
1772905625021554700,5.4645546875,-0.17250919342041016,0.09816056489944458,0.3908807039260864
1772905625031554800,5.474554931640625,-0.06128215789794922,0.10169011354446411,0.37623125314712524
1772905625041554700,5.4845546875,0.09362316131591797,0.10022592544555664,0.3398158550262451
1772905625051554800,5.494554931640625,0.1900348663330078,0.09890800714492798,0.2885626554489136
1772905625071554800,5.514554931640625,0.08910179138183594,0.11576306819915771,0.21580606698989868
1772905625081554700,5.5245546875,-0.01863574981689453,0.1229446530342102,0.23255932331085205
1772905625091554800,5.534554931640625,-0.06907272338867188,0.12325972318649292,0.2780454754829407
1772905625101554700,5.5445546875,-0.045131683349609375,0.11160886287689209,0.33550721406936646
1772905625111554800,5.554554931640625,0.00499725341796875,0.0876610279083252,0.37411922216415405
1772905625121554700,5.5645546875,0.03357410430908203,0.07120418548583984,0.3620707392692566
1772905625131554800,5.574554931640625,0.019364356994628906,0.06672525405883789,0.2950378358364105
1772905625141554700,5.5845546875,-0.01655101776123047,0.07150274515151978,0.1924009621143341
1772905625151554800,5.594554931640625,-0.028524398803710938,0.076296865940094,0.09663921594619751
1772905625161554700,5.6045546875,0.012331962585449219,0.07151800394058228,0.04875373840332031
1772905625171554800,5.614554931640625,0.10346126556396484,0.05923992395401001,0.04906472563743591
1772905625181554700,5.6245546875,0.213592529296875,0.04714155197143555,0.09246033430099487
1772905625191554800,5.634554931640625,0.27584266662597656,0.03786766529083252,0.16427794098854065
1772905625201554700,5.6445546875,0.2352886199951172,0.04713034629821777,0.234028160572052
1772905625211554800,5.654554931640625,0.09179115295410156,0.07076656818389893,0.27983254194259644
1772905625221554700,5.6645546875,-0.06368064880371094,0.09679991006851196,0.3040766417980194
1772905625231554800,5.674554931640625,-0.1401386260986328,0.11325275897979736,0.30438941717147827
1772905625241554700,5.6845546875,-0.09689140319824219,0.1129375696182251,0.29991793632507324
1772905625251554800,5.694554931640625,0.02776813507080078,0.10575211048126221,0.30261924862861633
1772905625261554700,5.7045546875,0.13805675506591797,0.09826236963272095,0.29574090242385864
1772905625271554800,5.714554931640625,0.1597604751586914,0.09557002782821655,0.27688950300216675
1772905625281554700,5.7245546875,0.10708904266357422,0.09317344427108765,0.27001136541366577
1772905625291554800,5.734554931640625,0.06638050079345703,0.09348887205123901,0.30353227257728577
1772905625301554700,5.7445546875,0.09047603607177734,0.09380948543548584,0.3804507851600647
1772905625311554800,5.754554931640625,0.1480865478515625,0.09410911798477173,0.4666493833065033
1772905625321554700,5.7645546875,0.1576671600341797,0.09442144632339478,0.5145403146743774
1772905625331554800,5.774554931640625,0.08600044250488281,0.08754932880401611,0.5004963278770447
1772905625341554700,5.7845546875,-0.04583168029785156,0.06870192289352417,0.4241947829723358
1772905625351554800,5.794554931640625,-0.19442367553710938,0.035498619079589844,0.3113503158092499
1772905625361554700,5.8045546875,-0.3189220428466797,-0.014469504356384277,0.20350906252861023
1772905625371554800,5.814554931640625,-0.4027242660522461,-0.07401782274246216,0.1292918622493744
1772905625381554700,5.8245546875,-0.4265117645263672,-0.12399488687515259,0.06495073437690735
1772905625391554800,5.834554931640625,-0.3665018081665039,-0.152418315410614,-0.011342883110046387
1772905625401554700,5.8445546875,-0.22045612335205078,-0.16677814722061157,-0.08526086807250977
1772905625411554800,5.854554931640625,-0.02892303466796875,-0.1667885184288025,-0.1355333924293518
1772905625421554700,5.8645546875,0.14585113525390625,-0.15689688920974731,-0.1498924195766449
1772905625431554800,5.874554931640625,0.25614452362060547,-0.14013564586639404,-0.13043996691703796
1772905625441554700,5.8845546875,0.2824831008911133,-0.11141163110733032,-0.10171699523925781
1772905625451554800,5.894554931640625,0.2539091110229492,-0.08027666807174683,-0.0801612138748169
1772905625461554700,5.9045546875,0.22533607482910156,-0.05424225330352783,-0.05829554796218872
1772905625471554800,5.914554931640625,0.23252391815185547,-0.025506675243377686,-0.024789094924926758
1772905625481554700,5.9245546875,0.2805624008178711,0.003232598304748535,0.032674551010131836
1772905625491554800,5.934554931640625,0.3357877731323242,0.03196591138839722,0.12395882606506348
1772905625501554700,5.9445546875,0.35494136810302734,0.06756967306137085,0.25594085454940796
1772905625511554800,5.954554931640625,0.3046684265136719,0.11336129903793335,0.3972020149230957
1772905625521554700,5.9645546875,0.1827220916748047,0.16345614194869995,0.5073431730270386
1772905625531554800,5.974554931640625,0.029645919799804688,0.20625370740890503,0.5603229999542236
1772905625541554700,5.9845546875,-0.09005928039550781,0.23738116025924683,0.5627059936523438
1772905625551554800,5.994554931640625,-0.12118053436279297,0.2445664405822754,0.5435511469841003
1772905625561554700,6.0045546875,-0.0686635971069336,0.2281125783920288,0.5288880467414856
1772905625571554800,6.014554931640625,0.0077953338623046875,0.19489389657974243,0.52618807554245
1772905625581554700,6.0245546875,0.04116058349609375,0.1544998288154602,0.521085798740387
1772905625591554800,6.034554931640625,-0.04617118835449219,0.07638108730316162,0.2523280084133148
1772905625601554700,6.0445546875,-0.1539773941040039,0.056944847106933594,0.2030639350414276
1772905625611554800,6.054554931640625,-0.24097633361816406,0.039277851581573486,0.1234818547964096
1772905625621554700,6.0645546875,-0.24741363525390625,0.025370121002197266,0.021670132875442505
1772905625631554800,6.074554931640625,-0.18480682373046875,0.010354280471801758,-0.0692007839679718
1772905625641554700,6.0845546875,-0.09995460510253906,0.0013511180877685547,-0.1205102801322937
1772905625651554800,6.094554931640625,-0.04324626922607422,-0.0016953349113464355,-0.10844719409942627
1772905625661554700,6.1045546875,-0.039071083068847656,-0.0012281537055969238,-0.054735004901885986
1772905625671554800,6.114554931640625,-0.08057212829589844,-0.004459857940673828,0.016469717025756836
1772905625681554700,6.1245546875,-0.13188648223876953,-0.011390507221221924,0.06903930008411407
1772905625691554800,6.134554931640625,-0.16177940368652344,-0.02916175127029419,0.07408864796161652
1772905625701554700,6.1445546875,-0.14857864379882812,-0.0672575831413269,0.03875935077667236
1772905625711554800,6.154554931640625,-0.05876350402832031,-0.12014782428741455,-0.02967602014541626
1772905625721554700,6.1645546875,0.1100606918334961,-0.17543232440948486,-0.11798185110092163
1772905625731554800,6.174554931640625,0.31719303131103516,-0.21619391441345215,-0.2235850691795349
1772905625741554700,6.1845546875,0.4740467071533203,-0.2374664545059204,-0.33205366134643555
1772905625751554800,6.194554931640625,0.5064010620117188,-0.23672407865524292,-0.4167899489402771
1772905625761554700,6.2045546875,0.4097614288330078,-0.22112822532653809,-0.4486072063446045
1772905625771554800,6.214554931640625,0.2608833312988281,-0.1978316307067871,-0.4079885482788086
1772905625781554700,6.2245546875,0.12428474426269531,-0.16919374465942383,-0.3043540120124817
1772905625791554800,6.234554931640625,0.026172637939453125,-0.1399797797203064,-0.18067345023155212
1772905625801554700,6.2445546875,-0.04540538787841797,-0.11259102821350098,-0.08235576748847961
1772905625811554800,6.254554931640625,-0.10231208801269531,-0.09425908327102661,-0.016545653343200684
1772905625821554700,6.2645546875,-0.13779258728027344,-0.07311159372329712,0.028732895851135254
1772905625831554800,6.274554931640625,-0.15219593048095703,-0.044498980045318604,0.05103972554206848
1772905625841554700,6.2845546875,-0.13588237762451172,-0.013310551643371582,0.04305851459503174
1772905625851554800,6.294554931640625,-0.09362030029296875,0.018134653568267822,0.018899917602539062
1772905625861554700,6.3045546875,-0.04937744140625,0.04286926984786987,-0.01199309527873993
1772905625871554800,6.314554931640625,-0.019868850708007812,0.04912906885147095,-0.01829521358013153
1772905625881554700,6.3245546875,-0.009813308715820312,0.04188120365142822,0.03625291585922241
1772905625891554800,6.334554931640625,-0.021589279174804688,0.03562361001968384,0.15432102978229523
1772905625901554700,6.3445546875,-0.07924270629882812,0.040013015270233154,0.2810531258583069
1772905625911554800,6.354554931640625,-0.17569637298583984,0.05507022142410278,0.3519466519355774
1772905625921554700,6.3645546875,-0.25067710876464844,0.07118666172027588,0.33114442229270935
1772905625931554800,6.374554931640625,-0.24399471282958984,0.0739220380783081,0.2377551943063736
1772905625941554700,6.3845546875,-0.1485300064086914,0.06310200691223145,0.12187938392162323
1772905625951554800,6.394554931640625,0.0022125244140625,0.04553544521331787,0.026620015501976013
1772905625961554700,6.4045546875,0.13410472869873047,0.02705252170562744,-0.014767706394195557
1772905625971554800,6.414554931640625,0.17059612274169922,0.0217629075050354,-0.005131125450134277
1772905625981554700,6.4245546875,0.10443687438964844,0.029431939125061035,0.047948822379112244
1772905625991554800,6.434554931640625,-0.02134418487548828,0.03550475835800171,0.12497314810752869
1772905626001554700,6.4445546875,-0.15411663055419922,0.03745830059051514,0.199314147233963
1772905626011554800,6.454554931640625,-0.26515674591064453,0.03045344352722168,0.23723235726356506
1772905626021554700,6.4645546875,-0.3400850296020508,0.019303441047668457,0.21706229448318481
1772905626031554800,6.474554931640625,-0.376495361328125,0.0017048120498657227,0.15796945989131927
1772905626041554700,6.4845546875,-0.3767833709716797,-0.024582743644714355,0.10560837388038635
1772905626051554800,6.494554931640625,-0.39126014709472656,-0.030588269233703613,0.09348851442337036
1772905626061554700,6.5045546875,-0.41758251190185547,-0.012711703777313232,0.09293730556964874
1772905626071554800,6.514554931640625,-0.4149770736694336,0.012414276599884033,0.07294704020023346
1772905626081554700,6.5245546875,-0.33294010162353516,0.023389875888824463,0.02654072642326355
1772905626091554800,6.534554931640625,-0.15210533142089844,0.017981290817260742,-0.022048205137252808
1772905626101554700,6.5445546875,0.07263565063476562,0.005923151969909668,-0.05572086572647095
1772905626111554800,6.554554931640625,0.23847579956054688,0.004100680351257324,-0.09089429676532745
1772905626121554700,6.5645546875,0.2809000015258789,0.012546837329864502,-0.14640861749649048
1772905626131554800,6.574554931640625,0.24553394317626953,0.02885150909423828,-0.2125173658132553
1772905626141554700,6.5845546875,0.21632003784179688,0.04578888416290283,-0.26287132501602173
1772905626151554800,6.594554931640625,0.23647594451904297,0.05851101875305176,-0.27592068910598755
1772905626161554700,6.6045546875,0.2725200653076172,0.0669487714767456,-0.2612682282924652
1772905626171554800,6.614554931640625,0.2571525573730469,0.07341855764389038,-0.23575423657894135
1772905626181554700,6.6245546875,0.14771366119384766,0.08022284507751465,-0.1995323896408081
1772905626191554800,6.634554931640625,-0.011437416076660156,0.08007502555847168,-0.1456417441368103
1772905626201554700,6.6445546875,-0.13886642456054688,0.06807816028594971,-0.0719466358423233
1772905626211554800,6.654554931640625,-0.18413829803466797,0.053756892681121826,-0.02180519700050354
1772905626221554700,6.6645546875,-0.1399364471435547,0.03473013639450073,-0.036058589816093445
1772905626231554800,6.674554931640625,0.07392120361328125,0.025638937950134277,-0.13451673090457916
1772905626241554700,6.6845546875,0.22580814361572266,-0.0031081438064575195,-0.231069877743721
1772905626251554800,6.694554931640625,0.35701465606689453,-0.020895779132843018,-0.28043460845947266
1772905626261554700,6.7045546875,0.4345388412475586,-0.024368584156036377,-0.2335044890642166
1772905626271554800,6.714554931640625,0.43222522735595703,-0.016865849494934082,-0.07797278463840485
1772905626281554700,6.7245546875,0.3233671188354492,0.0013272762298583984,0.13819129765033722
1772905626291554800,6.734554931640625,0.1115579605102539,0.027381837368011475,0.3150670826435089
1772905626301554700,6.7445546875,-0.13927078247070312,0.055359840393066406,0.37756872177124023
1772905626311554800,6.754554931640625,-0.31606197357177734,0.062124550342559814,0.31835678219795227
1772905626321554700,6.7645546875,-0.3100595474243164,0.059649646282196045,0.17446613311767578
1772905626331554800,6.774554931640625,-0.10207843780517578,0.032700955867767334,0.027542009949684143
1772905626341554700,6.7845546875,0.20142173767089844,-0.006987631320953369,-0.07429419457912445
1772905626351554800,6.794554931640625,0.4504890441894531,-0.04304748773574829,-0.11168809235095978
1772905626361554700,6.8045546875,0.5322580337524414,-0.06348848342895508,-0.08609552681446075
1772905626371554800,6.814554931640625,0.4327983856201172,-0.061572134494781494,-0.017052143812179565
1772905626381554700,6.8245546875,0.21400165557861328,-0.034355223178863525,0.08333651721477509
1772905626391554800,6.834554931640625,-0.0062389373779296875,-0.0021633505821228027,0.1718125343322754
1772905626401554700,6.8445546875,-0.1421794891357422,0.021194875240325928,0.20671646296977997
1772905626411554800,6.854554931640625,-0.1463298797607422,0.02332240343093872,0.16413414478302002
1772905626421554700,6.8645546875,-0.03685188293457031,-0.007410526275634766,0.053773149847984314
1772905626431554800,6.874554931640625,0.12223434448242188,-0.055388450622558594,-0.092861607670784
1772905626441554700,6.8845546875,0.24820709228515625,-0.10624575614929199,-0.22827018797397614
1772905626451554800,6.894554931640625,0.3071298599243164,-0.13849109411239624,-0.31991082429885864
1772905626461554700,6.9045546875,0.33283424377441406,-0.17003321647644043,-0.31712573766708374
1772905626471554800,6.914554931640625,0.34557437896728516,-0.1936134696006775,-0.22431731224060059
1772905626481554700,6.9245546875,0.3320188522338867,-0.1842290163040161,-0.09695598483085632
1772905626491554800,6.934554931640625,0.2403268814086914,-0.149652361869812,-0.0179898738861084
1772905626501554700,6.9445546875,0.098876953125,-0.09044933319091797,-0.024610653519630432
1772905626521554700,6.9645546875,-0.008645057678222656,0.02140176296234131,-0.13124912977218628
1772905626531554800,6.974554931640625,0.08369731903076172,0.05278283357620239,-0.1213713139295578
1772905626541554700,6.9845546875,0.18550682067871094,0.07632184028625488,-0.033574238419532776
1772905626551554800,6.994554931640625,0.22240543365478516,0.10028421878814697,0.09154372662305832
1772905626561554700,7.0045546875,0.1814117431640625,0.11785972118377686,0.24191495776176453
1772905626571554800,7.014554931640625,0.09761333465576172,0.12743031978607178,0.4073472321033478
1772905626581554700,7.0245546875,0.009024620056152344,0.13491827249526978,0.5489120483398438
1772905626591554800,7.034554931640625,-0.07252788543701172,0.12564122676849365,0.6183451414108276
1772905626601554700,7.0445546875,-0.1323833465576172,0.09242278337478638,0.5872233510017395
1772905626611554800,7.054554931640625,-0.16350746154785156,0.0424419641494751,0.45044660568237305
1772905626621554700,7.0645546875,-0.1491413116455078,-0.017108798027038574,0.2443167269229889
1772905626631554800,7.074554931640625,-0.2377462387084961,-0.05207282304763794,0.03073759377002716
1772905626641554700,7.0845546875,-0.12625598907470703,-0.10072392225265503,-0.12643669545650482
1772905626651554800,7.094554931640625,-0.008112907409667969,-0.13548493385314941,-0.19846798479557037
1772905626661554700,7.1045546875,0.05454254150390625,-0.15631097555160522,-0.21635106205940247
1772905626671554800,7.114554931640625,0.03550243377685547,-0.1584046483039856,-0.21819047629833221
1772905626681554700,7.1245546875,-0.060089111328125,-0.14418524503707886,-0.23485629260540009
1772905626691554800,7.134554931640625,-0.14820480346679688,-0.12802380323410034,-0.27087336778640747
1772905626701554700,7.1445546875,-0.13541698455810547,-0.12426859140396118,-0.3046679198741913
1772905626711554800,7.154554931640625,-0.000171661376953125,-0.1373266577720642,-0.33404844999313354
1772905626721554700,7.1645546875,0.19289779663085938,-0.15002942085266113,-0.3634549379348755
1772905626731554800,7.174554931640625,0.3480806350708008,-0.15045368671417236,-0.4037882387638092
1772905626741554700,7.1845546875,0.43195438385009766,-0.1386733055114746,-0.43824002146720886
1772905626751554800,7.194554931640625,0.47095298767089844,-0.11477929353713989,-0.4405190348625183
1772905626761554700,7.2045546875,0.4866800308227539,-0.07643210887908936,-0.3939957022666931
1772905626771554800,7.214554931640625,0.4669065475463867,-0.0259932279586792,-0.3180261552333832
1772905626781554700,7.2245546875,0.40781402587890625,0.02703160047531128,-0.24638386070728302
1772905626791554800,7.234554931640625,0.32102394104003906,0.07311731576919556,-0.20559757947921753
1772905626801554700,7.2445546875,0.2230396270751953,0.10510939359664917,-0.18364748358726501
1772905626811554800,7.254554931640625,0.1496105194091797,0.12540310621261597,-0.15881505608558655
1772905626821554700,7.2645546875,0.10781574249267578,0.13637250661849976,-0.1094566211104393
1772905626831554800,7.274554931640625,0.09518241882324219,0.1379876732826233,-0.028362654149532318
1772905626841554700,7.2845546875,0.10207366943359375,0.1302207112312317,0.07009166479110718
1772905626851554800,7.294554931640625,0.09256267547607422,0.1202351450920105,0.16195335984230042
1772905626861554700,7.3045546875,0.040375709533691406,0.11277365684509277,0.21851497888565063
1772905626871554800,7.314554931640625,-0.042148590087890625,0.11494487524032593,0.22070378065109253
1772905626881554700,7.3245546875,-0.1272745132446289,0.11712104082107544,0.18781216442584991
1772905626891554800,7.334554931640625,-0.18590450286865234,0.11209571361541748,0.14866431057453156
1772905626901554700,7.3445546875,-0.2104969024658203,0.10465526580810547,0.13433891534805298
1772905626911554800,7.354554931640625,-0.21750640869140625,0.08941817283630371,0.15919122099876404
1772905626921554700,7.3645546875,-0.2282581329345703,0.06616401672363281,0.20647378265857697
1772905626931554800,7.374554931640625,-0.24260234832763672,0.03724992275238037,0.25465574860572815
1772905626941554700,7.3845546875,-0.26998329162597656,0.005056202411651611,0.2749907970428467
1772905626951554800,7.394554931640625,-0.31749439239501953,-0.020842432975769043,0.2528771460056305
1772905626961554700,7.4045546875,-0.37806129455566406,-0.03804469108581543,0.2021152824163437
1772905626971554800,7.414554931640625,-0.43026256561279297,-0.03695887327194214,0.1345025599002838
1772905626991554800,7.434554931640625,-0.4622211456298828,-0.02770400047302246,0.007911697030067444
1772905627001554700,7.4445546875,-0.40875911712646484,-0.038595736026763916,-0.027442917227745056
1772905627011554800,7.454554931640625,-0.3068103790283203,-0.06150943040847778,-0.04429839551448822
1772905627021554700,7.4645546875,-0.18284034729003906,-0.09368640184402466,-0.0545998215675354
1772905627031554800,7.474554931640625,-0.060914039611816406,-0.12774157524108887,-0.07736000418663025
1772905627041554700,7.4845546875,0.04450798034667969,-0.15152901411056519,-0.10994119942188263
1772905627051554800,7.494554931640625,0.10724639892578125,-0.15784543752670288,-0.1375020295381546
1772905627061554700,7.5045546875,0.11090469360351562,-0.1490858793258667,-0.1616574227809906
1772905627071554800,7.514554931640625,0.07496833801269531,-0.12287801504135132,-0.189236581325531
1772905627081554700,7.5245546875,0.03084087371826172,-0.09841853380203247,-0.22710072994232178
1772905627091554800,7.534554931640625,0.007480621337890625,-0.0781635046005249,-0.25597137212753296
1772905627101554700,7.5445546875,0.026625633239746094,-0.06938034296035767,-0.24955132603645325
1772905627111554800,7.554554931640625,0.08842182159423828,-0.0625990629196167,-0.20313401520252228
1772905627121554700,7.5645546875,0.13789939880371094,-0.0555492639541626,-0.12643003463745117
1772905627131554800,7.574554931640625,0.11999130249023438,-0.03638660907745361,-0.05074864625930786
1772905627141554700,7.5845546875,0.03209209442138672,0.0020843148231506348,-0.005037851631641388
1772905627151554800,7.594554931640625,-0.07371044158935547,0.04085355997085571,0.005685329437255859
1772905627161554700,7.6045546875,-0.12250900268554688,0.06808429956436157,-0.002057291567325592
1772905627171554800,7.614554931640625,-0.08685016632080078,0.07910656929016113,-0.009372659027576447
1772905627181554700,7.6245546875,-0.00296783447265625,0.07162410020828247,-0.006796777248382568
1772905627191554800,7.634554931640625,0.059380531311035156,0.06007397174835205,-0.006136931478977203
1772905627201554700,7.6445546875,0.04246234893798828,0.054073989391326904,-0.009550727903842926
1772905627211554800,7.654554931640625,-0.04191780090332031,0.05841737985610962,0.009453758597373962
1772905627221554700,7.6645546875,-0.14830684661865234,0.07546156644821167,0.05335259065032005
1772905627231554800,7.674554931640625,-0.2167501449584961,0.09793704748153687,0.11021070182323456
1772905627241554700,7.6845546875,-0.23027324676513672,0.11786866188049316,0.15132063627243042
1772905627251554800,7.694554931640625,0.014140129089355469,-0.008970141410827637,-0.027823593467473984
1772905627261554700,7.7045546875,0.09737014770507812,-0.02757132053375244,-0.06294867396354675
1772905627271554800,7.714554931640625,0.22935771942138672,-0.06685137748718262,-0.12912461161613464
1772905627281554700,7.7245546875,0.40033721923828125,-0.12460285425186157,-0.21344667673110962
1772905627291554800,7.734554931640625,0.5728044509887695,-0.1931440830230713,-0.26755020022392273
1772905627301554700,7.7445546875,0.69305419921875,-0.24476146697998047,-0.25836288928985596
1772905627311554800,7.754554931640625,0.6893463134765625,-0.2528517246246338,-0.18197259306907654
1772905627321554700,7.7645546875,0.5373821258544922,-0.22969746589660645,-0.07665663212537766
1772905627331554800,7.774554931640625,0.2728109359741211,-0.18327414989471436,0.004298402927815914
1772905627341554700,7.7845546875,-0.012965202331542969,-0.12101978063583374,0.017631888389587402
1772905627351554800,7.794554931640625,-0.20152568817138672,-0.06874364614486694,-0.01592787355184555
1772905627361554700,7.8045546875,-0.2087106704711914,-0.04311811923980713,-0.055699992924928665
1772905627371554800,7.814554931640625,-0.041039466857910156,-0.05093812942504883,-0.06889017671346664
1772905627381554700,7.8245546875,0.1867685317993164,-0.06868487596511841,-0.06910686939954758
1772905627391554800,7.834554931640625,0.33649539947509766,-0.08321434259414673,-0.0881614238023758
1772905627401554700,7.8445546875,0.3415203094482422,-0.09937912225723267,-0.11807237565517426
1772905627411554800,7.854554931640625,0.25096607208251953,-0.09837943315505981,-0.1377090960741043
1772905627421554700,7.8645546875,0.1543731689453125,-0.0849640965461731,-0.09387820214033127
1772905627431554800,7.874554931640625,0.07706928253173828,-0.06498664617538452,-0.013173297978937626
1772905627441554700,7.8845546875,0.011943817138671875,-0.03733813762664795,0.03902198374271393
1772905627451554800,7.894554931640625,-0.02143573760986328,-0.022545814514160156,0.03923027589917183
1772905627461554700,7.9045546875,0.006487846374511719,-0.015012145042419434,-0.008517500013113022
1772905627471554800,7.914554931640625,0.08322715759277344,-0.006035327911376953,-0.09425860643386841
1772905627481554700,7.9245546875,0.1742868423461914,-0.00588536262512207,-0.18934816122055054
1772905627491554800,7.934554931640625,0.25298213958740234,-0.012748122215270996,-0.2672208845615387
1772905627501554700,7.9445546875,0.31746673583984375,-0.018895864486694336,-0.3099648952484131
1772905627511554800,7.954554931640625,0.3718910217285156,-0.031185030937194824,-0.30204325914382935
1772905627531554800,7.974554931640625,0.3764371871948242,-0.028856992721557617,-0.147853285074234
1772905627541554700,7.9845546875,0.3115530014038086,-0.009182214736938477,-0.08110170066356659
1772905627551554800,7.994554931640625,0.22543716430664062,0.008896231651306152,-0.04535563662648201
1772905627561554700,8.0045546875,0.15192508697509766,0.029679298400878906,-0.0625687763094902
1772905627571554800,8.014554931640625,0.13669681549072266,0.04030442237854004,-0.09532338380813599
1772905627581554700,8.0245546875,0.2003030776977539,0.0260392427444458,-0.11944571882486343
1772905627591554800,8.034554931640624,0.32735538482666016,-0.004782676696777344,-0.10716930031776428
1772905627601554700,8.0445546875,0.45679664611816406,-0.03829348087310791,-0.061363741755485535
1772905627611554800,8.054554931640626,0.4976491928100586,-0.06253987550735474,-0.02275284379720688
1772905627621554700,8.0645546875,0.4020395278930664,-0.06942421197891235,-0.024833690375089645
1772905627631554800,8.074554931640625,0.23699569702148438,-0.05953359603881836,-0.07511462271213531
1772905627641554700,8.0845546875,0.11728477478027344,-0.04965615272521973,-0.15381167829036713
1772905627651554800,8.094554931640625,0.12446784973144531,-0.05444300174713135,-0.22323712706565857
1772905627661554700,8.1045546875,0.23699092864990234,-0.07328861951828003,-0.27799752354621887
1772905627671554800,8.114554931640624,0.3710641860961914,-0.10442262887954712,-0.3163192570209503
1772905627681554700,8.1245546875,0.4550151824951172,-0.13524317741394043,-0.3282809555530548
1772905627691554800,8.134554931640626,0.46235084533691406,-0.14960598945617676,-0.28996819257736206
1772905627701554700,8.1445546875,0.3857383728027344,-0.1424168348312378,-0.20617899298667908
1772905627711554800,8.154554931640625,0.24448013305664062,-0.12054979801177979,-0.11759200692176819
1772905627721554700,8.1645546875,0.08391380310058594,-0.0921277403831482,-0.0669986754655838
1772905627731554800,8.174554931640625,-0.033400535583496094,-0.06848639249801636,-0.07448236644268036
1772905627741554700,8.1845546875,-0.059737205505371094,-0.05173492431640625,-0.11757628619670868
1772905627751554800,8.194554931640624,0.02645587921142578,-0.04006481170654297,-0.16785532236099243
1772905627761554700,8.2045546875,0.1651611328125,-0.03317880630493164,-0.1918029636144638
1772905627771554800,8.214554931640626,0.2679576873779297,-0.031095385551452637,-0.17024990916252136
1772905627781554700,8.2245546875,0.3134489059448242,-0.03139984607696533,-0.11549112200737
1772905627791554800,8.234554931640625,0.33260250091552734,-0.033792734146118164,-0.038869697600603104
1772905627801554700,8.2445546875,0.34920692443847656,-0.034102678298950195,0.018579810857772827
1772905627811554800,8.254554931640625,0.3442678451538086,-0.031705379486083984,0.013471554964780807
1772905627821554700,8.2645546875,0.32511425018310547,-0.03680872917175293,-0.046068400144577026
1772905627831554800,8.274554931640624,0.3034067153930664,-0.03680574893951416,-0.13496187329292297
1772905627841554700,8.2845546875,0.2793111801147461,-0.036814093589782715,-0.21666593849658966
1772905627851554800,8.294554931640626,0.2624025344848633,-0.03952479362487793,-0.25496676564216614
1772905627861554700,8.3045546875,0.25267505645751953,-0.039646267890930176,-0.24570418894290924
1772905627871554800,8.314554931640625,0.2549114227294922,-0.04444253444671631,-0.19094757735729218
1772905627881554700,8.3245546875,0.26448822021484375,-0.05641734600067139,-0.10474464297294617
1772905627891554800,8.334554931640625,0.25475025177001953,-0.06630295515060425,-0.02334250882267952
1772905627901554700,8.3445546875,0.2044696807861328,-0.06599539518356323,0.024234168231487274
1772905627911554800,8.354554931640624,0.1230611801147461,-0.0612105131149292,0.02631821483373642
1772905627921554700,8.3645546875,0.058424949645996094,-0.05403494834899902,-0.009596720337867737
1772905627931554800,8.374554931640626,0.05363655090332031,-0.047156453132629395,-0.0553852804005146
1772905627941554700,8.3845546875,0.11110210418701172,-0.04715466499328613,-0.07963775098323822
1772905627951554800,8.394554931640625,0.18532371520996094,-0.04955756664276123,-0.08921301364898682
1772905627961554700,8.4045546875,0.22362804412841797,-0.051949501037597656,-0.08713776618242264
1772905627971554800,8.414554931640625,0.20926284790039062,-0.049568891525268555,-0.06318625062704086
1772905627981554700,8.4245546875,0.15435218811035156,-0.03759407997131348,-0.020098956301808357
1772905627991554800,8.434554931640625,0.09943866729736328,-0.018433451652526855,0.027783658355474472
1772905628001554700,8.4445546875,0.07086658477783203,-0.0016827583312988281,0.05891289561986923
1772905628011554800,8.454554931640626,0.07565498352050781,0.009982109069824219,0.046951454132795334
1772905628021554700,8.4645546875,0.10183525085449219,0.014770269393920898,-0.02519116923213005
1772905628031554800,8.474554931640625,0.15195560455322266,0.010288119316101074,-0.12845155596733093
1772905628041554700,8.4845546875,0.22617244720458984,0.0007162094116210938,-0.21672950685024261
1772905628051554800,8.494554931640625,0.29799461364746094,-0.009171128273010254,-0.2574348747730255
1772905628061554700,8.5045546875,0.33869457244873047,-0.01603686809539795,-0.23140482604503632
1772905628071554800,8.514554931640625,0.33614540100097656,-0.018126606941223145,-0.14969347417354584
1772905628081554700,8.5245546875,0.2881021499633789,-0.013030409812927246,-0.06140883266925812
1772905628091554800,8.534554931640624,0.20893573760986328,-0.005550980567932129,-0.021017787978053093
1772905628101554700,8.5445546875,0.14190387725830078,-0.00555574893951416,-0.050010181963443756
1772905628111554800,8.554554931640626,0.14908695220947266,-0.007953643798828125,-0.1293262094259262
1772905628121554700,8.5645546875,0.22809696197509766,-0.01753091812133789,-0.2226954996585846
1772905628131554800,8.574554931640625,0.32865428924560547,-0.029500961303710938,-0.29453399777412415
1772905628141554700,8.5845546875,0.4006357192993164,-0.04115629196166992,-0.3280407190322876
1772905628151554800,8.594554931640625,0.4031820297241211,-0.050734877586364746,-0.315759539604187
1772905628161554700,8.6045546875,0.33374595642089844,-0.05551576614379883,-0.26548177003860474
1772905628171554800,8.614554931640624,0.2261648178100586,-0.05790901184082031,-0.19335448741912842
1772905628181554700,8.6245546875,0.13773345947265625,-0.05790579319000244,-0.1284063160419464
1772905628191554800,8.634554931640626,0.09958076477050781,-0.05998075008392334,-0.07781700789928436
1772905628201554700,8.6445546875,0.12607097625732422,-0.05758047103881836,-0.0559580996632576
1772905628211554800,8.654554931640625,0.18368911743164062,-0.05038583278656006,-0.06283760815858841
1772905628221554700,8.6645546875,0.2484884262084961,-0.041106224060058594,-0.0816851407289505
1772905628231554800,8.674554931640625,0.29173851013183594,-0.03121316432952881,-0.08855891972780228
1772905628241554700,8.6845546875,0.3037147521972656,-0.026726126670837402,-0.057138193398714066
1772905628251554800,8.694554931640624,0.2917499542236328,-0.031816959381103516,0.002882596105337143
1772905628261554700,8.7045546875,0.24849700927734375,-0.03629648685455322,0.06992626190185547
1772905628271554800,8.714554931640626,0.16933155059814453,-0.03599143028259277,0.1201944500207901
1772905628281554700,8.7245546875,0.06622314453125,-0.029130101203918457,0.11788485944271088
1772905628291554800,8.734554931640625,-0.017726898193359375,-0.014453887939453125,0.06491520255804062
1772905628301554700,8.7445546875,-0.04181957244873047,-0.002476334571838379,-0.016486773267388344
1772905628311554800,8.754554931640625,-0.0036706924438476562,0.004715681076049805,-0.08588585257530212
1772905628321554700,8.7645546875,0.08475875854492188,-0.00007414817810058594,-0.11013155430555344
1772905628331554800,8.774554931640624,0.182769775390625,-0.009340524673461914,-0.09816110134124756
1772905628341554700,8.7845546875,0.24246883392333984,-0.026092052459716797,-0.07901886105537415
1772905628351554800,8.794554931640626,0.25922679901123047,-0.04254448413848877,-0.0670449286699295
1772905628361554700,8.8045546875,0.26162052154541016,-0.05451202392578125,-0.06464990228414536
1772905628371554800,8.814554931640625,0.2831697463989258,-0.06917911767959595,-0.06672859191894531
1772905628381554700,8.8245546875,0.32387733459472656,-0.07875937223434448,-0.07152052968740463
1772905628391554800,8.834554931640625,0.35036754608154297,-0.07367223501205444,-0.0858849585056305
1772905628401554700,8.8445546875,0.34334468841552734,-0.059313297271728516,-0.10472738742828369
1772905628411554800,8.854554931640624,0.31716156005859375,-0.04045999050140381,-0.12149430811405182
1772905628421554700,8.8645546875,0.29337406158447266,-0.02369534969329834,-0.1259707361459732
1772905628431554800,8.874554931640626,0.27437877655029297,-0.0141068696975708,-0.108893483877182
1772905628441554700,8.8845546875,0.28410816192626953,-0.021050572395324707,-0.05835755914449692
1772905628451554800,8.894554931640625,0.3512992858886719,-0.04468393325805664,0.016163639724254608
1772905628461554700,8.9045546875,0.449462890625,-0.08029156923294067,0.10265226662158966
1772905628471554800,8.914554931640625,0.5069208145141602,-0.10663074254989624,0.15024074912071228
1772905628481554700,8.9245546875,0.4734039306640625,-0.12100827693939209,0.11942055821418762
1772905628491554800,8.934554931640625,0.3920011520385742,-0.1281980276107788,0.026055995374917984
1772905628501554700,8.9445546875,0.3153867721557617,-0.1231069564819336,-0.0768933892250061
1772905628511554800,8.954554931640626,0.26271820068359375,-0.11322444677352905,-0.14153626561164856
1772905628521554700,8.9645546875,0.20525264739990234,-0.09855419397354126,-0.15351465344429016
1772905628531554800,8.974554931640625,0.12624263763427734,-0.08419209718704224,-0.12239988148212433
1772905628541554700,8.9845546875,0.047234535217285156,-0.07910126447677612,-0.05296645686030388
1772905628551554800,8.994554931640625,0.004138946533203125,-0.07431846857070923,0.026051044464111328
1772905628561554700,9.0045546875,0.008925437927246094,-0.07161706686019897,0.06914426386356354
1772905628571554800,9.014554931640625,0.04483985900878906,-0.06683892011642456,0.04759439826011658
1772905628581554700,9.0245546875,0.10708427429199219,-0.061837613582611084,-0.017037903890013695
1772905628591554800,9.034554931640624,0.1692361831665039,-0.04987442493438721,-0.06717570871114731
1772905628601554700,9.0445546875,0.19799327850341797,-0.03551280498504639,-0.06239563971757889
1772905628611554800,9.054554931640626,0.18617630004882812,-0.01635444164276123,-0.016597582027316093
1772905628621554700,9.0645546875,0.1478710174560547,-0.001975417137145996,0.031500931829214096
1772905628631554800,9.074554931640625,0.12392807006835938,0.002822399139404297,0.050652023404836655
1772905628641554700,9.0845546875,0.16223526000976562,-0.0046683549880981445,0.04107959195971489
1772905628651554800,9.094554931640625,0.25321483612060547,-0.019347548484802246,0.02906648814678192
1772905628661554700,9.1045546875,0.32982444763183594,-0.036414384841918945,0.019489236176013947
1772905628671554800,9.114554931640624,0.3609504699707031,-0.055880188941955566,0.024275746196508408
1772905628681554700,9.1245546875,0.3633441925048828,-0.0705614686012268,0.050303228199481964
1772905628691554800,9.134554931640626,0.3489856719970703,-0.07805424928665161,0.07424601912498474
1772905628701554700,9.1445546875,0.3298358917236328,-0.07835930585861206,0.05509178712964058
1772905628711554800,9.154554931640625,0.3250465393066406,-0.08074837923049927,-0.01944347657263279
1772905628721554700,9.1645546875,0.3539257049560547,-0.08584529161453247,-0.11071982234716415
1772905628731554800,9.174554931640625,0.40421009063720703,-0.0909377932548523,-0.16817231476306915
1772905628741554700,9.1845546875,0.4520893096923828,-0.08854502439498901,-0.1613113284111023
1772905628751554800,9.194554931640624,0.4663267135620117,-0.07417994737625122,-0.09906674921512604
1772905628761554700,9.2045546875,0.4158964157104492,-0.04803109169006348,-0.022762298583984375
1772905628771554800,9.214554931640626,0.27927112579345703,-0.016913294792175293,0.02240937203168869
1772905628781554700,9.2245546875,0.09970855712890625,0.013964414596557617,0.027209848165512085
1772905628791554800,9.234554931640625,-0.03931617736816406,0.03760325908660889,0.0008735544979572296
1772905628801554700,9.2445546875,-0.07059860229492188,0.04927337169647217,-0.023055672645568848
1772905628811554800,9.254554931640625,0.0034704208374023438,0.051987528800964355,-0.0230620838701725
1772905628821554700,9.2645546875,0.12314414978027344,0.056470394134521484,0.0008745230734348297
1772905628831554800,9.274554931640624,0.2019977569580078,0.060973167419433594,0.04137815907597542
1772905628841554700,9.2845546875,0.19242191314697266,0.0729447603225708,0.07937715947628021
1772905628861554700,9.3045546875,0.0725555419921875,0.1181333065032959,0.09584184736013412
1772905628871554800,9.314554931640625,0.0939493179321289,0.12292134761810303,0.09074795991182327
1772905628881554700,9.3245546875,0.18477439880371094,0.11543834209442139,0.09761707484722137
1772905628891554800,9.334554931640625,0.2947540283203125,0.09389019012451172,0.11406534910202026
1772905628901554700,9.3445546875,0.3688182830810547,0.0699453353881836,0.12093175947666168
1772905628911554800,9.354554931640624,0.39499759674072266,0.0433124303817749,0.09188888221979141
1772905628931554800,9.374554931640626,0.43549346923828125,-0.0018764734268188477,-0.07872751355171204
1772905628941554700,9.3845546875,0.4619598388671875,-0.018730759620666504,-0.179582417011261
1772905628951554800,9.394554931640625,0.4595651626586914,-0.023836493492126465,-0.24901114404201508
1772905628961554700,9.4045546875,0.39986133575439453,-0.01395571231842041,-0.27086615562438965
1772905628971554800,9.414554931640625,0.3042469024658203,-0.006780147552490234,-0.22298331558704376
1772905628981554700,9.4245546875,0.21581077575683594,-0.016355156898498535,-0.12243467569351196
1772905628991554800,9.434554931640625,0.16329574584960938,-0.04268968105316162,-0.017086211591959
1772905629011554800,9.454554931640626,0.1947317123413086,-0.12169390916824341,-0.03561745584011078
1772905629021554700,9.4645546875,0.2595329284667969,-0.15281498432159424,-0.18134665489196777
1772905629031554800,9.474554931640625,0.3339061737060547,-0.1719609498977661,-0.32709014415740967
1772905629041554700,9.4845546875,0.4082775115966797,-0.1767505407333374,-0.4009964168071747
1772905629051554800,9.494554931640625,0.4347667694091797,-0.16477930545806885,-0.37914320826530457
1772905629061554700,9.5045546875,0.3749113082885742,-0.13365542888641357,-0.30222129821777344
1772905629071554800,9.514554931640625,0.25998783111572266,-0.09743624925613403,-0.22081723809242249
1772905629081554700,9.5245546875,0.15703678131103516,-0.06900769472122192,-0.16304704546928406
1772905629091554800,9.534554931640624,0.10928153991699219,-0.049858927726745605,-0.13191518187522888
1772905629101554700,9.5445546875,0.11182785034179688,-0.028438210487365723,-0.10288331657648087
1772905629111554800,9.554554931640626,0.14789485931396484,-0.000011563301086425781,-0.05229668319225311
1772905629121554700,9.5645546875,0.2053546905517578,0.03111851215362549,0.024318017065525055
1772905629131554800,9.574554931640625,0.27733516693115234,0.0625460147857666,0.10333628952503204
1772905629141554700,9.5845546875,0.3253755569458008,0.09366440773010254,0.14132481813430786
1772905629151554800,9.594554931640625,0.3229856491088867,0.1196819543838501,0.12487266957759857
1772905629161554700,9.6045546875,0.30132198333740234,0.13914966583251953,0.08386583626270294
1772905629171554800,9.614554931640624,0.27738380432128906,0.15588760375976562,0.07417058944702148
1772905629181554700,9.6245546875,0.22695350646972656,0.1750396490097046,0.09811270236968994
1772905629191554800,9.634554931640626,0.1334228515625,0.19689571857452393,0.13850586116313934
1772905629201554700,9.6445546875,0.018502235412597656,0.2136596441268921,0.15765276551246643
1772905629211554800,9.654554931640625,-0.041351318359375,0.21605801582336426,0.14328335225582123
1772905629221554700,9.6645546875,0.025682449340820312,0.20679187774658203,0.11215247213840485
1772905629231554800,9.674554931640625,0.20285415649414062,0.19003069400787354,0.06666651368141174
1772905629241554700,9.6845546875,0.4063606262207031,0.17805981636047363,0.006818145513534546
1772905629251554800,9.694554931640624,0.5595941543579102,0.16161072254180908,-0.053025051951408386
1772905629261554700,9.7045546875,0.5931072235107422,0.15203189849853516,-0.08655297756195068
1772905629271554800,9.714554931640626,0.5069150924682617,0.15213322639465332,-0.07936348021030426
1772905629281554700,9.7245546875,0.1763591766357422,0.17138290405273438,0.09061555564403534
1772905629291554800,9.734554931640625,0.042130470275878906,0.17647647857666016,0.2076246738433838
1772905629301554700,9.7445546875,-0.04181385040283203,0.17408239841461182,0.29142969846725464
1772905629311554800,9.754554931640625,-0.0802755355834961,0.16928863525390625,0.30849215388298035
1772905629321554700,9.7645546875,-0.09000396728515625,0.16480863094329834,0.25342753529548645
1772905629331554800,9.774554931640624,-0.06861114501953125,0.16033494472503662,0.16037018597126007
1772905629341554700,9.7845546875,-0.016091346740722656,0.16064155101776123,0.08135019987821579
1772905629351554800,9.794554931640626,0.055581092834472656,0.1729142665863037,0.057103317230939865
1772905629361554700,9.8045546875,0.09612464904785156,0.19476866722106934,0.09780319780111313
1772905629371554800,9.814554931640625,0.052875518798828125,0.23786723613739014,0.1694464385509491
1772905629381554700,9.8245546875,-0.05261802673339844,0.28127241134643555,0.2553185224533081
1772905629391554800,9.834554931640625,-0.15093231201171875,0.31030118465423584,0.3319283723831177
1772905629401554700,9.8445546875,-0.1892404556274414,0.3106039762496948,0.3869894742965698
1772905629411554800,9.854554931640624,-0.40378665924072266,0.16091656684875488,0.36869436502456665
1772905629421554700,9.8645546875,-0.31105518341064453,0.1252964735031128,0.37389492988586426
1772905629431554800,9.874554931640626,-0.1947336196899414,0.09986329078674316,0.38201475143432617
1772905629441554700,9.8845546875,-0.10709095001220703,0.09183430671691895,0.40512871742248535
1772905629451554800,9.894554931640625,-0.05013465881347656,0.09642314910888672,0.445605993270874
1772905629461554700,9.9045546875,-0.06188774108886719,0.11120378971099854,0.4817091226577759
1772905629471554800,9.914554931640625,-0.11824989318847656,0.11217010021209717,0.48199009895324707
1772905629481554700,9.9245546875,-0.1353445053100586,0.08967781066894531,0.43649083375930786
1772905629491554800,9.934554931640625,-0.053241729736328125,0.06043291091918945,0.36641764640808105
1772905629501554700,9.9445546875,0.10179710388183594,0.03398478031158447,0.2882803678512573
1772905629511554800,9.954554931640626,0.26517581939697266,0.012710213661193848,0.23064373433589935
1772905629521554700,9.9645546875,0.36257362365722656,-0.0010203123092651367,0.22932487726211548
1772905629531554800,9.974554931640625,0.3458385467529297,-0.007252931594848633,0.28667813539505005
1772905629541554700,9.9845546875,0.2289724349975586,-0.008441329002380371,0.39794495701789856
1772905629551554800,9.994554931640625,0.08825969696044922,0.007333040237426758,0.5177414417266846
1772905629561554700,10.0045546875,0.014467239379882812,0.04003453254699707,0.5959550142288208
1772905629571554800,10.014554931640625,0.031455039978027344,0.07049286365509033,0.594473123550415
1772905629581554700,10.0245546875,0.09851264953613281,0.10107958316802979,0.5206712484359741
1772905629591554800,10.034554931640624,0.16463756561279297,0.129358172416687,0.4034392535686493
1772905629601554700,10.0445546875,0.18065834045410156,0.1600499153137207,0.3075404763221741
1772905629611554800,10.054554931640626,0.12001609802246094,0.20504307746887207,0.283332884311676
1772905629631554800,10.074554931640625,-0.1306009292602539,0.2848982810974121,0.44521114230155945
1772905629641554700,10.0845546875,-0.1764507293701172,0.2980380058288574,0.576078474521637
1772905629651554800,10.094554931640625,-0.11150646209716797,0.30836737155914307,0.6873940229415894
1772905629661554700,10.1045546875,0.004509925842285156,0.32776713371276855,0.7551107406616211
1772905629671554800,10.114554931640624,0.09500503540039062,0.35135650634765625,0.7672109007835388
1772905629681554700,10.1245546875,0.16236114501953125,0.36707639694213867,0.7260985374450684
1772905629691554800,10.134554931640626,0.21925926208496094,0.3700697422027588,0.6773055195808411
1772905629701554700,10.1445546875,0.245391845703125,0.36268460750579834,0.656767725944519
1772905629711554800,10.154554931640625,0.2002105712890625,0.35687410831451416,0.652488112449646
1772905629721554700,10.1645546875,0.062160491943359375,0.35981976985931396,0.6380816698074341
1772905629731554800,10.174554931640625,-0.14011287689208984,0.3595517873764038,0.5847781300544739
1772905629741554700,10.1845546875,-0.3324317932128906,0.34409499168395996,0.4973757863044739
1772905629751554800,10.194554931640624,-0.42849254608154297,0.3086620569229126,0.39749228954315186
1772905629761554700,10.2045546875,-0.38490772247314453,0.2604573965072632,0.3259428143501282
1772905629771554800,10.214554931640626,-0.20641803741455078,0.2019333839416504,0.32356375455856323
1772905629781554700,10.2245546875,0.02315521240234375,0.14515864849090576,0.3737162947654724
1772905629791554800,10.234554931640625,0.18167591094970703,0.09743654727935791,0.4070565104484558
1772905629801554700,10.2445546875,0.20686912536621094,0.06129419803619385,0.3901525139808655
1772905629811554800,10.254554931640625,0.09874820709228516,0.029682517051696777,0.3303225636482239
1772905629821554700,10.2645546875,-0.10674095153808594,-0.0020377635955810547,0.23494595289230347
1772905629831554800,10.274554931640624,-0.3521442413330078,-0.03607034683227539,0.12342280149459839
1772905629841554700,10.2845546875,-0.5513782501220703,-0.06739044189453125,0.017546653747558594
1772905629851554800,10.294554931640626,-0.6687688827514648,-0.08136796951293945,-0.06571149826049805
1772905629861554700,10.3045546875,-0.6995820999145508,-0.08731567859649658,-0.10942268371582031
1772905629871554800,10.314554931640625,-0.6459903717041016,-0.09457015991210938,-0.09669661521911621
1772905629881554700,10.3245546875,-0.5533437728881836,-0.09096324443817139,-0.0465623140335083
1772905629891554800,10.334554931640625,-0.48627376556396484,-0.07155454158782959,0.00520634651184082
1772905629901554700,10.3445546875,-0.4687328338623047,-0.03865242004394531,0.030011415481567383
1772905629911554800,10.354554931640624,-0.4791288375854492,0.0004944801330566406,0.015980839729309082
1772905629921554700,10.3645546875,-0.4694700241088867,0.04101276397705078,-0.02724158763885498
1772905629931554800,10.374554931640626,-0.4348440170288086,0.08039093017578125,-0.08285576105117798
1772905629941554700,10.3845546875,-0.3656044006347656,0.1160815954208374,-0.10784274339675903
1772905629951554800,10.394554931640625,-0.2809162139892578,0.15748107433319092,-0.07364106178283691
1772905629961554700,10.4045546875,-0.2170705795288086,0.21157443523406982,0.00999295711517334
1772905629971554800,10.414554931640625,-0.21511363983154297,0.2685800790786743,0.1117401123046875
1772905629981554700,10.4245546875,-0.2631721496582031,0.3211156129837036,0.19547247886657715
1772905629991554800,10.434554931640625,-0.3203849792480469,0.3570455312728882,0.23702073097229004
1772905630001554700,10.4445546875,-0.3290081024169922,0.3787503242492676,0.24334585666656494
1772905630011554800,10.454554931640626,-0.25769805908203125,0.3887183666229248,0.22860729694366455
1772905630021554700,10.4645546875,-0.11834239959716797,0.3869600296020508,0.21176016330718994
1772905630031554800,10.474554931640625,0.053099632263183594,0.37484538555145264,0.20470035076141357
1772905630041554700,10.4845546875,0.2230234146118164,0.3497871160507202,0.2219219207763672
1772905630051554800,10.494554931640625,0.33388805389404297,0.32597529888153076,0.2683980464935303
1772905630061554700,10.5045546875,0.32578086853027344,0.3056471347808838,0.30593419075012207
1772905630071554800,10.514554931640625,0.20341110229492188,0.2862696647644043,0.3072798252105713
1772905630081554700,10.5245546875,0.03843975067138672,0.265328049659729,0.2621912956237793
1772905630091554800,10.534554931640624,-0.09522628784179688,0.24031293392181396,0.18970346450805664
1772905630101554700,10.5445546875,-0.15731048583984375,0.21343016624450684,0.10411667823791504
1772905630111554800,10.554554931640626,-0.12667369842529297,0.17977356910705566,0.02220606803894043
1772905630121554700,10.5645546875,-0.02518939971923828,0.14652550220489502,-0.03683769702911377
1772905630131554800,10.574554931640625,0.11198234558105469,0.11714351177215576,-0.06352448463439941
1772905630141554700,10.5845546875,0.23402690887451172,0.09667050838470459,-0.06521880626678467
1772905630151554800,10.594554931640625,0.29529380798339844,0.09493076801300049,-0.054029226303100586
1772905630161554700,10.6045546875,0.2813835144042969,0.10976266860961914,-0.04196882247924805
1772905630171554800,10.614554931640624,0.2163076400756836,0.1342003345489502,-0.028031468391418457
1772905630181554700,10.6245546875,0.16485309600830078,0.1612619161605835,0.01965928077697754
1772905630191554800,10.634554931640626,0.17987346649169922,0.1911228895187378,0.11802971363067627
1772905630201554700,10.6445546875,0.27589893341064453,0.21434533596038818,0.24081313610076904
1772905630211554800,10.654554931640625,0.4027690887451172,0.2310161590576172,0.3304750919342041
1772905630221554700,10.6645546875,0.4887247085571289,0.23879992961883545,0.36057567596435547
1772905630231554800,10.674554931640625,0.49693965911865234,0.24491119384765625,0.34777116775512695
1772905630241554700,10.6845546875,0.40396785736083984,0.242173433303833,0.33265554904937744
1772905630251554800,10.694554931640624,0.24597644805908203,0.23536717891693115,0.3318589925765991
1772905630261554700,10.7045546875,0.0878610610961914,0.21490538120269775,0.34761619567871094
1772905630271554800,10.714554931640626,-0.02467632293701172,0.17599666118621826,0.37017273902893066
1772905630281554700,10.7245546875,-0.08904838562011719,0.12822401523590088,0.36109066009521484
1772905630291554800,10.734554931640625,-0.14812088012695312,0.08836066722869873,0.27726995944976807
1772905630301554700,10.7445546875,-0.23507213592529297,0.056424617767333984,0.12365543842315674
1772905630311554800,10.754554931640625,-0.3566246032714844,0.0396122932434082,-0.06352877616882324
1772905630321554700,10.7645546875,-0.4956541061401367,0.030730366706848145,-0.21928632259368896
1772905630331554800,10.774554931640624,-0.6377143859863281,0.020171165466308594,-0.30498069524765015
1772905630341554700,10.7845546875,-0.7707729339599609,0.007891416549682617,-0.33468735218048096
1772905630351554800,10.794554931640626,-0.8732900619506836,-0.008559823036193848,-0.3322659134864807
1772905630361554700,10.8045546875,-0.9166259765625,-0.03164350986480713,-0.3191758990287781
1772905630371554800,10.814554931640625,-0.896148681640625,-0.056655287742614746,-0.30490779876708984
1772905630381554700,10.8245546875,-0.8455839157104492,-0.07651317119598389,-0.3061751127243042
1772905630391554800,10.834554931640625,-0.8059062957763672,-0.0841367244720459,-0.33259886503219604
1772905630401554700,10.8445546875,-0.7942361831665039,-0.0844038724899292,-0.3843395709991455
1772905630411554800,10.854554931640624,-0.8108272552490234,-0.07019603252410889,-0.45686233043670654
1772905630421554700,10.8645546875,-0.8387460708618164,-0.048726677894592285,-0.5289058685302734
1772905630431554800,10.874554931640626,-0.8296413421630859,-0.03435814380645752,-0.574393630027771
1772905630441554700,10.8845546875,-0.7280197143554688,-0.03662919998168945,-0.5598766803741455
1772905630451554800,10.894554931640625,-0.5047578811645508,-0.05066657066345215,-0.49001073837280273
1772905630461554700,10.9045546875,-0.2026081085205078,-0.06925976276397705,-0.41972649097442627
1772905630471554800,10.914554931640625,0.0805501937866211,-0.07803463935852051,-0.39916229248046875
1772905630481554700,10.9245546875,0.23239707946777344,-0.06739938259124756,-0.4473520517349243
1772905630491554800,10.934554931640625,0.21474647521972656,-0.032555341720581055,-0.5426772832870483
1772905630501554700,10.9445546875,0.07315731048583984,0.016919255256652832,-0.6348376870155334
1772905630511554800,10.954554931640626,-0.1062774658203125,0.06664526462554932,-0.683116614818573
1772905630521554700,10.9645546875,-0.2281789779663086,0.09983670711517334,-0.6778718829154968
1772905630531554800,10.974554931640625,-0.2354421615600586,0.11166191101074219,-0.6381228566169739
1772905630541554700,10.9845546875,-0.14998149871826172,0.09966397285461426,-0.5973168015480042
1772905630551554800,10.994554931640625,-0.029723167419433594,0.08298540115356445,-0.5912615656852722
1772905630561554700,11.0045546875,0.06970596313476562,0.06889772415161133,-0.6318197846412659
1772905630571554800,11.014554931640625,0.1213531494140625,0.05272233486175537,-0.699715793132782
1772905630581554700,11.0245546875,0.12223625183105469,0.041730642318725586,-0.7492920160293579
1772905630591554800,11.034554931640624,0.07665538787841797,0.043157100677490234,-0.746793270111084
1772905630601554700,11.0445546875,-0.0037841796875,0.047434091567993164,-0.7015157341957092
1772905630611554800,11.054554931640626,-0.07067108154296875,0.04959428310394287,-0.6611097455024719
1772905630621554700,11.0645546875,-0.08945846557617188,0.04176461696624756,-0.6614144444465637
1772905630631554800,11.074554931640625,-0.050889015197753906,0.02393472194671631,-0.695366382598877
1772905630641554700,11.0845546875,0.05915260314941406,-0.006280660629272461,-0.7345222234725952
1772905630651554800,11.094554931640625,0.23815155029296875,-0.04175126552581787,-0.7624549865722656
1772905630661554700,11.1045546875,0.4262733459472656,-0.0753641128540039,-0.772310733795166
1772905630671554800,11.114554931640624,0.559016227722168,-0.10477328300476074,-0.7692242860794067
1772905630681554700,11.1245546875,0.6126871109008789,-0.12760579586029053,-0.7464200258255005
1772905630691554800,11.134554931640626,0.6091547012329102,-0.14383971691131592,-0.7019853591918945
1772905630701554700,11.1445546875,0.5775079727172852,-0.15579843521118164,-0.6340377330780029
1772905630711554800,11.154554931640625,0.5220766067504883,-0.16564035415649414,-0.5502083897590637
1772905630721554700,11.1645546875,0.4227762222290039,-0.17028069496154785,-0.4627484083175659
1772905630731554800,11.174554931640625,0.26568031311035156,-0.1697092056274414,-0.3837069571018219
1772905630741554700,11.1845546875,0.094329833984375,-0.17590618133544922,-0.3058285117149353
1772905630751554800,11.194554931640624,-0.028540611267089844,-0.19368767738342285,-0.23377561569213867
1772905630761554700,11.2045546875,-0.07845401763916016,-0.23028361797332764,-0.17701935768127441
1772905630771554800,11.214554931640626,-0.07879352569580078,-0.27617764472961426,-0.1498260498046875
1772905630781554700,11.2245546875,-0.05778980255126953,-0.3218611478805542,-0.16162467002868652
1772905630791554800,11.234554931640625,-0.024684906005859375,-0.3650137186050415,-0.188254714012146
1772905630801554700,11.2445546875,0.013375282287597656,-0.4056830406188965,-0.19595670700073242
1772905630811554800,11.254554931640625,0.010760307312011719,-0.43664586544036865,-0.1821618676185608
1772905630821554700,11.2645546875,-0.07341861724853516,-0.45779645442962646,-0.1707732379436493
1772905630831554800,11.274554931640624,-0.2250223159790039,-0.47620248794555664,-0.17626479268074036
1772905630841554700,11.2845546875,-0.3676910400390625,-0.49174296855926514,-0.19166350364685059
1772905630851554800,11.294554931640626,-0.43229103088378906,-0.5162633657455444,-0.19805151224136353
1772905630861554700,11.3045546875,-0.40239715576171875,-0.5568153858184814,-0.18127012252807617
1772905630871554800,11.314554931640625,-0.3238668441772461,-0.608474850654602,-0.13910484313964844
1772905630881554700,11.3245546875,-0.2784690856933594,-0.6567310094833374,-0.10287803411483765
1772905630891554800,11.334554931640625,-0.3142986297607422,-0.7014238834381104,-0.1111333966255188
1772905630901554700,11.3445546875,-0.40984439849853516,-0.7400257587432861,-0.1665027141571045
1772905630911554800,11.354554931640624,-0.5076637268066406,-0.7772588729858398,-0.247595876455307
1772905630921554700,11.3645546875,-0.5622920989990234,-0.8106774091720581,-0.3185119330883026
1772905630931554800,11.374554931640626,-0.5569829940795898,-0.8330703973770142,-0.3695293664932251
1772905630941554700,11.3845546875,-0.5084733963012695,-0.84922194480896,-0.39801231026649475
1772905630951554800,11.394554931640625,-0.44545555114746094,-0.8543579578399658,-0.4037132263183594
1772905630961554700,11.4045546875,-0.3942270278930664,-0.8461134433746338,-0.4008156657218933
1772905630971554800,11.414554931640625,-0.3427600860595703,-0.8364983797073364,-0.40358492732048035
1772905630981554700,11.4245546875,-0.26459789276123047,-0.8351432681083679,-0.40716081857681274
1772905630991554800,11.434554931640625,-0.16198158264160156,-0.8301512598991394,-0.40185070037841797
1772905631001554700,11.4445546875,-0.044216156005859375,-0.8263893723487854,-0.37310072779655457
1772905631011554800,11.454554931640626,0.06273651123046875,-0.8191412091255188,-0.31590479612350464
1772905631021554700,11.4645546875,0.1257152557373047,-0.8036841750144958,-0.24684874713420868
1772905631031554800,11.474554931640625,0.1306591033935547,-0.7824636101722717,-0.18020883202552795
1772905631041554700,11.4845546875,0.07781028747558594,-0.7603077292442322,-0.12313273549079895
1772905631051554800,11.494554931640625,-0.03981208801269531,-0.7468299865722656,-0.06598076224327087
1772905631061554700,11.5045546875,-0.119110107421875,-0.7372812032699585,-0.003796815872192383
1772905631071554800,11.514554931640625,-0.061903953552246094,-0.7101515531539917,0.046950191259384155
1772905631081554700,11.5245546875,0.09805965423583984,-0.6702691316604614,0.07943210005760193
1772905631091554800,11.534554931640624,0.28604793548583984,-0.6368346214294434,0.09397122263908386
1772905631101554700,11.5445546875,0.44385623931884766,-0.597944974899292,0.06205287575721741
1772905631111554800,11.554554931640626,0.5882339477539062,-0.5704572200775146,0.005314677953720093
1772905631121554700,11.5645546875,0.7032566070556641,-0.5568885803222656,-0.05231428146362305
1772905631131554800,11.574554931640625,0.7643909454345703,-0.5573855638504028,-0.11091697216033936
1772905631141554700,11.5845546875,0.7877388000488281,-0.5625250339508057,-0.18021489679813385
1772905631151554800,11.594554931640625,0.7941150665283203,-0.5700589418411255,-0.23410539329051971
1772905631161554700,11.6045546875,0.8258962631225586,-0.572951078414917,-0.2513890862464905
1772905631171554800,11.614554931640624,0.913640022277832,-0.5546019077301025,-0.23731465637683868
1772905631181554700,11.6245546875,1.0402727127075195,-0.5223586559295654,-0.20677323639392853
1772905631191554800,11.634554931640626,1.1458702087402344,-0.5003292560577393,-0.1650574803352356
1772905631201554700,11.6445546875,1.1826534271240234,-0.4862738847732544,-0.12453565001487732
1772905631211554800,11.654554931640625,1.1763286590576172,-0.477927565574646,-0.09503106772899628
1772905631221554700,11.6645546875,1.1614103317260742,-0.48017317056655884,-0.06946401298046112
1772905631231554800,11.674554931640625,1.1404199600219727,-0.5026463866233826,-0.04783149063587189
1772905631241554700,11.6845546875,1.1088857650756836,-0.5429940819740295,-0.025273218750953674
1772905631251554800,11.694554931640624,1.091233253479004,-0.5964668393135071,0.0077467262744903564
1772905631261554700,11.7045546875,1.1000022888183594,-0.648727297782898,0.0701562762260437
1772905631271554800,11.714554931640626,1.059133529663086,-0.6878165006637573,0.18844538927078247
1772905631281554700,11.7245546875,0.9428138732910156,-0.7185148000717163,0.3436281383037567
1772905631291554800,11.734554931640625,0.8281097412109375,-0.8030245900154114,0.535819411277771
1772905631301554700,11.7445546875,0.7896137237548828,-0.802399218082428,0.628604531288147
1772905631311554800,11.754554931640625,0.8132829666137695,-0.6662588715553284,0.5741286873817444
1772905631321554700,11.7645546875,0.8275728225708008,-0.6027840375900269,0.4897255003452301
1772905631331554800,11.774554931640624,0.7776679992675781,-0.6405783295631409,0.39935892820358276
1772905631341554700,11.7845546875,0.6733417510986328,-0.7100592851638794,0.2934802174568176
1772905631351554800,11.794554931640626,0.5243568420410156,-0.7823117971420288,0.18425992131233215
1772905631361554700,11.8045546875,0.35489368438720703,-0.8331752419471741,0.09129586815834045
1772905631371554800,11.814554931640625,0.18438720703125,-0.8432433605194092,0.055410295724868774
1772905631381554700,11.8245546875,-0.010790824890136719,-0.8194113969802856,0.09349137544631958
1772905631391554800,11.834554931640625,-0.24698448181152344,-0.7829676270484924,0.16261020302772522
1772905631401554700,11.8445546875,-0.5092172622680664,-0.7480993866920471,0.2150275707244873
1772905631411554800,11.854554931640624,-0.7344741821289062,-0.8008602261543274,0.2771015763282776
1772905631421554700,11.8645546875,-0.8166046142578125,-0.8501448631286621,0.2865041494369507
1772905631431554800,11.874554931640626,-0.6855049133300781,-0.7258439660072327,0.18087637424468994
1772905631441554700,11.8845546875,-0.3939638137817383,-0.6146047115325928,0.10136112570762634
1772905631451554800,11.894554931640625,-0.14087963104248047,-0.6145282983779907,0.11486032605171204
1772905631461554700,11.9045546875,-0.05102252960205078,-0.6298454999923706,0.14938923716545105
1772905631471554800,11.914554931640625,-0.11755657196044922,-0.6414738297462463,0.16170349717140198
1772905631481554700,11.9245546875,-0.2594919204711914,-0.6471956372261047,0.15411946177482605
1772905631491554800,11.934554931640625,-0.3839750289916992,-0.6376299858093262,0.13621389865875244
1772905631501554700,11.9445546875,-0.4414024353027344,-0.6176319718360901,0.11047393083572388
1772905631511554800,11.954554931640626,-0.48046398162841797,-0.5776277780532837,0.05082479119300842
1772905631521554700,11.9645546875,-0.5738201141357422,-0.5344608426094055,-0.04711359739303589
1772905631531554800,11.974554931640625,-0.7383995056152344,-0.545777440071106,-0.14696800708770752
1772905631541554700,11.9845546875,-0.9307126998901367,-0.6309598684310913,-0.2171466052532196
1772905631551554800,11.994554931640625,-1.0355749130249023,-0.5819492340087891,-0.3266561031341553
1772905631561554700,12.0045546875,-0.9522027969360352,-0.37501537799835205,-0.4179116487503052
1772905631571554800,12.014554931640625,-0.7498102188110352,-0.18031397461891174,-0.39503568410873413
1772905631581554700,12.0245546875,-0.5766372680664062,-0.10568892955780029,-0.274736613035202
1772905631591554800,12.034554931640624,-0.48042869567871094,-0.09855672717094421,-0.18871939182281494
1772905631601554700,12.0445546875,-0.42522525787353516,-0.04660654067993164,-0.2519983947277069
1772905631611554800,12.054554931640626,-0.36316967010498047,0.0474509596824646,-0.4312455654144287
1772905631621554700,12.0645546875,-0.27030372619628906,0.10917100310325623,-0.604648232460022
1772905631631554800,12.074554931640625,-0.18050765991210938,0.13610243797302246,-0.7318612337112427
1772905631641554700,12.0845546875,-0.16798973083496094,0.173753023147583,-0.8347309827804565
1772905631651554800,12.094554931640625,-0.25891685485839844,0.23646411299705505,-0.9299229383468628
1772905631661554700,12.1045546875,-0.3885488510131836,0.3169451653957367,-1.0146726369857788
1772905631671554800,12.114554931640624,-0.47313690185546875,0.4110400974750519,-1.0671608448028564
1772905631681554700,12.1245546875,-0.4817237854003906,0.501055121421814,-1.0824211835861206
1772905631691554800,12.134554931640626,-0.4288978576660156,0.5749314427375793,-1.077075481414795
1772905631701554700,12.1445546875,-0.34360599517822266,0.6302409172058105,-1.0509910583496094
1772905631711554800,12.154554931640625,-0.29074954986572266,0.6813725829124451,-1.0112254619598389
1772905631721554700,12.1645546875,-0.3162813186645508,0.7330930233001709,-0.9720501899719238
1772905631731554800,12.174554931640625,-0.3970928192138672,0.7756826281547546,-0.9620969295501709
1772905631741554700,12.1845546875,-0.47444629669189453,0.813720166683197,-1.005239725112915
1772905631751554800,12.194554931640624,-0.5231103897094727,0.8446905612945557,-1.0969126224517822
1772905631761554700,12.2045546875,-0.5367193222045898,0.8781719207763672,-1.206139087677002
1772905631771554800,12.214554931640626,-0.5228567123413086,0.9037930369377136,-1.2921934127807617
1772905631781554700,12.2245546875,-0.4671897888183594,0.9055015444755554,-1.3117727041244507
1772905631791554800,12.234554931640625,-0.3600587844848633,0.8855977058410645,-1.2550313472747803
1772905631801554700,12.2445546875,-0.23952770233154297,0.8393161296844482,-1.12415611743927
1772905631811554800,12.254554931640625,-0.15546035766601562,0.7835509777069092,-0.9621285796165466
1772905631821554700,12.2645546875,-0.15746116638183594,0.7304948568344116,-0.8478996753692627
1772905631831554800,12.274554931640624,-0.2517509460449219,0.680429220199585,-0.8269559741020203
1772905631841554700,12.2845546875,-0.39172840118408203,0.6360917687416077,-0.8969943523406982
1772905631851554800,12.294554931640626,-0.5093536376953125,0.6026232242584229,-0.9935309290885925
1772905631861554700,12.3045546875,-0.560882568359375,0.5803639888763428,-1.0592707395553589
1772905631871554800,12.314554931640625,-0.5605392456054688,0.5721235871315002,-1.0609196424484253
1772905631881554700,12.3245546875,-0.5684566497802734,0.5712494254112244,-0.9892799854278564
1772905631891554800,12.334554931640625,-0.6448001861572266,0.5806178450584412,-0.8711772561073303
1772905631901554700,12.3445546875,-0.7922630310058594,0.5861552953720093,-0.7142572402954102
1772905631911554800,12.354554931640624,-0.9512529373168945,0.5999425053596497,-0.5260358452796936
1772905631921554700,12.3645546875,-1.0717763900756836,0.612435519695282,-0.32826370000839233
1772905631931554800,12.374554931640626,-1.1398134231567383,0.6260476112365723,-0.16897743940353394
1772905631941554700,12.3845546875,-1.165273666381836,0.6383566856384277,-0.07466599345207214
1772905631951554800,12.394554931640625,-1.1363754272460938,0.63969886302948,-0.06704984605312347
1772905631961554700,12.4045546875,-1.057816505432129,0.6419356465339661,-0.12961021065711975
1772905631971554800,12.414554931640625,-0.9387435913085938,0.6401644945144653,-0.2123713195323944
1772905631981554700,12.4245546875,-0.7760658264160156,0.6294574737548828,-0.26530858874320984
1772905631991554800,12.434554931640625,-0.5762252807617188,0.6049154996871948,-0.26943814754486084
1772905632001554700,12.4445546875,-0.4032268524169922,0.564128041267395,-0.23690062761306763
1772905632011554800,12.454554931640626,-0.3284006118774414,0.5263148546218872,-0.2230500876903534
1772905632021554700,12.4645546875,-0.3633260726928711,0.4772005081176758,-0.2522508502006531
1772905632031554800,12.474554931640625,-0.4454660415649414,0.4264484643936157,-0.32735133171081543
1772905632041554700,12.4845546875,-0.4597339630126953,0.4028782844543457,-0.42533499002456665
1772905632051554800,12.494554931640625,-0.3391151428222656,0.37545812129974365,-0.4746171832084656
1772905632061554700,12.5045546875,-0.15088939666748047,0.35862600803375244,-0.46543771028518677
1772905632071554800,12.514554931640625,-0.012837409973144531,0.3428398370742798,-0.4239010214805603
1772905632081554700,12.5245546875,-0.02135753631591797,0.31373488903045654,-0.38088417053222656
1772905632091554800,12.534554931640624,-0.1939411163330078,0.30000221729278564,-0.3959895372390747
1772905632101554700,12.5445546875,-0.41164112091064453,0.28719425201416016,-0.4808956980705261
1772905632111554800,12.554554931640626,-0.5363245010375977,0.2512674331665039,-0.6017016172409058
1772905632121554700,12.5645546875,-0.49921512603759766,0.18973243236541748,-0.7148383855819702
1772905632131554800,12.574554931640625,-0.30330371856689453,0.10491514205932617,-0.781493604183197
1772905632141554700,12.5845546875,-0.02812957763671875,0.015966296195983887,-0.8220183253288269
1772905632151554800,12.594554931640625,0.22052478790283203,-0.06507420539855957,-0.8812792897224426
1772905632161554700,12.6045546875,0.3298225402832031,-0.11891782283782959,-1.016563892364502
1772905632171554800,12.614554931640624,0.24217891693115234,-0.12384045124053955,-1.2277698516845703
1772905632181554700,12.6245546875,0.005600929260253906,-0.08923089504241943,-1.4621422290802002
1772905632191554800,12.634554931640626,-0.2765932083129883,-0.019691109657287598,-1.6405445337295532
1772905632201554700,12.6445546875,-0.5130252838134766,0.056232452392578125,-1.6981371641159058
1772905632211554800,12.654554931640625,-0.6742010116577148,0.1171424388885498,-1.6322773694992065
1772905632221554700,12.6645546875,-0.7621283531188965,0.13919579982757568,-1.507360816001892
1772905632231554800,12.674554931640625,-0.8001837730407715,0.12474393844604492,-1.4069676399230957
1772905632241554700,12.6845546875,-0.7851762771606445,0.07605719566345215,-1.38133704662323
1772905632251554800,12.694554931640624,-0.6926097869873047,0.012108325958251953,-1.4280180931091309
1772905632261554700,12.7045546875,-0.519780158996582,-0.04817652702331543,-1.513215184211731
1772905632271554800,12.714554931640626,-0.287994384765625,-0.08829081058502197,-1.6052789688110352
1772905632281554700,12.7245546875,-0.03785896301269531,-0.10848557949066162,-1.6652512550354004
1772905632291554800,12.734554931640625,0.177886962890625,-0.10899364948272705,-1.673384189605713
1772905632301554700,12.7445546875,0.33525848388671875,-0.09959864616394043,-1.636446475982666
1772905632311554800,12.754554931640625,0.4242696762084961,-0.0972292423248291,-1.5805585384368896
1772905632321554700,12.7645546875,0.4616107940673828,-0.11871218681335449,-1.5080147981643677
1772905632331554800,12.774554931640624,0.46616554260253906,-0.15443956851959229,-1.4091784954071045
1772905632341554700,12.7845546875,0.4378499984741211,-0.1876218318939209,-1.2696921825408936
1772905632351554800,12.794554931640626,0.34595203399658203,-0.20388412475585938,-1.1136929988861084
1772905632361554700,12.8045546875,0.18138599395751953,-0.20083117485046387,-0.9967296123504639
1772905632371554800,12.814554931640625,-0.03880882263183594,-0.18323922157287598,-0.9746650457382202
1772905632381554700,12.8245546875,-0.27862548828125,-0.1630474328994751,-1.0532680749893188
1772905632391554800,12.834554931640625,-0.4447288513183594,-0.1497786045074463,-1.192794680595398
1772905632401554700,12.8445546875,-0.46129512786865234,-0.15054166316986084,-1.3485225439071655
1772905632411554800,12.854554931640624,-0.36533260345458984,-0.17004001140594482,-1.5018311738967896
1772905632421554700,12.8645546875,-0.23585128784179688,-0.19626986980438232,-1.6243855953216553
1772905632431554800,12.874554931640626,-0.14467811584472656,-0.20763719081878662,-1.6806641817092896
1772905632441554700,12.8845546875,-0.15208148956298828,-0.19212043285369873,-1.6280043125152588
1772905632451554800,12.894554931640625,-0.26349639892578125,-0.15207648277282715,-1.4572467803955078
1772905632461554700,12.9045546875,-0.4435005187988281,-0.09468352794647217,-1.2069952487945557
