time,seconds_elapsed,z,y,x
1772905619891554800,0.334554931640625,0,-0.10608826577663422,-0.40962085127830505
1772905619901554700,0.3445546875,0.0025593452155590057,0.00531990360468626,-0.0052773188799619675
1772905619911554800,0.354554931640625,0.0027403305284678936,-0.005493436474353075,0.005025004036724567
1772905619921554700,0.3645546875,0.0025007911026477814,-0.0051165614277124405,0.0054178484715521336
1772905619931554800,0.374554931640625,-0.002671130234375596,0.005216635297983885,-0.005145305767655373
1772905619941554700,0.3845546875,-0.0025976714678108692,-0.005146370735019445,-0.0051634046249091625
1772905619951554800,0.394554931640625,0.0027467182371765375,0.005059071816504002,0.005083558149635792
1772905619961554700,0.4045546875,0.0025518930051475763,-0.0053145806305110455,0.005359294358640909
1772905619971554800,0.414554931640625,0.0026051239110529423,0.005065459292382002,-0.0054945009760558605
1772905619981554700,0.4245546875,-0.0025423113256692886,-0.005171921569854021,0.005237927660346031
1772905619991554800,0.434554931640625,-0.002502920338883996,0.005104850511997938,-0.0051953429356217384
1772905620001554700,0.4445546875,-0.002557215979322791,-0.0052304756827652454,-0.005278383381664753
1772905620011554800,0.454554931640625,-0.0025561514776200056,0.005419977940618992,-0.005392297636717558
1772905620021554700,0.4645546875,0.002604059176519513,0.005232604686170816,-0.005440205335617065
1772905620031554800,0.474554931640625,0.0025444405619055033,0.005134659819304943,0.005072911735624075
1772905620041554700,0.4845546875,-0.0027435244992375374,-0.0053145806305110455,0.005377393215894699
1772905620051554800,0.494554931640625,0.0026210930664092302,0.0054476577788591385,-0.0052869003266096115
1772905620061554700,0.5045546875,0.0025050495751202106,-0.0050888811238110065,0.005194278433918953
1772905620071554800,0.514554931640625,-0.0026690009981393814,0.005112302955240011,-0.0054827905260026455
1772905620081554700,0.5245546875,-0.0027094564866274595,0.005038843955844641,-0.005338001996278763
1772905620091554800,0.534554931640625,-0.0026210930664092302,0.005038843955844641,-0.005301805213093758
1772905620101554700,0.5445546875,-0.0025976714678108692,-0.005406137555837631,-0.0052400571294128895
1772905620111554800,0.554554931640625,-0.002566797658801079,0.005104850511997938,-0.005490242503583431
1772905620121554700,0.5645546875,-0.002744589000940323,-0.005217700265347958,-0.005429559387266636
1772905620131554800,0.574554931640625,-0.002630674745887518,0.005192149430513382,-0.005153822712600231
1772905620141554700,0.5845546875,-0.0025306004099547863,0.004880215507000685,-0.004849341697990894
1772905620151554800,0.594554931640625,-0.0023741014301776886,0.004882344976067543,-0.004583186935633421
1772905620161554700,0.6045546875,-0.002217602450400591,0.004581057466566563,-0.004271253477782011
1772905620171554800,0.614554931640625,-0.002063232474029064,0.0045842514373362064,-0.0042701889760792255
1772905620181554700,0.6245546875,-0.002066426444798708,0.004278705921024084,-0.003971030469983816
1772905620191554800,0.634554931640625,-0.0025455052964389324,0.006195020861923695,-0.004333001095801592
1772905620201554700,0.6445546875,-0.00239007081836462,0.00812837015837431,-0.005599898286163807
1772905620211554800,0.654554931640625,-0.0023911353200674057,0.00813049916177988,-0.005292223300784826
1772905620221554700,0.6645546875,-0.002233571605756879,0.00813049916177988,-0.004987742286175489
1772905620231554800,0.674554931640625,-0.0008463725098408759,0.0065090833231806755,0.0003800691629294306
1772905620241554700,0.6845546875,0.00021611775446217507,0.008326388895511627,0.001020970055833459
1772905620251554800,0.694554931640625,0.0021324327681213617,0.010669616051018238,0.0016150277806445956
1772905620261554700,0.7045546875,0.003252412425354123,0.012868056073784828,0.003309902036562562
1772905620271554800,0.714554931640625,0.0029553836211562157,0.016695363447070122,0.00349408108741045
1772905620281554700,0.7245546875,0.0021792759653180838,0.024550125002861023,0.0021643713116645813
1772905620291554800,0.734554931640625,-0.0006802918505854905,0.04841357097029686,0.001384005299769342
1772905620301554700,0.7445546875,-0.003236443269997835,0.06884787976741791,0.00024912095977924764
1772905620311554800,0.754554931640625,-0.006498437374830246,0.08676755428314209,0.0063110641203820705
1772905620321554700,0.7645546875,-0.008384943008422852,0.10997731983661652,0.009467661380767822
1772905620331554800,0.774554931640625,-0.012132403440773487,0.11817276477813721,0.022089790552854538
1772905620341554700,0.7845546875,-0.016219478100538254,0.13998788595199585,0.024115759879350662
1772905620351554800,0.794554931640625,-0.018335942178964615,0.15774360299110413,0.02607572451233864
1772905620361554700,0.8045546875,-0.02122638374567032,0.17056268453598022,0.033780377358198166
1772905620371554800,0.814554931640625,-0.024172184988856316,0.05748625844717026,0.01187689509242773
1772905620381554700,0.8245546875,-0.027483152225613594,0.0608493909239769,0.015518957749009132
1772905620391554800,0.834554931640625,-0.03297232836484909,0.06430301815271378,0.020235221832990646
1772905620401554700,0.8445546875,-0.038416795432567596,0.06711786985397339,0.023593032732605934
1772905620411554800,0.854554931640625,-0.04048322141170502,0.13751903176307678,0.027635391801595688
1772905620421554700,0.8645546875,-0.04109857231378555,0.13961313664913177,0.033438634127378464
1772905620431554800,0.874554931640625,-0.04226432740688324,0.14149858057498932,0.03940263018012047
1772905620441554700,0.8845546875,-0.043163932859897614,0.13980157673358917,0.043289557099342346
1772905620451554800,0.894554931640625,-0.042832836508750916,0.13911382853984833,0.04689861834049225
1772905620461554700,0.9045546875,-0.042133379727602005,0.1347840130329132,0.050681211054325104
1772905620471554800,0.914554931640625,-0.03850196301937103,0.13515770435333252,0.05350777506828308
1772905620481554700,0.9245546875,-0.036104440689086914,0.12762552499771118,0.11771497875452042
1772905620491554800,0.934554931640625,-0.034165769815444946,0.11824515461921692,0.12422086298465729
1772905620501554700,0.9445546875,-0.031685203313827515,0.11017107963562012,0.13208627700805664
1772905620511554800,0.954554931640625,-0.02770885080099106,0.10007849335670471,0.14112702012062073
1772905620521554700,0.9645546875,-0.020419402047991753,0.09095469862222672,0.15388542413711548
1772905620531554800,0.974554931640625,-0.010190538130700588,0.07713594287633896,0.16838128864765167
1772905620541554700,0.9845546875,0.0012605094816535711,0.066476970911026,0.18486158549785614
1772905620551554800,0.994554931640625,0.013589867390692234,0.05924500897526741,0.2066628634929657
1772905620561554700,1.0045546875,0.027102017775177956,0.04779502749443054,0.23077543079853058
1772905620571554800,1.014554931640625,0.0400020107626915,0.037715211510658264,0.25852686166763306
1772905620581554700,1.0245546875,0.052271753549575806,0.02968478575348854,0.14681315422058105
1772905620591554800,1.034554931640625,0.06406347453594208,0.009483630768954754,0.1640259176492691
1772905620601554700,1.0445546875,0.077022023499012,0.00582453329116106,0.18240764737129211
1772905620611554800,1.054554931640625,0.08823459595441818,0.0017789792036637664,0.20040610432624817
1772905620621554700,1.0645546875,0.10006784647703171,0.00018204993102699518,0.21531076729297638
1772905620631554800,1.074554931640625,0.11121760308742523,0.0004045554087497294,0.23312824964523315
1772905620641554700,1.0845546875,0.11701339483261108,0.0009166373638436198,0.24416515231132507
1772905620651554800,1.094554931640625,0.12029774487018585,0.003188535338267684,0.24850668013095856
1772905620661554700,1.1045546875,0.11890415847301483,0.0043564229272305965,0.24978527426719666
1772905620671554800,1.114554931640625,0.1149192824959755,0.0111093046143651,0.2422967553138733
1772905620681554700,1.1245546875,0.10719866305589676,0.01565629430115223,0.23308034241199493
1772905620691554800,1.134554931640625,0.09164989739656448,0.020760079845786095,0.21798722445964813
1772905620701554700,1.1445546875,0.07123688608407974,0.031091148033738136,0.194839209318161
1772905620711554800,1.154554931640625,0.048734020441770554,0.03914180025458336,0.1666906625032425
1772905620721554700,1.1645546875,0.025230417028069496,0.04916306212544441,0.13510340452194214
1772905620731554800,1.174554931640625,-0.0012008907506242394,0.058515746146440506,0.10099618881940842
1772905620741554700,1.1845546875,-0.028811797499656677,0.07089833170175552,0.06579241901636124
1772905620751554800,1.194554931640625,-0.05667821317911148,0.08355452865362167,0.0320354662835598
1772905620761554700,1.2045546875,-0.0870390310883522,0.09261337667703629,0.0009081204188987613
1772905620771554800,1.214554931640625,-0.11605097353458405,0.10442639887332916,-0.033175673335790634
1772905620781554700,1.2245546875,-0.14184564352035522,0.11322227865457535,-0.06085045635700226
1772905620791554800,1.234554931640625,-0.16730068624019623,0.11932361871004105,-0.08532924950122833
1772905620801554700,1.2445546875,-0.191825270652771,0.12915857136249542,-0.1102306991815567
1772905620811554800,1.254554931640625,-0.2149977684020996,0.13521838188171387,-0.13071291148662567
1772905620821554700,1.2645546875,-0.23519787192344666,0.14369381964206696,-0.14874118566513062
1772905620831554800,1.274554931640625,-0.2508658766746521,0.1534947007894516,-0.1619051992893219
1772905620841554700,1.2845546875,-0.26318883895874023,0.15884442627429962,-0.1704530268907547
1772905620851554800,1.294554931640625,-0.27246594429016113,0.1651427149772644,-0.17672577500343323
1772905620861554700,1.3045546875,-0.2831142544746399,0.16745825111865997,-0.18175183236598969
1772905620871554800,1.314554931640625,-0.2917642891407013,0.17046581208705902,-0.185662180185318
1772905620881554700,1.3245546875,-0.30171316862106323,0.17073515057563782,-0.1875806301832199
1772905620891554800,1.334554931640625,-0.3131844401359558,0.1689295619726181,-0.1928749829530716
1772905620901554700,1.3445546875,-0.3244906961917877,0.16992391645908356,-0.19811077415943146
1772905620911554800,1.354554931640625,-0.3361067473888397,0.16190946102142334,-0.20840245485305786
1772905620921554700,1.3645546875,-0.3444672226905823,0.1491638422012329,-0.22175171971321106
1772905620931554800,1.374554931640625,-0.3513585031032562,0.13608604669570923,-0.2348657101392746
1772905620941554700,1.3845546875,-0.3586575388908386,0.11951205134391785,-0.24724829196929932
1772905620951554800,1.394554931640625,-0.3617619574069977,0.10342565178871155,-0.2575399577617645
1772905620961554700,1.4045546875,-0.36098799109458923,0.0810132846236229,-0.26186445355415344
1772905620971554800,1.414554931640625,-0.35722029209136963,0.05900440737605095,-0.26832351088523865
1772905620981554700,1.4245546875,-0.3464899957180023,0.031950294971466064,-0.26777520775794983
1772905620991554800,1.434554931640625,-0.33293524384498596,0.0021356267388910055,-0.2603931427001953
1772905621001554700,1.4445546875,-0.3137050271034241,-0.02536030113697052,-0.2509137690067291
1772905621011554800,1.454554931640625,-0.28865134716033936,-0.05029581859707832,-0.22625187039375305
1772905621021554700,1.4645546875,-0.2611980140209198,-0.07314148545265198,-0.19419191777706146
1772905621031554800,1.474554931640625,-0.22796696424484253,-0.09399738162755966,-0.15686742961406708
1772905621041554700,1.4845546875,-0.19039441645145416,-0.11670039594173431,-0.11578801274299622
1772905621051554800,1.494554931640625,-0.15343083441257477,-0.13390997052192688,-0.07175641506910324
1772905621061554700,1.5045546875,-0.11870507150888443,-0.14548344910144806,-0.031450990587472916
1772905621071554800,1.514554931640625,-0.08234512060880661,-0.15406641364097595,0.004786529112607241
1772905621081554700,1.5245546875,-0.04644615575671196,-0.1633371114730835,0.042181286960840225
1772905621091554800,1.534554931640625,-0.017032846808433533,-0.17089591920375824,0.07645352184772491
1772905621101554700,1.5445546875,0.009057782590389252,-0.1697663515806198,0.10480327159166336
1772905621111554800,1.554554931640625,0.031926874071359634,-0.17323382198810577,0.13460835814476013
1772905621121554700,1.5645546875,0.046684630215168,-0.16638831794261932,0.15645860135555267
1772905621131554800,1.574554931640625,0.05821019783616066,-0.15496601164340973,0.17057333886623383
1772905621141554700,1.5845546875,0.06821975111961365,-0.14913083612918854,0.18173693120479584
1772905621151554800,1.594554931640625,0.07350771874189377,-0.1502114236354828,0.18250559270381927
1772905621161554700,1.6045546875,0.07644499838352203,-0.15070433914661407,0.17262272536754608
1772905621171554800,1.614554931640625,0.07612987607717514,-0.15383432805538177,0.16083206236362457
1772905621181554700,1.6245546875,0.07298924773931503,-0.1543261706829071,0.14374704658985138
1772905621191554800,1.634554931640625,0.06859556585550308,-0.15429529547691345,0.12835052609443665
1772905621201554700,1.6445546875,0.06431685388088226,-0.15175405144691467,0.11307855695486069
1772905621211554800,1.654554931640625,0.056274719536304474,-0.1487901508808136,0.1019788384437561
1772905621221554700,1.6645546875,0.05105702206492424,-0.14273566007614136,0.08736693114042282
1772905621231554800,1.674554931640625,0.047225456684827805,-0.13796935975551605,0.07845181226730347
1772905621241554700,1.6845546875,0.042906295508146286,-0.13339576125144958,0.06691452860832214
1772905621251554800,1.694554931640625,0.03853709623217583,-0.12118563801050186,0.05957503989338875
1772905621261554700,1.7045546875,0.03508240729570389,-0.10658544301986694,0.05223023146390915
1772905621271554800,1.714554931640625,0.029329201206564903,-0.09190008044242859,0.0488915853202343
1772905621281554700,1.7245546875,0.02308095060288906,-0.07093346863985062,0.043573811650276184
1772905621291554800,1.734554931640625,0.014476696029305458,-0.04807821661233902,0.03756190463900566
1772905621301554700,1.7445546875,0.002184599172323942,-0.026472827419638634,0.029603874310851097
1772905621311554800,1.754554931640625,-0.01093790028244257,-0.0039018304087221622,0.019926482811570168
1772905621331554800,1.774554931640625,-0.039996691048145294,0.04120183736085892,-0.0012370878830552101
1772905621341554700,1.7845546875,-0.056642014533281326,0.06313406676054001,-0.01062809582799673
1772905621351554800,1.794554931640625,-0.07321388274431229,0.08159030973911285,-0.028087856248021126
1772905621361554700,1.8045546875,-0.08924385905265808,0.09370461106300354,-0.047252070158720016
1772905621371554800,1.814554931640625,-0.10295934975147247,0.10472448915243149,-0.06775664538145065
1772905621381554700,1.8245546875,-0.11532064527273178,0.11098019033670425,-0.08482355624437332
1772905621391554800,1.834554931640625,-0.12375456094741821,0.11160725355148315,-0.10186173021793365
1772905621401554700,1.8445546875,-0.1309545785188675,0.10572735965251923,-0.11282411217689514
1772905621411554800,1.854554931640625,-0.13332229852676392,0.0985422432422638,-0.12217679619789124
1772905621421554700,1.8645546875,-0.13400152325630188,0.08625759929418564,-0.12536746263504028
1772905621431554800,1.874554931640625,-0.1310780793428421,0.07264218479394913,-0.1265917718410492
1772905621441554700,1.8845546875,-0.12062032520771027,0.05612993240356445,-0.12260051816701889
1772905621451554800,1.894554931640625,-0.1073966845870018,0.039538901299238205,-0.11370668560266495
1772905621461554700,1.9045546875,-0.0895770862698555,0.021068818867206573,-0.10376100987195969
1772905621471554800,1.914554931640625,-0.07109209150075912,0.0014989841729402542,-0.09016475081443787
1772905621481554700,1.9245546875,-0.051977917551994324,-0.014947257936000824,-0.07363972812891006
1772905621491554800,1.934554931640625,-0.033203352242708206,-0.02514205314218998,-0.05302231013774872
1772905621501554700,1.9445546875,-0.010943223722279072,-0.032411277294158936,-0.02922593429684639
1772905621511554800,1.954554931640625,0.008882120251655579,-0.03900552913546562,-0.004065781831741333
1772905621521554700,1.9645546875,0.027574708685278893,-0.0420311763882637,0.017187217250466347
1772905621531554800,1.974554931640625,0.042420826852321625,-0.043764378875494,0.035404983907938004
1772905621541554700,1.9845546875,0.05756823346018791,-0.0433662086725235,0.05021490529179573
1772905621551554800,1.994554931640625,0.07057788223028183,-0.04223771393299103,0.0632905662059784
1772905621561554700,2.0045546875,0.08037983626127243,-0.039040662348270416,0.074556365609169
1772905621571554800,2.014554931640625,0.08810790628194809,-0.03477366641163826,0.08193843811750412
1772905621581554700,2.0245546875,0.0918000116944313,-0.029456956312060356,0.0886135995388031
1772905621591554800,2.034554931640625,0.09411235898733139,-0.024693848565220833,0.09068215638399124
1772905621601554700,2.0445546875,0.0920182541012764,-0.018698977306485176,0.09357260167598724
1772905621611554800,2.054554931640625,0.0901530459523201,-0.010815469548106194,0.09126024693250656
1772905621621554700,2.0645546875,0.08785239607095718,-0.008301902562379837,0.08909054845571518
1772905621631554800,2.074554931640625,0.08836661279201508,-0.006198214832693338,0.08656527101993561
1772905621641554700,2.0845546875,0.08410067856311798,-0.005299675744026899,0.08700922131538391
1772905621651554800,2.094554931640625,0.08013390749692917,-0.004116883501410484,0.0826038271188736
1772905621661554700,2.1045546875,0.07739144563674927,-0.003919928800314665,0.08229189366102219
1772905621671554800,2.114554931640625,0.07611390203237534,-0.004157339222729206,0.08218330144882202
1772905621681554700,2.1245546875,0.07156265527009964,-0.005825597792863846,0.08188733458518982
1772905621691554800,2.134554931640625,0.06692730635404587,-0.009346294216811657,0.07758521288633347
1772905621701554700,2.1445546875,0.0636429563164711,-0.012265481054782867,0.07551132887601852
1772905621711554800,2.154554931640625,0.060290466994047165,-0.01560945063829422,0.07353433221578598
1772905621721554700,2.1645546875,0.059015050530433655,-0.018075110390782356,0.07004982978105545
1772905621731554800,2.174554931640625,0.057620398700237274,-0.02060464583337307,0.06926307827234268
1772905621741554700,2.1845546875,0.06236434355378151,-0.02178424410521984,0.0662938579916954
1772905621751554800,2.194554931640625,0.06577112525701523,-0.0267549529671669,0.0713806077837944
1772905621761554700,2.2045546875,0.06933121383190155,-0.025631777942180634,0.0704171285033226
1772905621771554800,2.214554931640625,0.07000298798084259,-0.026819894090294838,0.07281571626663208
1772905621781554700,2.2245546875,0.068974569439888,-0.024484118446707726,0.07140296697616577
1772905621791554800,2.234554931640625,0.06919068843126297,-0.01956877112388611,0.07090684771537781
1772905621801554700,2.2445546875,0.06919600814580917,-0.01663893833756447,0.07053636014461517
1772905621811554800,2.254554931640625,0.0677768737077713,-0.01306288130581379,0.06866263598203659
1772905621821554700,2.2645546875,0.06798340380191803,-0.008766076527535915,0.06479061394929886
1772905621831554800,2.274554931640625,0.06734570115804672,-0.0038177254609763622,0.0642540454864502
1772905621841554700,2.2845546875,0.06148071214556694,0.000331096671288833,0.06147432327270508
1772905621851554800,2.294554931640625,0.05527930334210396,0.007228766102343798,0.05487368255853653
1772905621861554700,2.3045546875,0.048281557857990265,0.01120192650705576,0.05319051817059517
1772905621871554800,2.314554931640625,0.04049492999911308,0.014299969188869,0.048423152416944504
1772905621881554700,2.3245546875,0.02814534492790699,0.015988456085324287,0.044460639357566833
1772905621891554800,2.334554931640625,0.01873091608285904,0.019149310886859894,0.035624295473098755
1772905621901554700,2.3445546875,0.010085140354931355,0.01789199560880661,0.030949553474783897
1772905621911554800,2.354554931640625,0.003189600072801113,0.017878154292702675,0.025440147146582603
1772905621921554700,2.3645546875,-0.000927283545024693,0.01647605188190937,0.022349556908011436
1772905621931554800,2.374554931640625,-0.004452238790690899,0.014689619652926922,0.02105923742055893
1772905621941554700,2.3845546875,-0.006363230757415295,0.013319454155862331,0.019723139703273773
1772905621951554800,2.394554931640625,-0.0065069543197751045,0.009638000279664993,0.02175762876868248
1772905621961554700,2.4045546875,-0.005966127384454012,0.007687617093324661,0.023787857964634895
1772905621971554800,2.414554931640625,-0.006709231995046139,0.004005098715424538,0.026698527857661247
1772905621981554700,2.4245546875,-0.00019056689052376896,0.0036952942609786987,0.02776208147406578
1772905621991554800,2.434554931640625,0.009131241589784622,0.001078459550626576,0.0363067165017128
1772905622001554700,2.4445546875,0.0170956589281559,0.00036303524393588305,0.040357597172260284
1772905622011554800,2.454554931640625,0.022391077131032944,0.0013424851931631565,0.045185644179582596
1772905622021554700,2.4645546875,0.02982957288622856,0.0033993299584835768,0.04860520362854004
1772905622031554800,2.474554931640625,0.03633759170770645,0.006966869812458754,0.05492478236556053
1772905622041554700,2.4845546875,0.04305959865450859,0.010538668371737003,0.058752089738845825
1772905622051554800,2.494554931640625,0.04762894660234451,0.015299646183848381,0.06259962916374207
1772905622061554700,2.5045546875,0.0490800216794014,0.019386719912290573,0.06538360565900803
1772905622071554800,2.514554931640625,0.05001795291900635,0.023948615416884422,0.06466072797775269
1772905622081554700,2.5245546875,0.04496100917458534,0.027465052902698517,0.06449251621961594
1772905622091554800,2.534554931640625,0.038336947560310364,0.03586277365684509,0.05573283135890961
1772905622101554700,2.5445546875,0.03223135322332382,0.04025539010763168,0.0515935905277729
1772905622111554800,2.554554931640625,0.030562032014131546,0.04707002267241478,0.04485348239541054
1772905622121554700,2.5645546875,0.02492700144648552,0.04995300993323326,0.04147864133119583
1772905622131554800,2.574554931640625,0.013704846613109112,0.051954496651887894,0.032119568437337875
1772905622141554700,2.5845546875,0.0019131212029606104,0.05563701316714287,0.023939033970236778
1772905622151554800,2.594554931640625,-0.005364617798477411,0.058298561722040176,0.016321681439876556
1772905622161554700,2.6045546875,-0.012325099669396877,0.060217007994651794,0.012288902886211872
1772905622171554800,2.614554931640625,-0.018197540193796158,0.06054384633898735,0.006480338983237743
1772905622181554700,2.6245546875,-0.02410830743610859,0.06174367293715477,0.002892571035772562
1772905622191554800,2.634554931640625,-0.027537448331713676,0.06207902729511261,-0.0002182469906983897
1772905622201554700,2.6445546875,-0.02874898537993431,0.06165637448430061,-0.003652709536254406
1772905622211554800,2.654554931640625,-0.029614519327878952,0.06028514355421066,-0.004078557249158621
1772905622221554700,2.6645546875,-0.028471119701862335,0.05953352153301239,-0.004351099953055382
1772905622231554800,2.674554931640625,-0.027204221114516258,0.05587548762559891,-0.002120722085237503
1772905622241554700,2.6845546875,-0.026172606274485588,0.053886778652668,-0.00090066809207201
1772905622251554800,2.694554931640625,-0.02612895518541336,0.0518171600997448,0.0003619706258177757
1772905622261554700,2.7045546875,-0.02353447861969471,0.04899165779352188,0.0011402075178921223
1772905622271554800,2.714554931640625,-0.018809696659445763,0.04662075266242027,0.003907153382897377
1772905622281554700,2.7245546875,-0.01307565625756979,0.04370369389653206,0.005676551256328821
1772905622291554800,2.734554931640625,-0.008594673126935959,0.04136046767234802,0.007585413753986359
1772905622301554700,2.7445546875,-0.006464369595050812,0.03816128522157669,0.007670583203434944
1772905622311554800,2.754554931640625,-0.005885216407477856,0.03501533344388008,0.00638878159224987
1772905622321554700,2.7645546875,-0.006054490804672241,0.031546805053949356,0.005273060407489538
1772905622331554800,2.774554931640625,-0.008197570219635963,0.02617792785167694,0.0032843512017279863
1772905622341554700,2.7845546875,-0.01315976120531559,0.0243233609944582,0.0003545182989910245
1772905622351554800,2.794554931640625,-0.017351169139146805,0.021126309409737587,-0.005259220022708178
1772905622361554700,2.8045546875,-0.017587514594197273,0.018841635435819626,-0.009487888775765896
1772905622371554800,2.814554931640625,-0.017565157264471054,0.015438047237694263,-0.010897444561123848
1772905622381554700,2.8245546875,-0.019037526100873947,0.013800662010908127,-0.014555477537214756
1772905622391554800,2.834554931640625,-0.021311553195118904,0.034158315509557724,-0.05675379931926727
1772905622401554700,2.8445546875,-0.022136632353067398,0.03210785984992981,-0.07031173259019852
1772905622411554800,2.854554931640625,-0.02240598201751709,0.028327394276857376,-0.07513019442558289
1772905622421554700,2.8645546875,-0.023281099274754524,0.025726530700922012,-0.07941422611474991
1772905622431554800,2.874554931640625,-0.02327045239508152,0.026116181164979935,-0.08208642154932022
1772905622441554700,2.8845546875,-0.021798083558678627,0.021216802299022675,-0.07975277304649353
1772905622451554800,2.894554931640625,-0.021216802299022675,0.018650004640221596,-0.07144554704427719
1772905622461554700,2.9045546875,-0.019361170008778572,0.01447030808776617,-0.06768318265676498
1772905622471554800,2.914554931640625,-0.013264094479382038,0.010029779747128487,-0.058196358382701874
1772905622481554700,2.9245546875,-0.003001162316650152,0.0019876444712281227,-0.040023304522037506
1772905622491554800,2.934554931640625,0.004915348254144192,-0.0035536999348551035,-0.011581995524466038
1772905622501554700,2.9445546875,0.007884572260081768,-0.009562412276864052,0.00394973810762167
1772905622511554800,2.954554931640625,0.0101841501891613,-0.01093790028244257,0.016961516812443733
1772905622521554700,2.9645546875,0.015746787190437317,-0.015438047237694263,0.03208443894982338
1772905622531554800,2.974554931640625,0.02087080106139183,-0.0204598568379879,0.05011696368455887
1772905622541554700,2.9845546875,0.022756241261959076,-0.02349082939326763,0.06504399329423904
1772905622551554800,2.994554931640625,0.024994071573019028,-0.020451340824365616,0.07183094322681427
1772905622561554700,3.0045546875,0.028548836708068848,-0.021363718435168266,0.07882442325353622
1772905622571554800,3.014554931640625,0.028973618522286415,-0.02852967381477356,0.08553046733140945
1772905622581554700,3.0245546875,0.028178349137306213,-0.022471988573670387,0.07965802401304245
1772905622591554800,3.034554931640625,0.02682308852672577,-0.021524475887417793,0.07602660357952118
1772905622601554700,3.0445546875,0.022703010588884354,-0.012860603630542755,0.06852955371141434
1772905622611554800,3.054554931640625,0.017703557386994362,-0.0010230992920696735,0.05579032003879547
1772905622621554700,3.0645546875,0.009419753216207027,0.004661968909204006,0.04535917937755585
1772905622631554800,3.074554931640625,0.0002374101459281519,0.014891897328197956,0.02406040020287037
1772905622641554700,3.0845546875,-0.005456174723803997,0.025363493710756302,0.009914801456034184
1772905622651554800,3.094554931640625,-0.009738074615597725,0.032386790961027145,-0.001078459550626576
1772905622661554700,3.1045546875,-0.016100240871310234,0.042351625859737396,-0.011578801088035107
1772905622671554800,3.114554931640625,-0.02233784645795822,0.057236071676015854,-0.02466084621846676
1772905622681554700,3.1245546875,-0.02610340528190136,0.06510573625564575,-0.030984684824943542
1772905622691554800,3.134554931640625,-0.02937391586601734,0.07907035201787949,-0.032745566219091415
1772905622701554700,3.1445546875,-0.035029176622629166,0.08191927522420883,-0.02996903844177723
1772905622711554800,3.154554931640625,-0.04013508930802345,0.08952917903661728,-0.03544650599360466
1772905622721554700,3.1645546875,-0.043141573667526245,0.0917329341173172,-0.031015560030937195
1772905622731554800,3.174554931640625,-0.04370156675577164,0.09868064522743225,-0.0267496295273304
1772905622741554700,3.1845546875,-0.04419022426009178,0.09470642358064651,-0.016888059675693512
1772905622751554800,3.194554931640625,-0.04742560535669327,0.0923599973320961,-0.01133713312447071
1772905622761554700,3.2045546875,-0.04836353287100792,0.09265170246362686,-0.011980162933468819
1772905622771554800,3.214554931640625,-0.0474543496966362,0.08343210071325302,-0.003333323635160923
1772905622781554700,3.2245546875,-0.04817509651184082,0.08153600990772247,-0.0016001231269910932
1772905622791554800,3.234554931640625,-0.0497528612613678,0.08141783624887466,-0.0025050495751202106
1772905622801554700,3.2445546875,-0.05150522664189339,0.08121556043624878,-0.005975709296762943
1772905622811554800,3.254554931640625,-0.0536983422935009,0.08323940634727478,-0.01001274585723877
1772905622821554700,3.2645546875,-0.05665053054690361,0.08366205543279648,-0.014896155335009098
1772905622831554800,3.274554931640625,-0.05967830866575241,0.07030853629112244,-0.026861414313316345
1772905622841554700,3.2845546875,-0.06145409494638443,0.07407409697771072,-0.034498993307352066
1772905622851554800,3.294554931640625,-0.06095585227012634,0.08081845939159393,-0.04027242586016655
1772905622861554700,3.3045546875,-0.06256236135959625,0.07867538183927536,-0.04627155512571335
1772905622871554800,3.314554931640625,-0.06690814346075058,0.07377281039953232,-0.05314899981021881
1772905622881554700,3.3245546875,-0.06953348964452744,0.07852739840745926,-0.059237558394670486
1772905622891554800,3.334554931640625,-0.07081209868192673,0.06942702829837799,-0.059712376445531845
1772905622901554700,3.3445546875,-0.07093559950590134,0.05924926698207855,-0.06078125536441803
1772905622911554800,3.354554931640625,-0.07012967765331268,0.048808544874191284,-0.06284874677658081
1772905622921554700,3.3645546875,-0.07019036263227463,0.030177703127264977,-0.057981304824352264
1772905622931554800,3.374554931640625,-0.06902460753917694,0.011618192307651043,-0.05531124025583267
1772905622941554700,3.3845546875,-0.0664822906255722,-0.010668551549315453,-0.04853493720293045
1772905622951554800,3.394554931640625,-0.06469905376434326,-0.03385596349835396,-0.044489383697509766
1772905622961554700,3.4045546875,-0.06116984039545059,-0.05387081205844879,-0.03834546357393265
1772905622971554800,3.414554931640625,-0.05637053772807121,-0.07185649126768112,-0.029315361753106117
1772905622981554700,3.4245546875,-0.05178096145391464,-0.09733283519744873,-0.021775726228952408
1772905622991554800,3.434554931640625,-0.04682835191488266,-0.12673549354076385,-0.013851763680577278
1772905623001554700,3.4445546875,-0.042396340519189835,-0.15500327944755554,-0.007561992388218641
1772905623011554800,3.454554931640625,-0.03717544674873352,-0.17966517806053162,-0.00112849660217762
1772905623021554700,3.4645546875,-0.03141266107559204,-0.20941704511642456,0.0037815284449607134
1772905623031554800,3.474554931640625,-0.025179315358400345,-0.23447179794311523,0.008671325631439686
1772905623041554700,3.4845546875,-0.020694073289632797,-0.247385635972023,0.009426141157746315
1772905623051554800,3.494554931640625,-0.01714569702744484,-0.2517654597759247,0.010828244499862194
1772905623061554700,3.5045546875,-0.012450724840164185,-0.25753891468048096,0.00946233794093132
1772905623071554800,3.514554931640625,-0.009326066821813583,-0.2667829990386963,0.0068167587742209435
1772905623081554700,3.5245546875,-0.007283061742782593,-0.26952865719795227,0.002569991396740079
1772905623091554800,3.534554931640625,-0.004575734492391348,-0.27600154280662537,-0.0005227281944826245
1772905623101554700,3.5445546875,-0.003043747041374445,-0.279682993888855,-0.0007856891606934369
1772905623111554800,3.554554931640625,-0.002234636340290308,-0.283105731010437,-0.0007250058697536588
1772905623121554700,3.5645546875,0.0008889572927728295,-0.28323137760162354,-0.0031267874874174595
1772905623131554800,3.574554931640625,0.002610446885228157,-0.08699750900268555,-0.00013414205750450492
1772905623141554700,3.5845546875,0.006537828128784895,-0.08538567274808884,0.00006494178524008021
1772905623151554800,3.594554931640625,0.011750205419957638,-0.08353536576032639,0.0035739275626838207
1772905623161554700,3.6045546875,0.014214799739420414,-0.08231425285339355,0.005113367456942797
1772905623171554800,3.614554931640625,0.01582556776702404,-0.07770870625972748,0.006668776273727417
1772905623181554700,3.6245546875,0.017594967037439346,-0.07806854695081711,0.00760138314217329
1772905623191554800,3.634554931640625,0.018928933888673782,-0.07841454446315765,0.007887765765190125
1772905623201554700,3.6445546875,0.02334178239107132,-0.07798763364553452,0.008987518027424812
1772905623211554800,3.654554931640625,0.03047153912484646,-0.07715722918510437,0.01097622700035572
1772905623221554700,3.6645546875,0.03759277984499931,-0.07788968831300735,0.012204797938466072
1772905623231554800,3.674554931640625,0.04298294708132744,-0.0753665417432785,0.014801404438912868
1772905623241554700,3.6845546875,0.04666120558977127,-0.07040221989154816,0.016316358000040054
1772905623251554800,3.694554931640625,0.05088774487376213,-0.0646628588438034,0.019085433334112167
1772905623261554700,3.7045546875,0.05436905100941658,-0.05948348343372345,0.020622743293642998
1772905623271554800,3.714554931640625,0.060071155428886414,-0.05067162960767746,0.02094106562435627
1772905623281554700,3.7245546875,0.06410925835371017,-0.04668037220835686,0.023779340088367462
1772905623291554800,3.734554931640625,0.06662814319133759,-0.04250067472457886,0.023324748501181602
1772905623301554700,3.7445546875,0.06881913542747498,-0.03863504156470299,0.023978425189852715
1772905623311554800,3.754554931640625,0.07059917598962784,-0.03587980568408966,0.024338265880942345
1772905623321554700,3.7645546875,0.07350984960794449,-0.03028310090303421,0.02579466626048088
1772905623331554800,3.774554931640625,0.07536015659570694,-0.026517542079091072,0.028534995391964912
1772905623341554700,3.7845546875,0.07543680816888809,-0.02063019573688507,0.029543191194534302
1772905623351554800,3.794554931640625,0.07395272701978683,-0.014978131279349327,0.030580129474401474
1772905623361554700,3.8045546875,0.07090791314840317,-0.008628740906715393,0.032694462686777115
1772905623371554800,3.814554931640625,0.06904482841491699,-0.01159796491265297,0.10733067989349365
1772905623381554700,3.8245546875,0.06785884499549866,-0.008330647833645344,0.11479898542165756
1772905623391554800,3.834554931640625,0.06532718241214752,-0.009525150060653687,0.1155112162232399
1772905623401554700,3.8445546875,0.06332782655954361,-0.007410816382616758,0.12032009661197662
1772905623411554800,3.854554931640625,0.06178732216358185,-0.010964515618979931,0.12956206500530243
1772905623421554700,3.8645546875,0.05929717421531677,-0.00926964171230793,0.13488835096359253
1772905623431554800,3.874554931640625,0.056923072785139084,-0.007106334902346134,0.13923519849777222
1772905623441554700,3.8845546875,0.056539811193943024,-0.003027777886018157,0.14345960319042206
1772905623451554800,3.894554931640625,0.05616506561636925,0.00728944968432188,0.14928732812404633
1772905623461554700,3.9045546875,0.05376115441322327,0.010784595273435116,0.1512877494096756
1772905623471554800,3.914554931640625,0.05339173227548599,0.019673103466629982,0.14956732094287872
1772905623481554700,3.9245546875,0.05100059509277344,0.019295163452625275,0.15306566655635834
1772905623491554800,3.934554931640625,0.04709982872009277,0.01673794724047184,0.14176686108112335
1772905623501554700,3.9445546875,0.04392513632774353,0.01589902676641941,0.13582521677017212
1772905623511554800,3.954554931640625,0.040697209537029266,0.011931190267205238,0.12916283309459686
1772905623521554700,3.9645546875,0.039130087941884995,0.012578479014337063,0.11956848204135895
1772905623531554800,3.974554931640625,0.037258487194776535,0.013899671845138073,0.11513540148735046
1772905623541554700,3.9845546875,0.03179486095905304,0.0173351988196373,0.1026814877986908
1772905623551554800,3.994554931640625,0.02368352562189102,0.019464438781142235,0.0843583196401596
1772905623561554700,4.0045546875,0.01760241761803627,0.02660484053194523,0.06402302533388138
1772905623571554800,4.014554931640625,0.013609031215310097,0.009669939056038857,0.014402172528207302
1772905623581554700,4.0245546875,0.009773206897079945,0.009293063543736935,0.00888424925506115
1772905623591554800,4.034554931640625,0.0078111132606863976,0.009218540042638779,0.0019408012740314007
1772905623601554700,4.0445546875,0.0058490196242928505,0.008340229280292988,-0.0017576867248862982
1772905623611554800,4.054554931640625,-0.000621737795881927,0.006124755833297968,-0.006355778314173222
1772905623621554700,4.0645546875,-0.006202473305165768,0.007487468887120485,-0.012411333620548248
1772905623631554800,4.074554931640625,-0.008839535526931286,0.008801208809018135,-0.014680038206279278
1772905623641554700,4.0845546875,-0.011078430339694023,0.009488953277468681,-0.017373524606227875
1772905623651554800,4.094554931640625,-0.013291774317622185,0.011423367075622082,-0.019769983366131783
1772905623661554700,4.1045546875,-0.016963647678494453,0.011606481857597828,-0.021700138226151466
1772905623671554800,4.114554931640625,-0.019337749108672142,0.01398803573101759,-0.025298552587628365
1772905623681554700,4.1245546875,-0.02063019573688507,0.014293581247329712,-0.02550295926630497
1772905623691554800,4.134554931640625,-0.022724302485585213,0.014594868756830692,-0.026309940963983536
1772905623701554700,4.1445546875,-0.023786792531609535,0.01611408032476902,-0.027562998235225677
1772905623711554800,4.154554931640625,-0.025294294580817223,0.01623331755399704,-0.0268465094268322
1772905623721554700,4.1645546875,-0.0259139034897089,0.019421853125095367,-0.027073273435235023
1772905623731554800,4.174554931640625,-0.02788344956934452,0.06511851400136948,-0.08118681609630585
1772905623741554700,4.1845546875,-0.03154893219470978,0.07433918118476868,-0.08583388477563858
1772905623751554800,4.194554931640625,-0.03402630239725113,0.0788521096110344,-0.08863170444965363
1772905623761554700,4.2045546875,-0.03534642979502678,0.08829421550035477,-0.09147316962480545
1772905623771554800,4.214554931640625,-0.035429470241069794,0.10576994717121124,-0.09373655170202255
1772905623781554700,4.2245546875,-0.03527190908789635,0.11247491836547852,-0.09336286783218384
1772905623791554800,4.234554931640625,-0.035052597522735596,0.1121821478009224,-0.09961538016796112
1772905623801554700,4.2445546875,-0.036343980580568314,0.11716137081384659,-0.10052243620157242
1772905623811554800,4.254554931640625,-0.03935472294688225,0.12048937380313873,-0.10673768818378448
1772905623821554700,4.2645546875,-0.04103895276784897,0.12053728103637695,-0.11255902051925659
1772905623831554800,4.274554931640625,-0.040860094130039215,0.1210259422659874,-0.11512582004070282
1772905623841554700,4.2845546875,-0.04022984206676483,0.1162404790520668,-0.11619576066732407
1772905623851554800,4.294554931640625,-0.03896933048963547,0.11188405752182007,-0.11769793927669525
1772905623861554700,4.3045546875,-0.038531772792339325,0.10519079118967056,-0.11725399643182755
1772905623871554800,4.314554931640625,-0.036998722702264786,0.09499599784612656,-0.12035948783159256
1772905623881554700,4.3245546875,-0.03472575917840004,0.0823696106672287,-0.11256434768438339
1772905623891554800,4.334554931640625,-0.02941650152206421,0.08308077603578568,-0.1057710126042366
1772905623901554700,4.3445546875,-0.02526767924427986,0.061251819133758545,-0.08714762330055237
1772905623911554800,4.354554931640625,-0.0238240547478199,0.03724784031510353,-0.07879567891359329
1772905623921554700,4.3645546875,-0.021271096542477608,0.023663297295570374,-0.05348967760801315
1772905623931554800,4.374554931640625,-0.020214995369315147,0.003729362040758133,-0.04176182672381401
1772905623941554700,4.3845546875,-0.018836311995983124,-0.004945157561451197,-0.0354912206530571
1772905623951554800,4.394554931640625,-0.015177215449512005,-0.0203683003783226,-0.023547254502773285
1772905623961554700,4.4045546875,-0.01072391215711832,-0.03071320801973343,-0.014453274197876453
1772905623971554800,4.414554931640625,-0.00832000095397234,-0.0403437539935112,-0.006848697084933519
1772905623981554700,4.4245546875,-0.007836664095520973,-0.0478312224149704,-0.0010475856252014637
1772905623991554800,4.434554931640625,-0.0071276272647082806,-0.056088414043188095,0.004709876608103514
1772905624001554700,4.4445546875,-0.004295739810913801,-0.06392613798379898,0.006297224201261997
1772905624011554800,4.454554931640625,-0.003567539853975177,-0.06653765588998795,0.008905542083084583
1772905624021554700,4.4645546875,-0.0002970288333017379,-0.06646952033042908,0.007083978038281202
1772905624031554800,4.474554931640625,0.0028137892950326204,-0.022711526602506638,0.005080364178866148
1772905624041554700,4.4845546875,0.006523988209664822,-0.0222388356924057,0.004126464948058128
1772905624051554800,4.494554931640625,0.009613513946533203,-0.023277904838323593,0.005390168633311987
1772905624061554700,4.5045546875,0.011416979134082794,-0.02343546785414219,0.004096655640751123
1772905624071554800,4.514554931640625,0.014966420829296112,-0.01978808268904686,0.0017321358900517225
1772905624081554700,4.5245546875,0.018792662769556046,-0.020665328949689865,0.0016118339262902737
1772905624091554800,4.534554931640625,0.02105710841715336,-0.018340200185775757,0.0003353551437612623
1772905624101554700,4.5445546875,0.02286589704453945,-0.017759982496500015,-0.0004407524538692087
1772905624111554800,4.554554931640625,0.02521551214158535,-0.0176002886146307,-0.0014361717039719224
1772905624121554700,4.5645546875,0.028159184381365776,-0.01698174513876438,-0.00196954607963562
1772905624131554800,4.574554931640625,0.02908327430486679,-0.016430271789431572,-0.0011753399157896638
1772905624141554700,4.5845546875,0.027510831132531166,-0.014821632765233517,-0.0010326808551326394
1772905624151554800,4.594554931640625,0.027293650433421135,-0.012756270356476307,-0.002623222302645445
1772905624161554700,4.6045546875,0.027462923899292946,-0.010690908879041672,-0.002325128996744752
1772905624171554800,4.614554931640625,0.02759706601500511,-0.008483952842652798,-0.0016991327283903956
1772905624181554700,4.6245546875,0.02667723409831524,-0.006184374447911978,-0.000857018691021949
1772905624191554800,4.634554931640625,0.026213061064481735,-0.0015138889430090785,-0.0003715521888807416
1772905624201554700,4.6445546875,0.025486990809440613,0.0007271351059898734,0.002275091828778386
1772905624211554800,4.654554931640625,0.02369949407875538,0.003501533530652523,0.0038454055320471525
1772905624221554700,4.6645546875,0.02288399636745453,0.006694327108561993,0.005093139596283436
1772905624231554800,4.674554931640625,0.022085530683398247,0.0056435479782521725,0.006666647270321846
1772905624241554700,4.6845546875,0.02125087007880211,0.008348746225237846,0.006991356145590544
1772905624251554800,4.694554931640625,0.022805213928222656,0.01128816045820713,0.008148597553372383
1772905624261554700,4.7045546875,0.022750917822122574,0.011962064541876316,0.009475113824009895
1772905624271554800,4.714554931640625,0.022220738232135773,0.015197442844510078,0.010209701023995876
1772905624281554700,4.7245546875,0.024503281340003014,0.015619032084941864,0.010500341653823853
1772905624291554800,4.734554931640625,0.02727874554693699,0.01503242738544941,0.011900316923856735
1772905624301554700,4.7445546875,0.025877704843878746,0.04505469650030136,0.03224625810980797
1772905624311554800,4.754554931640625,0.0249962005764246,0.047752443701028824,0.0319385826587677
1772905624321554700,4.7645546875,0.026067208498716354,0.05116987228393555,0.031931132078170776
1772905624331554800,4.774554931640625,0.02663571573793888,0.05219297111034393,0.03177144005894661
1772905624341554700,4.7845546875,0.0249248705804348,0.055922333151102066,0.031472280621528625
1772905624351554800,4.794554931640625,0.024647004902362823,0.05808883160352707,0.03148612007498741
1772905624361554700,4.8045546875,0.022901030257344246,0.05578073859214783,0.031178446486592293
1772905624371554800,4.814554931640625,0.02224096469581127,0.05995617434382439,0.02384854108095169
1772905624381554700,4.8245546875,0.021217865869402885,0.05480873957276344,0.024178573861718178
1772905624391554800,4.834554931640625,0.019387785345315933,0.05415293574333191,0.019300486892461777
1772905624411554800,4.854554931640625,0.01847008429467678,0.04209079593420029,0.0161577295511961
1772905624421554700,4.8645546875,0.017043493688106537,0.03919396549463272,0.0160863995552063
1772905624431554800,4.874554931640625,0.015439111739397049,0.036298200488090515,0.014173279516398907
1772905624441554700,4.8845546875,0.01478011254221201,0.031326428055763245,0.014048718847334385
1772905624451554800,4.894554931640625,0.014813115820288658,0.009804081171751022,0.006426043342798948
1772905624461554700,4.9045546875,0.013957161456346512,0.008422204293310642,0.005336937494575977
1772905624471554800,4.914554931640625,0.014711976982653141,0.006511212792247534,0.005021810065954924
1772905624491554800,4.934554931640625,0.017132921144366264,-0.0014138147234916687,0.007223443128168583
1772905624501554700,4.9445546875,0.01947295479476452,-0.0038038853090256453,0.008347681723535061
1772905624511554800,4.954554931640625,0.021408433094620705,-0.006624062545597553,0.011447853408753872
1772905624521554700,4.9645546875,0.02202058956027031,-0.008772464469075203,0.01188754104077816
1772905624541554700,4.9845546875,0.024270130321383476,-0.014146663248538971,0.012920222245156765
1772905624551554800,4.994554931640625,0.0265154130756855,-0.016793306916952133,0.014112595468759537
1772905624561554700,5.0045546875,0.026493055745959282,-0.018653197214007378,0.014205217361450195
1772905624571554800,5.014554931640625,0.025802118703722954,-0.017664166167378426,0.01287231408059597
1772905624581554700,5.0245546875,0.026027817279100418,-0.018223091959953308,0.011856666766107082
1772905624591554800,5.034554931640625,0.024891868233680725,-0.01856696419417858,0.011115691624581814
1772905624601554700,5.0445546875,0.020993230864405632,-0.018052753061056137,0.009701876901090145
1772905624611554800,5.054554931640625,0.017188280820846558,-0.016027845442295074,0.007181922905147076
1772905624631554800,5.074554931640625,0.00816350243985653,-0.010912349447607994,0.002513566520065069
1772905624641554700,5.0845546875,0.00676033366471529,-0.01088041067123413,0.0012285709381103516
1772905624651554800,5.094554931640625,0.004187148530036211,-0.011006035842001438,0.0001139142841566354
1772905624661554700,5.1045546875,0.0011455306084826589,-0.0097636254504323,-0.0011902445694431663
1772905624671554800,5.114554931640625,-0.0022431532852351665,-0.007834535092115402,-0.0027041335124522448
1772905624681554700,5.1245546875,-0.005520051810890436,-0.006202473305165768,-0.004456497263163328
1772905624691554800,5.134554931640625,-0.00936545804142952,-0.004788658581674099,-0.005558378528803587
1772905624701554700,5.1445546875,-0.012320841662585735,-0.0025689268950372934,-0.007395911496132612
1772905624711554800,5.154554931640625,-0.016312099993228912,-0.0020621679723262787,-0.00852440856397152
1772905624721554700,5.1645546875,-0.021476568654179573,0.0004897249746136367,-0.010528022423386574
1772905624731554800,5.174554931640625,-0.021473374217748642,0.0016501601785421371,-0.028542447835206985
1772905624741554700,5.1845546875,-0.021474439650774002,0.0016554832691326737,-0.02855202928185463
1772905624751554800,5.194554931640625,-0.021474439650774002,0.0016640002140775323,-0.028252871707081795
1772905624761554700,5.2045546875,-0.021478697657585144,0.0016650648321956396,-0.028261389583349228
1772905624771554800,5.214554931640625,-0.021475505083799362,0.001981256762519479,-0.02795051969587803
1772905624781554700,5.2245546875,-0.021627744659781456,0.001982321497052908,-0.02771523967385292
1772905624791554800,5.234554931640625,-0.02322041615843773,-0.0011114627122879028,-0.03035762533545494
1772905624801554700,5.2445546875,-0.02504623867571354,-0.001991902943700552,-0.029590032994747162
1772905624811554800,5.254554931640625,-0.027001943439245224,-0.0008176277624443173,-0.030174510553479195
1772905624821554700,5.2645546875,-0.026740048080682755,0.0005557313561439514,-0.032820090651512146
1772905624831554800,5.274554931640625,-0.025877704843878746,0.004409654065966606,-0.031932197511196136
1772905624841554700,5.2845546875,-0.027094565331935883,0.005475338082760572,-0.03402204439043999
1772905624851554800,5.294554931640625,-0.029315361753106117,0.007516213692724705,-0.03904704749584198
1772905624861554700,5.3045546875,-0.030180897563695908,0.010682391934096813,-0.04085051268339157
1772905624871554800,5.314554931640625,-0.03066636435687542,0.013464242219924927,-0.04279451072216034
1772905624881554700,5.3245546875,-0.03203759342432022,0.015527474693953991,-0.04485774040222168
1772905624891554800,5.334554931640625,-0.03414341062307358,0.018914029002189636,-0.04680173844099045
1772905624901554700,5.3445546875,-0.03405291959643364,0.02231336012482643,-0.049363210797309875
1772905624911554800,5.354554931640625,-0.0338197685778141,0.019795535132288933,-0.04584464430809021
1772905624921554700,5.3645546875,-0.0351601243019104,0.023442920297384262,-0.04551141709089279
1772905624931554800,5.374554931640625,-0.03587767481803894,0.027703527361154556,-0.04665162414312363
1772905624941554700,5.3845546875,-0.03405291959643364,0.02987854555249214,-0.04611292853951454
1772905624951554800,5.394554931640625,-0.032188769429922104,0.030002040788531303,-0.0415978766977787
1772905624961554700,5.4045546875,-0.030563095584511757,0.03208975866436958,-0.03863716870546341
1772905624971554800,5.414554931640625,-0.029187608510255814,0.029715659096837044,-0.03347589448094368
1772905624981554700,5.4245546875,-0.02792816236615181,0.029937099665403366,-0.03028522990643978
1772905624991554800,5.434554931640625,-0.025197414681315422,0.030579065904021263,-0.026929549872875214
1772905625001554700,5.4445546875,-0.022154731675982475,0.02754170633852482,-0.023375850170850754
1772905625011554800,5.454554931640625,-0.018761789426207542,0.02264871448278427,-0.019409077242016792
1772905625021554700,5.4645546875,-0.015642454847693443,0.018549930304288864,-0.0146491639316082
1772905625031554800,5.474554931640625,-0.011950354091823101,0.015022845938801765,-0.011972710490226746
1772905625041554700,5.4845546875,-0.008840600028634071,0.009309032931923866,-0.006684745661914349
1772905625051554800,5.494554931640625,-0.004698165692389011,0.008232702501118183,-0.0033184189815074205
1772905625061554700,5.5045546875,0.00046630334691144526,0.0012807372258976102,0.0023943292908370495
1772905625071554800,5.514554931640625,0.00046310946345329285,0.0009592221467755735,0.002396458527073264
1772905625081554700,5.5245546875,0.00046204484533518553,0.0009602867648936808,0.002402846235781908
1772905625091554800,5.534554931640625,0.0006206731777638197,0.0006462240125983953,0.0024071047082543373
1772905625101554700,5.5445546875,0.000621737795881927,0.00032577355159446597,0.002406039973720908
1772905625111554800,5.554554931640625,0.0007718491251580417,0.00033216128940694034,0.0021015589591115713
1772905625121554700,5.5645546875,0.0009240896906703711,0.000029809345505782403,0.0021782114636152983
1772905625131554800,5.574554931640625,0.0007686552708037198,-0.00027999491430819035,0.002173952991142869
1772905625141554700,5.5845546875,0.0007718491251580417,-0.00026934873312711716,0.0018598901806399226
1772905625151554800,5.594554931640625,0.0007750429795123637,-0.00027467182371765375,0.001854567090049386
1772905625161554700,5.6045546875,0.0006196085596457124,-0.0002842534158844501,0.0018556317081674933
1772905625171554800,5.614554931640625,0.0004694972012657672,0.000022357009584084153,0.0015447628684341908
1772905625181554700,5.6245546875,0.0004726910556200892,0.00015011134382802993,0.0012456048280000687
1772905625191554800,5.634554931640625,0.00047056181938387454,-0.00015224058006424457,0.00125305715482682
1772905625201554700,5.6445546875,0.000322579697240144,0.00016075753956101835,0.0009347359300591052
1772905625211554800,5.654554931640625,0.00016927449905779213,0.00046630334691144526,0.0006206731777638197
1772905625221554700,5.6645546875,0.000017033911717589945,0.0007697198889218271,0.00031938584288582206
1772905625231554800,5.674554931640625,-0.0001394651480950415,0.001075265696272254,0.000006387716894096229
1772905625241554700,5.6845546875,-0.000290641124593094,0.0013903930084779859,-0.0003098042798228562
1772905625251554800,5.694554931640625,-0.000450334046036005,0.0013935868628323078,-0.0006174793234094977
1772905625261554700,5.7045546875,-0.000607897702138871,0.001700197346508503,-0.0009208958363160491
1772905625271554800,5.714554931640625,-0.0007622675620950758,0.001998290652409196,-0.0012232477311044931
1772905625281554700,5.7245546875,-0.0007622675620950758,0.002000420121476054,-0.0015277289785444736
1772905625291554800,5.734554931640625,-0.0007569444715045393,0.0016852926928550005,-0.0015298582147806883
1772905625301554700,5.7445546875,-0.0009102496551349759,0.0013648421736434102,-0.0018332747276872396
1772905625311554800,5.754554931640625,-0.0010592964245006442,0.0010656841332092881,-0.0018407270545139909
1772905625321554700,5.7645546875,-0.0010635548969730735,0.0007537506171502173,-0.0018481793813407421
1772905625331554800,5.774554931640625,-0.0012221831129863858,0.0004428817192092538,-0.0021686297841370106
1772905625341554700,5.7845546875,-0.0010710072237998247,0.00013733591185882688,-0.0024816279765218496
1772905625351554800,5.794554931640625,-0.0009187666000798345,-0.0001777914585545659,-0.0021643713116645813
1772905625361554700,5.8045546875,-0.0009187666000798345,-0.00048759570927359164,-0.0020621679723262787
1772905625371554800,5.814554931640625,-0.0009145081276074052,-0.0007942061056382954,-0.002065361710265279
1772905625381554700,5.8245546875,-0.00106887798756361,-0.001095493440516293,-0.0023677137214690447
1772905625391554800,5.834554931640625,-0.0012232477311044931,-0.0014021038077771664,-0.002688164124265313
1772905625401554700,5.8445546875,-0.0012232477311044931,-0.001407426898367703,-0.002990516135469079
1772905625411554800,5.854554931640625,-0.0012211184948682785,-0.0013967807171866298,-0.002995839109644294
1772905625421554700,5.8645546875,-0.0012179246405139565,-0.0017119081458076835,-0.0030022270511835814
1772905625431554800,5.874554931640625,-0.001377617591060698,-0.0017129727639257908,-0.0033003203570842743
1772905625441554700,5.8845546875,-0.0013797468272969127,-0.0017065850552171469,-0.003292868146672845
1772905625451554800,5.894554931640625,-0.0015362459234893322,-0.00171723123639822,-0.0033013850916177034
1772905625461554700,5.9045546875,-0.001693809637799859,-0.0014159439597278833,-0.003618641523644328
1772905625471554800,5.914554931640625,-0.001700197346508503,-0.00142126705031842,-0.0036069308407604694
1772905625481554700,5.9245546875,-0.001854567090049386,-0.0014297839952632785,-0.003609060076996684
1772905625491554800,5.934554931640625,-0.0020110663026571274,-0.0014329778496176004,-0.003913541324436665
1772905625501554700,5.9445546875,-0.0020110663026571274,-0.0011242381297051907,-0.004214828368276358
1772905625511554800,5.954554931640625,-0.002018518513068557,-0.0014255255227908492,-0.0042180223390460014
1772905625521554700,5.9645546875,-0.0021760822273790836,-0.0012424109736457467,-0.0042254747822880745
1772905625531554800,5.974554931640625,-0.002328322734683752,-0.000944317493122071,-0.004533149767667055
1772905625541554700,5.9845546875,-0.0023336459416896105,-0.000947511347476393,-0.004521438851952553
1772905625551554800,5.994554931640625,-0.0023368396796286106,-0.0009496405837126076,-0.004520374350249767
1772905625561554700,6.0045546875,-0.002180340699851513,-0.0012551863910630345,-0.004223345313221216
1772905625571554800,6.014554931640625,-0.0020249062217772007,-0.001555409049615264,-0.003917799796909094
1772905625581554700,6.0245546875,-0.0018726657144725323,-0.0018620194168761373,-0.0036037368699908257
1772905625591554800,6.034554931640625,0.0006419655401259661,-0.003831565612927079,0.0009400590206496418
1772905625601554700,6.0445546875,0.005886280909180641,-0.006363230757415295,0.003261994104832411
1772905625611554800,6.054554931640625,0.011299870908260345,-0.009783852845430374,0.008834212087094784
1772905625621554700,6.0645546875,0.015721235424280167,-0.0115372808650136,0.012795661576092243
1772905625631554800,6.074554931640625,0.019541090354323387,-0.014604450203478336,0.016660230234265327
1772905625641554700,6.0845546875,0.023762306198477745,-0.017019007354974747,0.019871123135089874
1772905625651554800,6.094554931640625,0.02800162136554718,-0.017495956271886826,0.023602614179253578
1772905625661554700,6.1045546875,0.032216448336839676,-0.016914675012230873,0.027070078998804092
1772905625671554800,6.114554931640625,0.03559768199920654,-0.01750766672194004,0.030747275799512863
1772905625681554700,6.1245546875,0.038266681134700775,-0.01683376356959343,0.032551806420087814
1772905625691554800,6.134554931640625,0.0398188978433609,-0.014909995719790459,0.03405717760324478
1772905625701554700,6.1445546875,0.04194813594222069,-0.012926610186696053,0.034786440432071686
1772905625711554800,6.154554931640625,0.043649397790431976,-0.009711459279060364,0.035653043538331985
1772905625721554700,6.1645546875,0.04824110120534897,-0.005442334804683924,0.03674747049808502
1772905625731554800,6.174554931640625,0.052267491817474365,-0.0018833118956536055,0.03945054113864899
1772905625741554700,6.1845546875,0.05316603183746338,0.00239007081836462,0.040822833776474
1772905625751554800,6.194554931640625,0.05341408774256706,0.007782368455082178,0.03961874917149544
1772905625761554700,6.2045546875,0.05448722466826439,0.011950354091823101,0.038845837116241455
1772905625771554800,6.214554931640625,0.0563332736492157,0.0161577295511961,0.03906940668821335
1772905625781554700,6.2245546875,0.05502272769808769,0.01995629258453846,0.03926423192024231
1772905625791554800,6.234554931640625,0.05374199151992798,0.025928808376193047,0.036223676055669785
1772905625801554700,6.2445546875,0.05291371792554855,0.02915566973388195,0.03531768545508385
1772905625811554800,6.254554931640625,0.05434669554233551,0.032429374754428864,0.03388683870434761
1772905625821554700,6.2645546875,0.056207649409770966,0.03444043919444084,0.03333749622106552
1772905625831554800,6.274554931640625,0.0578727163374424,0.035869158804416656,0.03282221779227257
1772905625841554700,6.2845546875,0.056664373725652695,0.03656648471951485,0.03273491933941841
1772905625851554800,6.294554931640625,0.05646635219454765,0.03919609636068344,0.031117763370275497
1772905625861554700,6.3045546875,0.05548157915472984,0.0385594516992569,0.031955618411302567
1772905625871554800,6.314554931640625,0.05513131991028786,0.038027144968509674,0.031233806163072586
1772905625881554700,6.3245546875,0.05522926524281502,0.0368368998169899,0.031616006046533585
1772905625891554800,6.334554931640625,0.05566682294011116,0.03661971539258957,0.0325145423412323
1772905625901554700,6.3445546875,0.05656110495328903,0.034906744956970215,0.03403801470994949
1772905625911554800,6.354554931640625,0.05832517892122269,0.03371969237923622,0.036209836602211
1772905625921554700,6.3645546875,0.06147538870573044,0.031607486307621,0.03858606889843941
1772905625931554800,6.374554931640625,0.06383351981639862,0.03146376460790634,0.039852965623140335
1772905625941554700,6.3845546875,0.06226320564746857,0.0309804268181324,0.041392404586076736
1772905625951554800,6.394554931640625,0.05811864137649536,0.031662847846746445,0.038367822766304016
1772905625961554700,6.4045546875,0.05665266141295433,0.032261162996292114,0.03633120283484459
1772905625971554800,6.414554931640625,0.05559868738055229,0.03171607851982117,0.0362715870141983
1772905625981554700,6.4245546875,0.054982274770736694,0.0341455414891243,0.0347321443259716
1772905625991554800,6.434554931640625,0.055368728935718536,0.033486541360616684,0.034259453415870667
1772905626001554700,6.4445546875,0.05537831038236618,0.032371886074543,0.0330042690038681
1772905626011554800,6.454554931640625,0.05446486920118332,0.03383147716522217,0.03068872168660164
1772905626021554700,6.4645546875,0.052008792757987976,0.033565323799848557,0.030422566458582878
1772905626031554800,6.474554931640625,0.05155100300908089,0.03142969682812691,0.027867479249835014
1772905626041554700,6.4845546875,0.051044244319200516,0.029743339866399765,0.028061240911483765
1772905626051554800,6.494554931640625,0.04952077567577362,0.025969263166189194,0.02727768011391163
1772905626061554700,6.5045546875,0.04321929067373276,0.022301649674773216,0.02581276372075081
1772905626071554800,6.514554931640625,0.03758852183818817,0.02036723494529724,0.02165861800312996
1772905626081554700,6.5245546875,0.03618535026907921,0.016273774206638336,0.01944953389465809
1772905626091554800,6.534554931640625,0.03715734928846359,0.012572091072797775,0.019511280581355095
1772905626101554700,6.5445546875,0.035315558314323425,0.007414009887725115,0.020781371742486954
1772905626111554800,6.554554931640625,0.03269340097904205,0.004710941109806299,0.018521185964345932
1772905626121554700,6.5645546875,0.033370498567819595,0.0000542955931450706,0.0185893215239048
1772905626131554800,6.574554931640625,0.033031947910785675,-0.008306161500513554,0.01956983469426632
1772905626141554700,6.5845546875,0.03228352218866348,-0.01154047530144453,0.018844829872250557
1772905626151554800,6.594554931640625,0.030298005789518356,-0.016026781871914864,0.019338812679052353
1772905626161554700,6.6045546875,0.028396595269441605,-0.018244383856654167,0.019314326345920563
1772905626171554800,6.614554931640625,0.0266122929751873,-0.019705042243003845,0.01971994712948799
1772905626181554700,6.6245546875,0.028160249814391136,-0.02058441750705242,0.019420787692070007
1772905626191554800,6.634554931640625,0.029725240543484688,-0.022962776944041252,0.020237350836396217
1772905626201554700,6.6445546875,0.03196094185113907,-0.021593676880002022,0.020009523257613182
1772905626211554800,6.654554931640625,0.033294908702373505,-0.02106243185698986,0.020953841507434845
1772905626221554700,6.6645546875,0.0329073891043663,-0.019703976809978485,0.021415885537862778
1772905626231554800,6.674554931640625,0.03246983140707016,-0.05258900672197342,0.055586978793144226
1772905626241554700,6.6845546875,0.0314190499484539,-0.04778651148080826,0.05158613622188568
1772905626251554800,6.694554931640625,0.029500605538487434,-0.044366952031850815,0.04588829353451729
1772905626261554700,6.7045546875,0.02619922161102295,-0.03850409388542175,0.039663463830947876
1772905626271554800,6.714554931640625,0.021332845091819763,-0.02925361506640911,0.03018515557050705
1772905626281554700,6.7245546875,0.017666295170783997,-0.021115662530064583,0.01992861181497574
1772905626291554800,6.734554931640625,0.016393011435866356,-0.013656938448548317,0.013045847415924072
1772905626301554700,6.7445546875,0.013437626883387566,-0.010512053035199642,0.00800806749612093
1772905626311554800,6.754554931640625,0.010665358044207096,-0.0005248574307188392,-0.002204827032983303
1772905626321554700,6.7645546875,0.007060556206852198,-0.0004439463373273611,-0.006750752218067646
1772905626331554800,6.774554931640625,0.0025891545228660107,0.0025614744517952204,-0.015444435179233551
1772905626341554700,6.7845546875,-0.0016320616705343127,0.003941221162676811,-0.021343491971492767
1772905626351554800,6.794554931640625,-0.0040945266373455524,0.0016959388740360737,-0.024648070335388184
1772905626361554700,6.8045546875,-0.0044607557356357574,0.0005897991941310465,-0.028690431267023087
1772905626371554800,6.814554931640625,-0.005557313561439514,0.0010667487513273954,-0.02590964362025261
1772905626381554700,6.8245546875,-0.0070264884270727634,0.00018737302161753178,-0.028134699910879135
1772905626391554800,6.834554931640625,-0.007052039261907339,0.0015128243248909712,-0.02802504412829876
1772905626401554700,6.8445546875,-0.005188955459743738,-0.0002959642151836306,-0.02701684832572937
1772905626411554800,6.854554931640625,-0.003433397738263011,-0.00481527391821146,-0.02274453081190586
1772905626421554700,6.8645546875,-0.0027775922790169716,-0.005205989349633455,-0.02012450248003006
1772905626431554800,6.874554931640625,-0.0038454055320471525,-0.009897767566144466,-0.01714356802403927
1772905626441554700,6.8845546875,-0.0029277035500854254,-0.006926414556801319,-0.01820392906665802
1772905626451554800,6.894554931640625,-0.0019961614161729813,-0.010591899044811726,-0.012758400291204453
1772905626461554700,6.9045546875,-0.0013637775555253029,-0.007781303953379393,-0.013148050755262375
1772905626471554800,6.914554931640625,0.00025976714096032083,-0.0009656098554842174,-0.00779833784326911
1772905626481554700,6.9245546875,0.0018428562907502055,-0.000772913743276149,-0.003481305669993162
1772905626491554800,6.934554931640625,0.0025550867430865765,0.00295431911945343,-0.0010465210070833564
1772905626501554700,6.9445546875,0.0027467182371765375,0.0036058661062270403,0.0007846245425753295
1772905626511554800,6.954554931640625,0.002865955699235201,0.0037570421118289232,0.0010592964245006442
1772905626521554700,6.9645546875,0.002529535908252001,0.004281899426132441,0.002077072625979781
1772905626531554800,6.974554931640625,0.0011689522070810199,0.004026391077786684,0.004169049672782421
1772905626541554700,6.9845546875,-0.0000841049404698424,0.002035552402958274,0.002564668422564864
1772905626551554800,6.994554931640625,-0.0010699426056817174,0.0020153247751295567,0.00194505974650383
1772905626561554700,7.0045546875,-0.0007771722157485783,0.0011998261325061321,0.000015969291780493222
1772905626571554800,7.014554931640625,-0.000776107597630471,0.001206213841214776,-0.0002171823725802824
1772905626581554700,7.0245546875,-0.000772913743276149,0.0009017327101901174,-0.0005237928126007318
1772905626591554800,7.034554931640625,-0.0006228024140000343,0.000601509993430227,-0.0005248574307188392
1772905626601554700,7.0445546875,-0.0006228024140000343,0.0003012873057741672,-0.0005280512850731611
1772905626611554800,7.054554931640625,-0.0006228024140000343,0.000004258477929397486,-0.00022037622693460435
1772905626621554700,7.0645546875,-0.0006238670321181417,-0.00030022268765605986,0.000008516955858794972
1772905626631554800,7.074554931640625,-0.001747040543705225,-0.008812920190393925,0.0074086869135499
1772905626641554700,7.0845546875,0.000967739091720432,-0.012194151990115643,0.010548249818384647
1772905626651554800,7.094554931640625,0.006366424728184938,-0.018701106309890747,0.02461293712258339
1772905626661554700,7.1045546875,0.009938223287463188,-0.02598203904926777,0.03522719442844391
1772905626671554800,7.114554931640625,0.010532280430197716,-0.0274224691092968,0.040979333221912384
1772905626681554700,7.1245546875,0.010380039922893047,-0.029981814324855804,0.04157126322388649
1772905626691554800,7.134554931640625,0.01001274585723877,-0.029432469978928566,0.041076213121414185
1772905626701554700,7.1445546875,0.010968774557113647,-0.0287021417170763,0.03769711032509804
1772905626711554800,7.154554931640625,0.012240994721651077,-0.03104962781071663,0.033370498567819595
1772905626721554700,7.1645546875,0.012807372026145458,-0.029624102637171745,0.0279324222356081
1772905626731554800,7.174554931640625,0.009541119448840618,-0.029291940852999687,0.023212963715195656
1772905626741554700,7.1845546875,0.006600640714168549,-0.021945001557469368,0.007606706116348505
1772905626751554800,7.194554931640625,0.005303934216499329,-0.020665328949689865,0.002173952991142869
1772905626761554700,7.2045546875,0.004327678121626377,-0.013909253291785717,-0.008481823839247227
1772905626771554800,7.214554931640625,0.0035057920031249523,-0.010850601829588413,-0.02459058165550232
1772905626781554700,7.2245546875,-0.00018737302161753178,-0.009826437570154667,-0.03532513976097107
1772905626791554800,7.234554931640625,-0.004389426205307245,-0.004709876608103514,-0.050564102828502655
1772905626801554700,7.2445546875,-0.006778432056307793,-0.004658774938434362,-0.061853326857089996
1772905626811554800,7.254554931640625,-0.006831663195043802,-0.0053241620771586895,-0.0730467364192009
1772905626821554700,7.2645546875,-0.00658573629334569,-0.007619481533765793,-0.07588820904493332
1772905626831554800,7.274554931640625,-0.006661324296146631,-0.015254932455718517,-0.0806523784995079
1772905626841554700,7.2845546875,-0.0067965309135615826,-0.01954854279756546,-0.08129327744245529
1772905626851554800,7.294554931640625,-0.005253897048532963,-0.01967097446322441,-0.0812230110168457
1772905626871554800,7.314554931640625,-0.004198859445750713,-0.02826671116054058,-0.07397827506065369
1772905626881554700,7.3245546875,-0.0013903930084779859,-0.03419877216219902,-0.06650996953248978
1772905626891554800,7.334554931640625,0.001679969485849142,-0.03347163647413254,-0.0571083165705204
1772905626901554700,7.3445546875,0.004342583008110523,-0.03664207458496094,-0.04697420448064804
1772905626911554800,7.354554931640625,0.006005518604069948,-0.04077386111021042,-0.03064294345676899
1772905626921554700,7.3645546875,0.007985711097717285,-0.040094632655382156,-0.020549286156892776
1772905626931554800,7.374554931640625,0.010686649940907955,-0.041293397545814514,-0.010765432380139828
1772905626941554700,7.3845546875,0.014223316684365273,-0.04127955436706543,0.0001980192173505202
1772905626951554800,7.394554931640625,0.01685612089931965,-0.0427551195025444,0.015889445319771767
1772905626961554700,7.4045546875,0.01993606425821781,-0.04109537601470947,0.024154087528586388
1772905626971554800,7.414554931640625,0.024692784994840622,-0.024897191673517227,0.028108082711696625
1772905626991554800,7.434554931640625,0.02173101343214512,-0.014810985885560513,0.028158120810985565
1772905627001554700,7.4445546875,0.01983598992228508,-0.0013797468272969127,0.016314228996634483
1772905627011554800,7.454554931640625,0.02221222035586834,0.005746815819293261,0.016007618978619576
1772905627021554700,7.4645546875,0.024907836690545082,0.010332131758332253,0.019830666482448578
1772905627031554800,7.474554931640625,0.0255008302628994,0.006487790960818529,0.021387141197919846
1772905627041554700,7.4845546875,0.02490677312016487,0.007471499498933554,0.019025815650820732
1772905627051554800,7.494554931640625,0.024769436568021774,0.018330618739128113,0.014342553913593292
1772905627061554700,7.5045546875,0.021892834454774857,0.0180080384016037,0.017950549721717834
1772905627071554800,7.514554931640625,0.020644037052989006,0.02180234156548977,0.010056396014988422
1772905627081554700,7.5245546875,0.020212866365909576,0.019149310886859894,0.01781640760600567
1772905627091554800,7.534554931640625,0.0182731281965971,0.018871445208787918,0.01623544655740261
1772905627101554700,7.5445546875,0.016223736107349396,0.01625674031674862,0.01724151335656643
1772905627111554800,7.554554931640625,0.014640646986663342,0.01409662701189518,0.02488122135400772
1772905627121554700,7.5645546875,0.014984519220888615,0.013128887861967087,0.027008332312107086
1772905627131554800,7.574554931640625,0.016768820583820343,0.012715814635157585,0.03395071625709534
1772905627141554700,7.5845546875,0.01923873834311962,0.00956880021840334,0.04015318676829338
1772905627151554800,7.594554931640625,0.01897577755153179,0.004821661859750748,0.04971666634082794
1772905627161554700,7.6045546875,0.016173699870705605,0.0054551102221012115,0.04708598926663399
1772905627171554800,7.614554931640625,0.015451887622475624,0.012320841662585735,0.03840082511305809
1772905627181554700,7.6245546875,0.015253867954015732,0.013996552675962448,0.04170646890997887
1772905627191554800,7.634554931640625,0.013654809445142746,0.01031403336673975,0.04267846420407295
1772905627201554700,7.6445546875,0.015859635546803474,0.01409875601530075,0.03455328941345215
1772905627211554800,7.654554931640625,0.0173660721629858,0.008746913634240627,0.04747563973069191
1772905627221554700,7.6645546875,0.017659908160567284,0.013719751499593258,0.04245170205831528
1772905627231554800,7.674554931640625,0.01851160265505314,0.010991131886839867,0.045786090195178986
1772905627241554700,7.6845546875,0.01960070990025997,0.011724654585123062,0.043885745108127594
1772905627251554800,7.694554931640625,0.018098531290888786,0.013028813526034355,0.022992586717009544
1772905627261554700,7.7045546875,0.016272708773612976,0.012477340176701546,0.015028168447315693
1772905627271554800,7.714554931640625,0.013573898002505302,0.013449338264763355,0.0069892266765236855
1772905627281554700,7.7245546875,0.010190538130700588,0.013738914392888546,-0.0020568447653204203
1772905627291554800,7.734554931640625,0.007713167928159237,0.015242157503962517,-0.014981325715780258
1772905627301554700,7.7445546875,0.004781206138432026,0.014188183471560478,-0.021770404651761055
1772905627311554800,7.754554931640625,0.0013084172969684005,0.007917575538158417,-0.031116697937250137
1772905627321554700,7.7645546875,-0.0023464213591068983,0.006312129087746143,-0.038265619426965714
1772905627331554800,7.774554931640625,-0.003531342837959528,0.007771722041070461,-0.04499614238739014
1772905627341554700,7.7845546875,-0.005058007314801216,0.0029809344559907913,-0.04396452754735947
1772905627351554800,7.794554931640625,-0.00803255382925272,-0.001408491632901132,-0.04870953410863876
1772905627361554700,7.8045546875,-0.01042262464761734,-0.0030905904714018106,-0.052030082792043686
1772905627371554800,7.814554931640625,-0.010499277152121067,-0.000060683309129672125,-0.053204357624053955
1772905627381554700,7.8245546875,-0.010859118774533272,-0.0014670456293970346,-0.04820277541875839
1772905627391554800,7.834554931640625,-0.012144114822149277,-0.008480758406221867,-0.041124120354652405
1772905627401554700,7.8445546875,-0.00998825952410698,-0.009074816480278969,-0.039944522082805634
1772905627411554800,7.854554931640625,-0.005627578590065241,-0.01246562972664833,-0.029891321435570717
1772905627421554700,7.8645546875,-0.0024113631807267666,-0.016301453113555908,-0.023448243737220764
1772905627431554800,7.874554931640625,0.0006717749056406319,-0.01712546870112419,-0.01796545460820198
1772905627441554700,7.8845546875,0.003545182989910245,-0.020829280838370323,-0.010310839861631393
1772905627451554800,7.894554931640625,0.005797917488962412,-0.02125619165599346,-0.0033418405801057816
1772905627461554700,7.9045546875,0.008998163975775242,-0.021607516333460808,0.003699552733451128
1772905627471554800,7.914554931640625,0.011264738626778126,-0.02579253539443016,0.010427948087453842
1772905627481554700,7.9245546875,0.011184892617166042,-0.023550447076559067,0.014535250142216682
1772905627491554800,7.934554931640625,0.011497890576720238,-0.019084369763731956,0.015792565420269966
1772905627501554700,7.9445546875,0.014048718847334385,-0.01772591471672058,0.020226705819368362
1772905627511554800,7.954554931640625,0.014692813158035278,-0.01740759238600731,0.031450990587472916
1772905627521554700,7.9645546875,0.01487699244171381,-0.01538162212818861,0.028949132189154625
1772905627531554800,7.974554931640625,0.014933417551219463,-0.012557187117636204,0.02809743769466877
1772905627541554700,7.9845546875,0.012780756689608097,-0.010684520937502384,0.02838381938636303
1772905627551554800,7.994554931640625,0.01031403336673975,-0.004824855364859104,0.018980035558342934
1772905627561554700,8.0045546875,0.007213861681520939,-0.004061523359268904,0.017040299251675606
1772905627571554800,8.014554931640625,0.0032907389104366302,-0.0027158441953361034,0.0067071025259792805
1772905627581554700,8.0245546875,-0.00045778637286275625,-0.0004237185639794916,-0.000290641124593094
1772905627591554800,8.034554931640624,-0.0006174793234094977,-0.0007260704878717661,-0.0005961869028396904
1772905627601554700,8.0445546875,-0.0007707845070399344,-0.0007345874328166246,-0.0009113142732530832
1772905627611554800,8.054554931640626,-0.0009219604544341564,-0.0004301062726881355,-0.0012147307861596346
1772905627621554700,8.0645546875,-0.0010805887868627906,-0.0007281997241079807,-0.0015277289785444736
1772905627631554800,8.074554931640625,-0.0012370878830552101,-0.001041197800077498,-0.001525599742308259
1772905627641554700,8.0845546875,-0.0012360232649371028,-0.0013424851931631565,-0.0018364685820415616
1772905627651554800,8.094554931640625,-0.0012370878830552101,-0.0013435498112812638,-0.0018428562907502055
1772905627661554700,8.1045546875,-0.0012317647924646735,-0.0016512247966602445,-0.002149466658011079
1772905627671554800,8.114554931640624,-0.0012307001743465662,-0.0016416432335972786,-0.0021345620043575764
1772905627681554700,8.1245546875,-0.0013829406816512346,-0.0019461243646219373,-0.002144143683835864
1772905627691554800,8.134554931640626,-0.0015373105416074395,-0.001948253600858152,-0.002149466658011079
1772905627701554700,8.1445546875,-0.0015383751597255468,-0.0019546414259821177,-0.0021420144475996494
1772905627711554800,8.154554931640625,-0.0015383751597255468,-0.0022740273270756006,-0.002143078949302435
1772905627721554700,8.1645546875,-0.0013829406816512346,-0.001965287607163191,-0.0024582063779234886
1772905627731554800,8.174554931640625,-0.0013861345360055566,-0.0016650648321956396,-0.002156919101253152
1772905627741554700,8.1845546875,-0.0013850699178874493,-0.0016576125053688884,-0.0021590483374893665
1772905627751554800,8.194554931640624,-0.0013861345360055566,-0.0013563252286985517,-0.0021579836029559374
1772905627761554700,8.2045546875,-0.0012285709381103516,-0.0010603610426187515,-0.0021526606287807226
1772905627771554800,8.214554931640626,-0.001075265696272254,-0.0007494920864701271,-0.0021579836029559374
1772905627781554700,8.2245546875,-0.001075265696272254,-0.0004450109554454684,-0.0018503086175769567
1772905627791554800,8.234554931640625,-0.0010763303143903613,-0.00044607557356357574,-0.0018566963262856007
1772905627801554700,8.2445546875,-0.0009219604544341564,-0.00013733591185882688,-0.0018460501451045275
1772905627811554800,8.254554931640625,-0.0007707845070399344,-0.00014052976621314883,-0.001525599742308259
1772905627821554700,8.2645546875,-0.0007707845070399344,0.00017459758964832872,-0.0018407270545139909
1772905627831554800,8.274554931640624,-0.0006100269383750856,0.00017140373529400676,-0.0015330520691350102
1772905627841554700,8.2845546875,-0.00045672175474464893,0.00017992069479078054,-0.0012317647924646735
1772905627851554800,8.294554931640626,-0.00030767504358664155,0.0004961126833222806,-0.0012381525011733174
1772905627861554700,8.3045546875,-0.0001575636852066964,0.0006174793234094977,-0.0009240896906703711
1772905627871554800,8.314554931640625,0.0000010646194823493715,0.0006259962683543563,-0.0006142854690551758
1772905627881554700,8.3245546875,0.0000010646194823493715,0.0006291901227086782,-0.0006259962683543563
1772905627891554800,8.334554931640625,0.00016075753956101835,0.0009379297844134271,-0.0006259962683543563
1772905627901554700,8.3445546875,0.00016288677579723299,0.0006302547408267856,-0.00031832122476771474
1772905627911554800,8.354554931640624,0.00016927449905779213,0.0006345132132992148,-0.000008516955858794972
1772905627921554700,8.3645546875,0.00016182215767912567,0.0006409009220078588,-0.000006387716894096229
1772905627931554800,8.374554931640626,0.00016182215767912567,0.0009453821112401783,0.0002917057427112013
1772905627941554700,8.3845546875,0.0001575636852066964,0.0009432528750039637,0.0006025746115483344
1772905627951554800,8.394554931640625,0.00015543444897048175,0.0009517698199488223,0.0006004453753121197
1772905627961554700,8.4045546875,0.00015969292144291103,0.0009496405837126076,0.0009198312181979418
1772905627971554800,8.414554931640625,0.0001586283033248037,0.0009634806192480028,0.0009102496551349759
1772905627981554700,8.4245546875,0.0000031938584470481146,0.0009592221467755735,0.0009177019819617271
1772905627991554800,8.434554931640625,-0.00015011134382802993,0.0009528344380669296,0.0009198312181979418
1772905628001554700,8.4445546875,-0.00030767504358664155,0.0009613513830117881,0.0009145081276074052
1772905628011554800,8.454554931640626,-0.00030873966170474887,0.001266897190362215,0.0009049265645444393
1772905628021554700,8.4645546875,-0.00015224058006424457,0.001266897190362215,0.0012221831129863858
1772905628031554800,8.474554931640625,0.000004258477929397486,0.0009613513830117881,0.0015309228328987956
1772905628041554700,8.4845546875,0.000008516955858794972,0.0009570929105393589,0.0012243123492226005
1772905628051554800,8.494554931640625,0.000011710813851095736,0.001266897190362215,0.0012275063199922442
1772905628061554700,8.5045546875,0.000013840053725289181,0.0009496405837126076,0.0015341166872531176
1772905628071554800,8.514554931640625,0.00016927449905779213,0.0006462240125983953,0.0012253769673407078
1772905628081554700,8.5245546875,0.0003279027878306806,0.00033854899811558425,0.0015266643604263663
1772905628091554800,8.534554931640624,0.000485466473037377,0.00004152016117586754,0.0018364685820415616
1772905628101554700,8.5445546875,0.0004790787643287331,0.000046843255404382944,0.0020983649883419275
1772905628111554800,8.554554931640626,0.0004801433824468404,0.000050037117034662515,0.0024049754720181227
1772905628121554700,8.5645546875,0.00047801414621062577,0.000051101735152769834,0.0024007169995456934
1772905628131554800,8.574554931640625,0.00047694952809251845,0.000050037117034662515,0.0024134924169629812
1772905628141554700,8.5845546875,0.000322579697240144,-0.0002661548787727952,0.002401781501248479
1772905628151554800,8.594554931640625,0.00017033911717589945,-0.00026402564253658056,0.002090912777930498
1772905628161554700,8.6045546875,0.0001735329715302214,-0.0002714779693633318,0.0020919772796332836
1772905628171554800,8.614554931640624,0.000015969291780493222,-0.0002725425874814391,0.001790690002962947
1772905628181554700,8.6245546875,-0.0001384005299769342,-0.00027573644183576107,0.0014862087555229664
1772905628191554800,8.634554931640626,-0.0002917057427112013,-0.0005951222847215831,0.0011753399157896638
1772905628201554700,8.6445546875,-0.00044607557356357574,-0.0006004453753121197,0.0008644710178487003
1772905628211554800,8.654554931640625,-0.0006025746115483344,-0.0006132208509370685,0.000561054446734488
1772905628221554700,8.6645546875,-0.0007590737077407539,-0.0003161919885315001,0.00025550866848789155
1772905628231554800,8.674554931640625,-0.0009134435094892979,-0.0006323839770630002,-0.00005323097502696328
1772905628241554700,8.6845546875,-0.0009177019819617271,-0.000331096671288833,-0.00034919517929665744
1772905628251554800,8.694554931640624,-0.0009251543087884784,-0.00002874472556868568,-0.0005142111913301051
1772905628261554700,8.7045546875,-0.0007675906526856124,-0.00033748437999747694,-0.000520598900038749
1772905628271554800,8.714554931640626,-0.0006110915564931929,-0.0006419655401259661,-0.0005110173369757831
1772905628281554700,8.7245546875,-0.00045246328227221966,-0.0003215150791220367,-0.0005951222847215831
1772905628291554800,8.734554931640625,-0.00030022268765605986,-0.0006313193589448929,-0.0002980934514198452
1772905628301554700,8.7445546875,-0.0001490467257099226,-0.0006387716857716441,-0.00029915806953795254
1772905628311554800,8.754554931640625,0.000008516955858794972,-0.0006472886307165027,-0.00033216128940694034
1772905628321554700,8.7645546875,0.0001639513939153403,-0.0006462240125983953,-0.00002874472556868568
1772905628331554800,8.774554931640624,0.0003151273704133928,-0.0009560282924212515,-0.000027680107450578362
1772905628341554700,8.7845546875,0.00047056181938387454,-0.0009645452373661101,-0.000015969291780493222
1772905628351554800,8.794554931640626,0.0004737556737381965,-0.0012711556628346443,-0.00001916315159178339
1772905628361554700,8.8045546875,0.0004737556737381965,-0.0012743495171889663,-0.00002022776970989071
1772905628371554800,8.814554931640625,0.00047162643750198185,-0.0009730621823109686,-0.0003353551437612623
1772905628381554700,8.8245546875,0.0004652386996895075,-0.0009698683279566467,-0.00033216128940694034
1772905628391554800,8.834554931640625,0.0003119335160590708,-0.0012679618084803224,-0.00033216128940694034
1772905628401554700,8.8445546875,0.00015224058006424457,-0.0012615740997716784,-0.0006440947763621807
1772905628411554800,8.854554931640624,0,-0.0009613513830117881,-0.0006355778314173222
1772905628421554700,8.8645546875,-0.00015436983085237443,-0.0009666744736023247,-0.000947511347476393
1772905628431554800,8.874554931640626,-0.0003119335160590708,-0.0009783853311091661,-0.0012658325722441077
1772905628441554700,8.8845546875,-0.0004652386996895075,-0.0012179246405139565,-0.0015234705060720444
1772905628451554800,8.894554931640625,-0.0006185439415276051,-0.001525599742308259,-0.0018236931646242738
1772905628461554700,8.9045546875,-0.0006206731777638197,-0.001831145491451025,-0.002120722085237503
1772905628471554800,8.914554931640625,-0.0006164147052913904,-0.001827951637096703,-0.0018258224008604884
1772905628481554700,8.9245546875,-0.0006185439415276051,-0.0018151762196794152,-0.002130303531885147
1772905628491554800,8.934554931640625,-0.0006185439415276051,-0.0018087885109707713,-0.0021388204768300056
1772905628501554700,8.9445546875,-0.0006196085596457124,-0.0021111404057592154,-0.002139885211363435
1772905628511554800,8.954554931640626,-0.0006228024140000343,-0.0024166861549019814,-0.0021409497130662203
1772905628521554700,8.9645546875,-0.0006185439415276051,-0.002721167402341962,-0.002133497502654791
1772905628531554800,8.974554931640625,-0.0006164147052913904,-0.002717973431572318,-0.002123915823176503
1772905628541554700,8.9845546875,-0.0006185439415276051,-0.003020325442776084,-0.0021249805577099323
1772905628551554800,8.994554931640625,-0.0006174793234094977,-0.003015002468600869,-0.0021345620043575764
1772905628561554700,9.0045546875,-0.0006153500871732831,-0.0033216127194464207,-0.0021313682664185762
1772905628571554800,9.014554931640625,-0.0006164147052913904,-0.0033120312727987766,-0.0021292390301823616
1772905628581554700,9.0245546875,-0.0006121561746113002,-0.003523890394717455,-0.0021409497130662203
1772905628591554800,9.034554931640624,-0.0005152758094482124,-0.0035164381843060255,-0.00228147953748703
1772905628601554700,9.0445546875,-0.0005418913206085563,-0.0035132442135363817,-0.0022729625925421715
1772905628611554800,9.054554931640626,-0.0006962611223571002,-0.003517502686008811,-0.002580637577921152
1772905628621554700,9.0645546875,-0.0006983903585933149,-0.003531342837959528,-0.002795690670609474
1772905628631554800,9.074554931640625,-0.0006973257404752076,-0.003540924284607172,-0.002792496932670474
1772905628641554700,9.0845546875,-0.0006973257404752076,-0.0032332492992281914,-0.0027967554051429033
1772905628651554800,9.094554931640625,-0.0006973257404752076,-0.002919186605140567,-0.002755235182121396
1772905628661554700,9.1045546875,-0.000692002649884671,-0.002611511619761586,-0.0027541706804186106
1772905628671554800,9.114554931640624,-0.0006930672680027783,-0.0022995781619101763,-0.0027531059458851814
1772905628681554700,9.1245546875,-0.0006930672680027783,-0.0019844507332891226,-0.0024443662259727716
1772905628691554800,9.134554931640626,-0.0006994549767114222,-0.0016735817771404982,-0.002445430960506201
1772905628701554700,9.1445546875,-0.0007037134491838515,-0.0013691006461158395,-0.0024443662259727716
1772905628711554800,9.154554931640625,-0.0007026488310657442,-0.001374423736706376,-0.0021292390301823616
1772905628721554700,9.1645546875,-0.0008516956004314125,-0.0010656841332092881,-0.0018332747276872396
1772905628731554800,9.174554931640625,-0.0008580833091400564,-0.0007622675620950758,-0.0018407270545139909
1772905628741554700,9.1845546875,-0.0008527602185495198,-0.0007612029439769685,-0.0015202766517177224
1772905628751554800,9.194554931640624,-0.0007250058697536588,-0.0007601383258588612,-0.0015149535611271858
1772905628761554700,9.2045546875,-0.0005727653042413294,-0.0005738299223594368,-0.0012051492230966687
1772905628771554800,9.214554931640626,-0.0004173308261670172,-0.0005663775373250246,-0.0008878926746547222
1772905628781554700,9.2245546875,-0.00041946006240323186,-0.00031938584288582206,-0.0008996034739539027
1772905628791554800,9.234554931640625,-0.00025976714096032083,-0.000017033911717589945,-0.0008996034739539027
1772905628801554700,9.2445546875,-0.00010113885218743235,0.0002842534158844501,-0.0009123788913711905
1772905628811554800,9.254554931640625,0.000051101735152769834,-0.000036197063309373334,-0.0009059911826625466
1772905628821554700,9.2645546875,0.00008516955858794972,0.00026934873312711716,-0.00090066809207201
1772905628831554800,9.274554931640624,0.00024166861840058118,0.0005546667380258441,-0.0007026488310657442
1772905628841554700,9.2845546875,0.00024060400028247386,0.0005546667380258441,-0.00039497381658293307
1772905628851554800,9.294554931640626,0.00024166861840058118,0.0008538248366676271,-0.0004002969362773001
1772905628861554700,9.3045546875,0.0003960384347010404,0.0008548894547857344,-0.00010007423406932503
1772905628871554800,9.314554931640625,0.0005504082655534148,0.0008559540729038417,0.00020440694061107934
1772905628881554700,9.3245546875,0.0007047781255096197,0.001156176789663732,0.0005184696638025343
1772905628891554800,9.334554931640625,0.0008580833091400564,0.001156176789663732,0.0008293385617434978
1772905628901554700,9.3445546875,0.001014582347124815,0.001159370644018054,0.0011455306084826589
1772905628911554800,9.354554931640624,0.0011710814433172345,0.0014553348300978541,0.0014574640663340688
1772905628921554700,9.3645546875,0.0013201282126829028,0.0013584544649347663,0.0017683329060673714
1772905628931554800,9.374554931640626,0.001377617591060698,0.0011551121715456247,0.0020855895709246397
1772905628941554700,9.3845546875,0.001246669446118176,0.001249863300472498,0.0023836831096559763
1772905628951554800,9.394554931640625,0.001246669446118176,0.0015671198489144444,0.0023804891388863325
1772905628961554700,9.4045546875,0.0010965580586344004,0.0012626387178897858,0.0026870996225625277
1772905628971554800,9.414554931640625,0.0009421882568858564,0.001270091044716537,0.002688164124265313
1772905628981554700,9.4245546875,0.0007920768694020808,0.0012679618084803224,0.0026966810692101717
1772905628991554800,9.434554931640625,0.0006355778314173222,0.001266897190362215,0.0026924225967377424
1772905629001554700,9.4445546875,0.00047694952809251845,0.0012658325722441077,0.0023772954009473324
1772905629011554800,9.454554931640626,0.00032364431535825133,0.0012626387178897858,0.0020706849172711372
1772905629021554700,9.4645546875,0.0001671452628215775,0.0012583802454173565,0.001753428252413869
1772905629031554800,9.474554931640625,0.000013840053725289181,0.0012509279185906053,0.0014510763576254249
1772905629041554700,9.4845546875,-0.00013733591185882688,0.0012519925367087126,0.0011380782816559076
1772905629051554800,9.494554931640625,-0.00028851188835687935,0.0012519925367087126,0.0008325324160978198
1772905629061554700,9.5045546875,-0.00028851188835687935,0.00125305715482682,0.0005248574307188392
1772905629071554800,9.514554931640625,-0.00028744727023877203,0.0009464467293582857,0.0005237928126007318
1772905629081554700,9.5245546875,-0.00028744727023877203,0.0012487986823543906,0.00021505313634406775
1772905629091554800,9.534554931640624,-0.0004152015899308026,0.00125305715482682,0.0002076007949654013
1772905629101554700,9.5445546875,-0.0005674421554431319,0.0013797468272969127,-0.00009368651080876589
1772905629111554800,9.554554931640626,-0.0007218120153993368,0.0016842280747368932,-0.00040242617251351476
1772905629121554700,9.5645546875,-0.0007207473972812295,0.0016778402496129274,-0.00040242617251351476
1772905629131554800,9.574554931640625,-0.0008751171990297735,0.0013754883548244834,-0.0004120077355764806
1772905629141554700,9.5845546875,-0.0010326808551326394,0.0013818760635331273,-0.00009368651080876589
1772905629151554800,9.594554931640625,-0.0010358747094869614,0.001700197346508503,-0.0004002969362773001
1772905629161554700,9.6045546875,-0.0009198312181979418,0.0013861345360055566,-0.00009581575432093814
1772905629171554800,9.614554931640624,-0.0009240896906703711,0.001407426898367703,0.000023421627702191472
1772905629181554700,9.6245546875,-0.0007707845070399344,0.0014095562510192394,0.000022357009584084153
1772905629191554800,9.634554931640626,-0.0006153500871732831,0.0011008165311068296,0.000331096671288833
1772905629201554700,9.6445546875,-0.0006153500871732831,0.0010965580586344004,0.00033748437999747694
1772905629211554800,9.654554931640625,-0.0006174793234094977,0.001092299586161971,0.0003417428524699062
1772905629221554700,9.6645546875,-0.0006132208509370685,0.0007824953063391149,0.0003481305611785501
1772905629231554800,9.674554931640625,-0.0006142854690551758,0.0007835599244572222,0.00034387208870612085
1772905629241554700,9.6845546875,-0.0006132208509370685,0.0007835599244572222,0.00033748437999747694
1772905629251554800,9.694554931640624,-0.0006174793234094977,0.0004737556737381965,0.00032577355159446597
1772905629261554700,9.7045546875,-0.0006121561746113002,0.00047588490997441113,0.0003353551437612623
1772905629271554800,9.714554931640626,-0.0006110915564931929,0.00037474604323506355,0.0003279027878306806
1772905629281554700,9.7245546875,-0.0004556571366265416,0.000278930296190083,0.00033748437999747694
1772905629291554800,9.734554931640625,-0.0003034165420103818,-0.00002661548751348164,0.0006440947763621807
1772905629301554700,9.7445546875,-0.00015543444897048175,-0.00002661548751348164,0.0006355778314173222
1772905629311554800,9.754554931640625,-0.0000010646194823493715,-0.00002129238964698743,0.00033322590752504766
1772905629331554800,9.774554931640624,0.00030448116012848914,-0.0006440947763621807,0.000014904672752891202
1772905629341554700,9.7845546875,0.00045778637286275625,-0.0009507052018307149,0.000025550867576384917
1772905629351554800,9.794554931640626,0.0006110915564931929,-0.0012519925367087126,0.000331096671288833
1772905629361554700,9.8045546875,0.0007697198889218271,-0.001558602903969586,0.00033216128940694034
1772905629371554800,9.814554931640625,0.0009230250725522637,-0.0015607321402058005,0.0005152758094482124
1772905629381554700,9.8245546875,0.001072071841917932,-0.0018705364782363176,0.0008335970342159271
1772905629391554800,9.834554931640625,0.0012221831129863858,-0.0021686297841370106,0.0008378555066883564
1772905629401554700,9.8445546875,0.0012243123492226005,-0.0024709817953407764,0.0008442432736046612
1772905629411554800,9.854554931640624,0.0004290416545700282,-0.0013786822091788054,0.000027680107450578362
1772905629421554700,9.8645546875,0.0008932157652452588,-0.0027062627486884594,0.000537632848136127
1772905629431554800,9.874554931640626,0.0015639259945601225,-0.004940899088978767,0.0015405043959617615
1772905629441554700,9.8845546875,0.0015894768293946981,-0.0066304500214755535,0.0027424597647041082
1772905629451554800,9.894554931640625,0.001915250439196825,-0.008001680485904217,0.003663355717435479
1772905629461554700,9.9045546875,0.001494725700467825,-0.010945352725684643,0.00541465450078249
1772905629471554800,9.914554931640625,0.0008229508530348539,-0.013752754777669907,0.006530375685542822
1772905629481554700,9.9245546875,-0.0003992323181591928,-0.01678372547030449,0.007629062980413437
1772905629491554800,9.934554931640625,-0.0014361717039719224,-0.01912056654691696,0.008084720000624657
1772905629501554700,9.9445546875,-0.0016842280747368932,-0.02177892066538334,0.009454885497689247
1772905629511554800,9.954554931640626,-0.0038762795738875866,-0.027564063668251038,0.010883605107665062
1772905629521554700,9.9645546875,-0.0037517191376537085,-0.028858641162514687,0.01007236447185278
1772905629531554800,9.974554931640625,-0.0030650394037365913,-0.031104987487196922,0.012001455761492252
1772905629541554700,9.9845546875,-0.0015362459234893322,-0.03223029151558876,0.012715814635157585
1772905629551554800,9.994554931640625,-0.0007824953063391149,-0.03366007283329964,0.014061493799090385
1772905629561554700,10.0045546875,-0.0022016330622136593,-0.03501639887690544,0.014460726641118526
1772905629571554800,10.014554931640625,-0.0031917293090373278,-0.03567114099860191,0.013340746983885765
1772905629581554700,10.0245546875,-0.003932704217731953,-0.03733726963400841,0.013128887861967087
1772905629591554800,10.034554931640624,-0.005399750079959631,-0.03856370970606804,0.012694522738456726
1772905629601554700,10.0445546875,-0.0038794733118265867,-0.03897678479552269,0.011354167014360428
1772905629611554800,10.054554931640626,-0.0014265901409089565,-0.13275697827339172,0.03076537325978279
1772905629621554700,10.0645546875,0.002217602450400591,-0.13437946140766144,0.03044918179512024
1772905629631554800,10.074554931640625,0.005867118015885353,-0.13697394728660583,0.030444923788309097
1772905629641554700,10.0845546875,0.010212894529104233,-0.14056384563446045,0.030443858355283737
1772905629651554800,10.094554931640625,0.014952580444514751,-0.04303085431456566,0.013908188790082932
1772905629661554700,10.1045546875,0.017303260043263435,-0.04387190565466881,0.016128985211253166
1772905629671554800,10.114554931640624,0.020542897284030914,-0.04484070837497711,0.017272386699914932
1772905629681554700,10.1245546875,0.02321935072541237,-0.0474490262567997,0.02012130804359913
1772905629691554800,10.134554931640626,0.026278002187609673,-0.04930998012423515,0.02175443433225155
1772905629701554700,10.1445546875,0.03223029151558876,-0.05165533721446991,0.024600163102149963
1772905629711554800,10.154554931640625,0.03811337798833847,-0.05501740425825119,0.029716724529862404
1772905629721554700,10.1645546875,0.044729989022016525,-0.05870950594544411,0.033322591334581375
1772905629731554800,10.174554931640625,0.051258232444524765,-0.2090337723493576,0.08955685794353485
1772905629741554700,10.1845546875,0.05400282144546509,-0.22006003558635712,0.08986559510231018
1772905629751554800,10.194554931640624,0.057794999331235886,-0.22460809350013733,0.09094831347465515
1772905629761554700,10.2045546875,0.060768481343984604,-0.2346101999282837,0.08986559510231018
1772905629771554800,10.214554931640626,0.06275931745767593,-0.24345079064369202,0.08743826299905777
1772905629781554700,10.2245546875,0.06357162445783615,-0.24855990707874298,0.08446797728538513
1772905629791554800,10.234554931640625,0.0643562451004982,-0.255648136138916,0.08226633816957474
1772905629801554700,10.2445546875,0.06596381962299347,-0.25863972306251526,0.07783006876707077
1772905629811554800,10.254554931640625,0.06613948196172714,-0.26198476552963257,0.07511529326438904
1772905629821554700,10.2645546875,0.06749474257230759,-0.2574111521244049,0.07213222980499268
1772905629841554700,10.2845546875,0.06828788667917252,-0.2516707181930542,0.06719984859228134
1772905629851554800,10.294554931640626,0.06970276683568954,-0.23658612370491028,0.06334592401981354
1772905629861554700,10.3045546875,0.06671437621116638,-0.22865578532218933,0.06521965563297272
1772905629871554800,10.314554931640625,0.06264114379882812,-0.2150329053401947,0.05970918387174606
1772905629881554700,10.3245546875,0.061657436192035675,-0.2067437767982483,0.05746922269463539
1772905629891554800,10.334554931640625,0.061061251908540726,-0.2027067393064499,0.053851645439863205
1772905629901554700,10.3445546875,0.06045015901327133,-0.19188594818115234,0.05247190222144127
1772905629911554800,10.354554931640624,0.05958462134003639,-0.17895720899105072,0.0551813580095768
1772905629921554700,10.3645546875,0.05975283309817314,-0.1694224774837494,0.05544431880116463
1772905629931554800,10.374554931640626,0.0604214146733284,-0.1602145880460739,0.05631304904818535
1772905629941554700,10.3845546875,0.06084726005792618,-0.1531444489955902,0.0596059150993824
1772905629951554800,10.394554931640625,0.0606556311249733,-0.14787031710147858,0.059614431113004684
1772905629961554700,10.4045546875,0.05898843705654144,-0.144004687666893,0.05991891399025917
1772905629971554800,10.414554931640625,0.057938721030950546,-0.13724862039089203,0.05991891399025917
1772905629981554700,10.4245546875,0.0553293377161026,-0.1330699771642685,0.05991678312420845
1772905629991554800,10.434554931640625,0.05246870592236519,-0.040311817079782486,0.020401302725076675
1772905630001554700,10.4445546875,0.05297333747148514,-0.040888842195272446,0.020856959745287895
1772905630011554800,10.454554931640626,0.05276893079280853,-0.04147864133119583,0.02262422814965248
1772905630021554700,10.4645546875,0.05045231804251671,-0.04114541411399841,0.023395013064146042
1772905630031554800,10.474554931640625,0.04837417975068092,-0.04002649709582329,0.022920193150639534
1772905630041554700,10.4845546875,0.046265169978141785,-0.039637912064790726,0.024346783757209778
1772905630051554800,10.494554931640625,0.04389532655477524,-0.04017554596066475,0.02464168332517147
1772905630071554800,10.514554931640625,0.03465442731976509,-0.034570325165987015,0.02850199304521084
1772905630081554700,10.5245546875,0.031493574380874634,-0.033853836357593536,0.032746631652116776
1772905630091554800,10.534554931640624,0.029233386740088463,-0.030753662809729576,0.033966682851314545
1772905630101554700,10.5445546875,0.02754276990890503,-0.02857438661158085,0.03768114373087883
1772905630111554800,10.554554931640626,0.025352848693728447,-0.025724399834871292,0.04014573618769646
1772905630121554700,10.5645546875,0.024170055985450745,-0.024097662419080734,0.04233672469854355
1772905630141554700,10.5845546875,0.02041194960474968,-0.017927126958966255,0.04389426112174988
1772905630151554800,10.594554931640625,0.02003081515431404,-0.01426696591079235,0.043407730758190155
1772905630161554700,10.6045546875,0.0199296772480011,-0.01255825161933899,0.042640138417482376
1772905630171554800,10.614554931640624,0.019999941810965538,-0.010539732873439789,0.04274340718984604
1772905630181554700,10.6245546875,0.01640046387910843,-0.009952062740921974,0.041845932602882385
1772905630191554800,10.634554931640626,0.013057557865977287,-0.006943448446691036,0.0381825789809227
1772905630201554700,10.6445546875,0.013700587674975395,-0.0077940793707966805,0.036896515637636185
1772905630211554800,10.654554931640625,0.015505118295550346,-0.010227799415588379,0.03561897575855255
1772905630221554700,10.6645546875,0.012503955513238907,-0.008964096195995808,0.035816993564367294
1772905630231554800,10.674554931640625,0.008374297060072422,-0.006157759111374617,0.03828797489404678
1772905630241554700,10.6845546875,0.005570088978856802,-0.003626093966886401,0.041391339153051376
1772905630251554800,10.694554931640624,0.002063232474029064,-0.0033684561494737864,0.0453847274184227
1772905630261554700,10.7045546875,-0.0010252285283058882,0.00034919517929665744,0.04925461858510971
1772905630271554800,10.714554931640626,-0.0033003203570842743,0.002882989589124918,0.05718071386218071
1772905630281554700,10.7245546875,-0.008102819323539734,0.006182245444506407,0.06386119872331619
1772905630291554800,10.734554931640625,-0.012996874749660492,0.01066109910607338,0.07233770191669464
1772905630301554700,10.7445546875,-0.017781274393200874,0.014772660098969936,0.0807332918047905
1772905630311554800,10.754554931640625,-0.02394329197704792,0.017717396840453148,0.08889572322368622
1772905630321554700,10.7645546875,-0.028035689145326614,0.022941485047340393,0.09632889926433563
1772905630331554800,10.774554931640624,-0.031759727746248245,0.028186865150928497,0.10480433702468872
1772905630341554700,10.7845546875,-0.0370306596159935,0.03474492207169533,0.109043650329113
1772905630351554800,10.794554931640626,-0.04286903142929077,0.0973605141043663,0.37342166900634766
1772905630361554700,10.8045546875,-0.044319044798612595,0.10356831550598145,0.37857550382614136
1772905630371554800,10.814554931640625,-0.045953236520290375,0.1057763323187828,0.3884413242340088
1772905630381554700,10.8245546875,-0.050994209945201874,0.11112604290246964,0.3793175220489502
1772905630391554800,10.834554931640625,-0.0543254017829895,0.12120053917169571,0.36311933398246765
1772905630401554700,10.8445546875,-0.05842205882072449,0.1254313439130783,0.35701483488082886
1772905630411554800,10.854554931640624,-0.06432005017995834,0.12846656143665314,0.33307260274887085
1772905630421554700,10.8645546875,-0.06683894246816635,0.1354110836982727,0.3132983446121216
1772905630431554800,10.874554931640626,-0.06989120692014694,0.13234497606754303,0.30318978428840637
1772905630441554700,10.8845546875,-0.07343851774930954,0.13789589703083038,0.28509870171546936
1772905630451554800,10.894554931640625,-0.07579238712787628,0.055964916944503784,0.08210664987564087
1772905630461554700,10.9045546875,-0.0780472531914711,0.05915238708257675,0.07831660658121109
1772905630471554800,10.914554931640625,-0.08041496574878693,0.0620524100959301,0.07467027753591537
1772905630481554700,10.9245546875,-0.08241006731987,0.06465540826320648,0.07288172096014023
1772905630491554800,10.934554931640625,-0.08495450764894485,0.06694753468036652,0.07110380381345749
1772905630501554700,10.9445546875,-0.08965480327606201,0.06863708049058914,0.06992953270673752
1772905630511554800,10.954554931640626,-0.09399419277906418,0.07070563733577728,0.06625127047300339
1772905630521554700,10.9645546875,-0.09363541007041931,0.07296688854694366,0.06558375060558319
1772905630531554800,10.974554931640625,-0.09302112460136414,0.07225998491048813,0.06880422681570053
1772905630541554700,10.9845546875,-0.09420605003833771,0.07396550476551056,0.06858065724372864
1772905630551554800,10.994554931640625,-0.09545378386974335,0.07711571455001831,0.06871479749679565
1772905630561554700,11.0045546875,-0.09555917978286743,0.07524304836988449,0.06788865476846695
1772905630571554800,11.014554931640625,-0.09501409530639648,0.23949892818927765,0.21277059614658356
1772905630581554700,11.0245546875,-0.09475113451480865,0.22766567766666412,0.19574199616909027
1772905630591554800,11.034554931640624,-0.09412513673305511,0.21806281805038452,0.17639361321926117
1772905630601554700,11.0445546875,-0.09438596665859222,0.20579946041107178,0.15907225012779236
1772905630611554800,11.054554931640626,-0.09439767897129059,0.19191256165504456,0.13251957297325134
1772905630621554700,11.0645546875,-0.09447220712900162,0.1774965524673462,0.10902129113674164
1772905630631554800,11.074554931640625,-0.09421350061893463,0.16559730470180511,0.08340122550725937
1772905630641554700,11.0845546875,-0.09274432808160782,0.15220652520656586,0.05626513808965683
1772905630651554800,11.094554931640625,-0.09114952385425568,0.1397898644208908,0.033894289284944534
1772905630661554700,11.1045546875,-0.09220030903816223,0.12622341513633728,0.008169889450073242
1772905630671554800,11.114554931640624,-0.09334903210401535,0.11649598926305771,-0.026382334530353546
1772905630681554700,11.1245546875,-0.09374506771564484,0.10296786576509476,-0.05091329663991928
1772905630691554800,11.134554931640626,-0.09421030431985855,0.10669723153114319,-0.07754687964916229
1772905630701554700,11.1445546875,-0.0970698744058609,0.11215340346097946,-0.0994599461555481
1772905630711554800,11.154554931640625,-0.10018069297075272,0.11819618195295334,-0.12071507424116135
1772905630721554700,11.1645546875,-0.10325425118207932,0.1225547343492508,-0.1315763145685196
1772905630731554800,11.174554931640625,-0.10791728645563126,0.13183502852916718,-0.1455632895231247
1772905630741554700,11.1845546875,-0.10939071327447891,0.13567830622196198,-0.15951620042324066
1772905630751554800,11.194554931640624,-0.1093534529209137,0.13897542655467987,-0.1574157029390335
1772905630761554700,11.2045546875,-0.11006568372249603,0.14374279975891113,-0.1636277586221695
1772905630771554800,11.214554931640626,-0.11137836426496506,0.14405366778373718,-0.16591668128967285
1772905630781554700,11.2245546875,-0.11262715607881546,0.14813435077667236,-0.16874325275421143
1772905630791554800,11.234554931640625,-0.11337132751941681,0.14433366060256958,-0.1667226105928421
1772905630801554700,11.2445546875,-0.1124376580119133,0.14212137460708618,-0.16842280328273773
1772905630811554800,11.254554931640625,-0.11184892058372498,0.13133998215198517,-0.1609928160905838
1772905630821554700,11.2645546875,-0.10946417599916458,0.13061390817165375,-0.1666608601808548
1772905630831554800,11.274554931640624,-0.1041187196969986,0.13063520193099976,-0.15905840694904327
1772905630841554700,11.2845546875,-0.09825798869132996,0.125956192612648,-0.15275585651397705
1772905630851554800,11.294554931640626,-0.09425821155309677,0.12064800411462784,-0.14628297090530396
1772905630861554700,11.3045546875,-0.09092701971530914,0.12011250108480453,-0.145985946059227
1772905630871554800,11.314554931640625,-0.08572209626436234,0.1246509701013565,-0.14438582956790924
1772905630881554700,11.3245546875,-0.08080781251192093,0.12414740771055222,-0.13996125757694244
1772905630891554800,11.334554931640625,-0.07743829488754272,0.03750867396593094,-0.04179057478904724
1772905630901554700,11.3445546875,-0.07450952380895615,0.039156705141067505,-0.04236333817243576
1772905630911554800,11.354554931640624,-0.07031279057264328,0.043624911457300186,-0.04321929067373276
1772905630921554700,11.3645546875,-0.06639712303876877,0.04510047659277916,-0.04248044639825821
1772905630931554800,11.374554931640626,-0.06208115443587303,0.048856452107429504,-0.0452016144990921
1772905630941554700,11.3845546875,-0.057982370257377625,0.050444863736629486,-0.04558061808347702
1772905630951554800,11.394554931640625,-0.055555038154125214,0.054289206862449646,-0.04867653176188469
1772905630961554700,11.4045546875,-0.05413909628987312,0.05664946883916855,-0.05130081996321678
1772905630971554800,11.414554931640625,-0.05471079424023628,0.05694543197751045,-0.05509938299655914
1772905630981554700,11.4245546875,-0.05662604421377182,0.060074348002672195,-0.05968150496482849
1772905630991554800,11.434554931640625,-0.05665798485279083,0.0623025968670845,-0.06483107060194016
1772905631001554700,11.4445546875,-0.05324268341064453,0.06408370286226273,-0.06792059540748596
1772905631021554700,11.4645546875,-0.05031285062432289,0.06540489941835403,-0.07286681234836578
1772905631031554800,11.474554931640625,-0.04829539731144905,0.16932985186576843,-0.25217536091804504
1772905631041554700,11.4845546875,-0.04265610873699188,0.1649893969297409,-0.25760066509246826
1772905631051554800,11.494554931640625,-0.03733833506703377,0.1601826399564743,-0.259432852268219
1772905631061554700,11.5045546875,-0.03309901803731918,0.15672795474529266,-0.26619213819503784
1772905631071554800,11.514554931640625,-0.02807401493191719,0.14936718344688416,-0.26619958877563477
1772905631081554700,11.5245546875,-0.023525960743427277,0.14632663130760193,-0.2655065059661865
1772905631091554800,11.534554931640624,-0.0171978622674942,0.14373214542865753,-0.26123419404029846
1772905631101554700,11.5445546875,-0.011292418465018272,0.13995593786239624,-0.24987684190273285
1772905631111554800,11.554554931640626,-0.005790465511381626,0.13969829678535461,-0.24883884191513062
1772905631121554700,11.5645546875,0.0010188408195972443,0.1364852786064148,-0.242842897772789
1772905631131554800,11.574554931640625,0.007919704541563988,0.13453063368797302,-0.2336009293794632
1772905631141554700,11.5845546875,0.012778627686202526,0.13225342333316803,-0.22581110894680023
1772905631151554800,11.594554931640625,0.018936386331915855,0.1349809765815735,-0.22651909291744232
1772905631161554700,11.6045546875,0.025110114365816116,0.13020189106464386,-0.2147262990474701
1772905631171554800,11.614554931640624,0.02766626700758934,0.12464990466833115,-0.21223615109920502
1772905631181554700,11.6245546875,0.027873868122696877,0.12380140274763107,-0.21945959329605103
1772905631191554800,11.634554931640626,0.030071241781115532,0.12371836602687836,-0.22491469979286194
1772905631201554700,11.6445546875,0.03365262225270271,0.11911175400018692,-0.22782856225967407
1772905631211554800,11.654554931640625,0.03475024551153183,0.11266867816448212,-0.23765501379966736
1772905631221554700,11.6645546875,0.03597349300980568,0.1083899736404419,-0.2511139214038849
1772905631231554800,11.674554931640625,0.03735962510108948,0.10273684561252594,-0.2637786269187927
1772905631241554700,11.6845546875,0.03878195956349373,0.09628312289714813,-0.27870142459869385
1772905631251554800,11.694554931640624,0.04084093123674393,0.08442538976669312,-0.2834261953830719
1772905631261554700,11.7045546875,0.04378034546971321,0.07798231393098831,-0.2932175099849701
1772905631271554800,11.714554931640626,0.04678363725543022,0.06658236682415009,-0.295841783285141
1772905631281554700,11.7245546875,0.0475459061563015,0.058753155171871185,-0.30149492621421814
1772905631291554800,11.734554931640625,0.047129638493061066,0.04901614412665367,-0.3074120581150055
1772905631301554700,11.7445546875,0.04785890504717827,0.04106556624174118,-0.3114107847213745
1772905631311554800,11.754554931640625,0.05259539559483528,0.0369284562766552,-0.31099024415016174
1772905631321554700,11.7645546875,0.05673782899975777,0.026906128972768784,-0.29264047741889954
1772905631331554800,11.774554931640624,0.057601235806941986,0.020133018493652344,-0.28196021914482117
1772905631341554700,11.7845546875,0.05674954131245613,0.01223780121654272,-0.26533937454223633
1772905631351554800,11.794554931640626,0.05789507180452347,0.00962841883301735,-0.24611873924732208
1772905631361554700,11.8045546875,0.058752089738845825,0.0016022523632273078,-0.22028042376041412
1772905631371554800,11.814554931640625,0.057164743542671204,0.0015958646545186639,-0.20278659462928772
1772905631381554700,11.8245546875,0.05122523009777069,0.0015979938907548785,-0.18390344083309174
1772905631401554700,11.8445546875,0.041176289319992065,0.0015894768293946981,-0.15803425014019012
1772905631411554800,11.854554931640624,0.035823382437229156,0.0015884122112765908,-0.14315831661224365
1772905631421554700,11.8645546875,0.029432469978928566,0.0015905415639281273,-0.13726244866847992
1772905631431554800,11.874554931640626,0.02267320081591606,0.001578830648213625,-0.13358525931835175
1772905631441554700,11.8845546875,0.016651714220643044,0.0015862829750403762,-0.1311430186033249
1772905631451554800,11.894554931640625,0.009450627490878105,0.0015852183569222689,-0.12197984009981155
1772905631461554700,11.9045546875,0.00020121308625675738,0.0015735075576230884,-0.1249607726931572
1772905631471554800,11.914554931640625,-0.009257931262254715,0.0012754141353070736,-0.1296248733997345
1772905631481554700,11.9245546875,-0.017254287376999855,0.0012754141353070736,-0.13837498426437378
1772905631491554800,11.934554931640625,-0.025688203051686287,0.001276478753425181,-0.140468031167984
1772905631501554700,11.9445546875,-0.03431907296180725,0.0012754141353070736,-0.14861129224300385
1772905631511554800,11.954554931640626,-0.04073766618967056,0.0015745721757411957,-0.14626380801200867
1772905631521554700,11.9645546875,-0.043812286108732224,0.0018801180412992835,-0.1419084519147873
1772905631531554800,11.974554931640625,-0.047971755266189575,0.002186728408560157,-0.13111640512943268
1772905631541554700,11.9845546875,-0.0562417171895504,0.002492274157702923,-0.12944601476192474
1772905631551554800,11.994554931640625,-0.06348112970590591,0.0027935614343732595,-0.12444017827510834
1772905631571554800,12.014554931640625,-0.07618523389101028,0.0034216870553791523,-0.09896489977836609
1772905631581554700,12.0245546875,-0.0843072161078453,0.0037325560115277767,-0.08385581523180008
1772905631591554800,12.034554931640624,-0.09409532696008682,0.0040295845828950405,-0.08341506868600845
1772905631601554700,12.0445546875,-0.10140606760978699,0.004025326110422611,-0.07352901250123978
1772905631611554800,12.054554931640626,-0.10745949298143387,0.004321290645748377,-0.05926736816763878
1772905631621554700,12.0645546875,-0.11411336809396744,0.004323419649153948,-0.04701359570026398
1772905631631554800,12.074554931640625,-0.12066929787397385,0.004018938634544611,-0.039806123822927475
1772905631641554700,12.0845546875,-0.12824726104736328,0.0037080696783959866,-0.03208017721772194
1772905631651554800,12.094554931640625,-0.138783797621727,0.0034131701104342937,-0.0373212993144989
1772905631661554700,12.1045546875,-0.14716234803199768,0.0030969781801104546,-0.04989977926015854
1772905631671554800,12.114554931640624,-0.15240666270256042,0.0027882384601980448,-0.056181035935878754
1772905631681554700,12.1245546875,-0.15753386914730072,0.0024826927110552788,-0.06976983696222305
1772905631691554800,12.134554931640626,-0.16376402974128723,0.0021760822273790836,-0.08913207054138184
1772905631701554700,12.1445546875,-0.16779041290283203,0.0018598901806399226,-0.1095738336443901
1772905631711554800,12.154554931640625,-0.17063401639461517,-0.00815179105848074,-0.036415308713912964
1772905631721554700,12.1645546875,-0.17189238965511322,-0.017041364684700966,-0.04305959865450859
1772905631731554800,12.174554931640625,-0.1718253195285797,-0.027023237198591232,-0.04507385939359665
1772905631741554700,12.1845546875,-0.17396840453147888,-0.036513254046440125,-0.05129656195640564
1772905631751554800,12.194554931640624,-0.17512138187885284,-0.04836246743798256,-0.0559968538582325
1772905631761554700,12.2045546875,-0.17423030734062195,-0.0583006925880909,-0.059525005519390106
1772905631771554800,12.214554931640626,-0.17435699701309204,-0.06859982013702393,-0.06097075715661049
1772905631791554800,12.234554931640625,-0.16989730298519135,-0.08422098308801651,-0.06443183869123459
1772905631801554700,12.2445546875,-0.16763605177402496,-0.09091105312108994,-0.0628061592578888
1772905631811554800,12.254554931640625,-0.16621904075145721,-0.09682820737361908,-0.06254639476537704
1772905631821554700,12.2645546875,-0.1653928905725479,-0.10273364931344986,-0.05890965461730957
1772905631831554800,12.274554931640624,-0.16499686241149902,-0.10650559514760971,-0.05640673264861107
1772905631841554700,12.2845546875,-0.16421222686767578,-0.110281802713871,-0.05257516726851463
1772905631851554800,12.294554931640626,-0.16473709046840668,-0.11323825269937515,-0.05098888650536537
1772905631861554700,12.3045546875,-0.16589859127998352,-0.11424857378005981,-0.04703701660037041
1772905631871554800,12.314554931640625,-0.16661082208156586,-0.11470422893762589,-0.04411463811993599
1772905631881554700,12.3245546875,-0.16655012965202332,-0.11638739705085754,-0.03957723081111908
1772905631891554800,12.334554931640625,-0.16712608933448792,-0.11694525927305222,-0.03717544674873352
1772905631901554700,12.3445546875,-0.16700473427772522,-0.11818979680538177,-0.034712981432676315
1772905631911554800,12.354554931640624,-0.16609340906143188,-0.12019873410463333,-0.032188769429922104
1772905631921554700,12.3645546875,-0.16676199436187744,-0.12178608030080795,-0.029389886185526848
1772905631931554800,12.374554931640626,-0.16665340960025787,-0.12371091544628143,-0.027177605777978897
1772905631941554700,12.3845546875,-0.1665181964635849,-0.12511089444160461,-0.02487802878022194
1772905631951554800,12.394554931640625,-0.16691850125789642,-0.1274690181016922,-0.021511701866984367
1772905631961554700,12.4045546875,-0.1647445410490036,-0.12978030741214752,-0.02050670050084591
1772905631971554800,12.414554931640625,-0.16035404801368713,-0.436089426279068,-0.04980715736746788
1772905631981554700,12.4245546875,-0.15612219274044037,-0.44686976075172424,-0.03553912788629532
1772905631991554800,12.434554931640625,-0.150507390499115,-0.4550950229167938,-0.013721880502998829
1772905632001554700,12.4445546875,-0.1444273442029953,-0.4705958664417267,0.008273158222436905
1772905632011554800,12.454554931640626,-0.13989418745040894,-0.48449236154556274,0.029543191194534302
1772905632021554700,12.4645546875,-0.13545899093151093,-0.49343302845954895,0.05324374884366989
1772905632031554800,12.474554931640625,-0.13183502852916718,-0.5035107135772705,0.07680165022611618
1772905632041554700,12.4845546875,-0.13037437200546265,-0.5135979652404785,0.09663551300764084
1772905632051554800,12.494554931640625,-0.12841440737247467,-0.4858178198337555,0.10930129140615463
1772905632061554700,12.5045546875,-0.1239163875579834,-0.4604649543762207,0.1335703581571579
1772905632071554800,12.514554931640625,-0.12101955711841583,-0.4343934953212738,0.15363949537277222
1772905632081554700,12.5245546875,-0.1181408241391182,-0.40564343333244324,0.16984513401985168
1772905632091554800,12.534554931640624,-0.11619257181882858,-0.3691972494125366,0.18117907643318176
