time,seconds_elapsed,z,y,x
1772905676031377400,0.32637744140625,-0.006293296813964844,-0.002138584852218628,-0.002401307225227356
1772905676041377500,0.33637744140625,-0.008687019348144531,0.00025722384452819824,0.0023887166753411293
1772905676051377400,0.34637744140625,-0.008687019348144531,0.002651423215866089,0.002387092448771
1772905676061377500,0.35637744140625,-0.006290435791015625,0.0002556145191192627,0.002385467290878296
1772905676071377400,0.36637744140625,-0.008684158325195312,-0.002138584852218628,0.002383843995630741
1772905676081377500,0.37637744140625,-0.006289482116699219,-0.0021369755268096924,0.002382218837738037
1772905676091377400,0.38637744140625,-0.008684158325195312,0.0002588927745819092,-0.0024078059941530228
1772905676101377500,0.39637744140625,-0.006287574768066406,0.0026530921459198,-0.000011980533599853516
1772905676111377400,0.40637744140625,-0.006287574768066406,0.002651423215866089,-0.000011980533599853516
1772905676121377500,0.41637744140625,-0.006287574768066406,0.0026498138904571533,-0.000011980533599853516
1772905676131377400,0.42637744140625,-0.006287574768066406,-0.0021401941776275635,-0.000011980533599853516
1772905676141377500,0.43637744140625,-0.006287574768066406,-0.0045327842235565186,-0.000011980533599853516
1772905676151377400,0.44637744140625,-0.006287574768066406,-0.0021353065967559814,-0.0024061808362603188
1772905676161377500,0.45637744140625,-0.006287574768066406,0.0002605020999908447,-0.000010356307029724121
1772905676171377400,0.46637744140625,-0.006287574768066406,0.005048900842666626,-0.000010356307029724121
1772905676181377500,0.47637744140625,-0.006287574768066406,0.002651423215866089,0.002383843995630741
1772905676191377400,0.48637744140625,-0.006287574768066406,0.0002556145191192627,0.002382218837738037
1772905676201377500,0.49637744140625,-0.006287574768066406,-0.002138584852218628,-0.000013606622815132141
1772905676211377400,0.50637744140625,-0.006287574768066406,0.00025722384452819824,-0.000013606622815132141
1772905676221377500,0.51637744140625,-0.0038928985595703125,0.00025722384452819824,-0.000013606622815132141
1772905676231377400,0.52637744140625,-0.0038957595825195312,0.00025722384452819824,0.0023805927485227585
1772905676241377500,0.53637744140625,-0.0038957595825195312,0.00025722384452819824,-0.000015230849385261536
1772905676251377400,0.54637744140625,-0.0062923431396484375,0.00025722384452819824,0.0023789703845977783
1772905676261377500,0.55637744140625,-0.008687019348144531,0.002651423215866089,0.0023773442953824997
1772905676271377400,0.56637744140625,-0.006290435791015625,-0.002138584852218628,-0.00241268053650856
1772905676281377500,0.57637744140625,-0.006290435791015625,-0.002138584852218628,-0.0048068817704916
1772905676291377400,0.58637744140625,-0.006290435791015625,-0.0045327842235565186,-0.0048068817704916
1772905676301377500,0.59637744140625,-0.006290435791015625,-0.0093211829662323,-0.007201081141829491
1772905676311377400,0.60637744140625,-0.006290435791015625,-0.0093211829662323,-0.007201081141829491
1772905676321377500,0.61637744140625,-0.008684158325195312,-0.006926983594894409,-0.0048068817704916
1772905676331377400,0.62637744140625,-0.008684158325195312,-0.0045327842235565186,-0.0048068817704916
1772905676341377500,0.63637744140625,-0.008606910705566406,-0.004372686147689819,-0.00708923302590847
1772905676351377400,0.64637744140625,-0.0037384033203125,-0.004230141639709473,-0.009323645383119583
1772905676361377500,0.65637744140625,-0.0012674331665039062,-0.004071742296218872,-0.011561271734535694
1772905676371377400,0.66637744140625,-0.0011930465698242188,-0.003911465406417847,-0.011402119882404804
1772905676381377500,0.67637744140625,-0.003505706787109375,-0.006152123212814331,-0.01124334242194891
1772905676391377400,0.68637744140625,-0.0035839080810546875,-0.008397907018661499,-0.006307294592261314
1772905676401377500,0.69637744140625,-0.0036611557006835938,-0.008245319128036499,-0.004073332995176315
1772905676411377400,0.70637744140625,-0.0035829544067382812,-0.008094757795333862,-0.004231955856084824
1772905676421377500,0.71637744140625,-0.005900382995605469,-0.008243739604949951,-0.004075188189744949
1772905676431377400,0.72637744140625,-0.005824089050292969,-0.0060058534145355225,-0.003927174955606461
1772905676441377500,0.73637744140625,-0.008296966552734375,-0.0037620365619659424,-0.006165081635117531
1772905676451377400,0.74637744140625,-0.010767936706542969,-0.0012146234512329102,-0.008541591465473175
1772905676461377500,0.75637744140625,-0.010848045349121094,0.0013320446014404297,-0.006305845454335213
1772905676471377400,0.76637744140625,-0.008527755737304688,0.0014838576316833496,-0.006456112489104271
1772905676481377500,0.77637744140625,-0.006209373474121094,0.0016387104988098145,-0.00869443267583847
1772905676491377400,0.78637744140625,-0.003894805908203125,-0.00060310959815979,-0.008538750931620598
1772905676501377500,0.79637744140625,0.0008192062377929688,-0.0004417300224304199,-0.00869494304060936
1772905676511377400,0.80637744140625,0.003292083740234375,0.004188805818557739,-0.006451373919844627
1772905676521377500,0.81637744140625,0.0033712387084960938,0.004041165113449097,-0.006301740184426308
1772905676531377400,0.82637744140625,0.0010519027709960938,0.0018063485622406006,-0.008548028767108917
1772905676541377500,0.83637744140625,-0.0014219284057617188,-0.00042819976806640625,-0.008390795439481735
1772905676551377400,0.84637744140625,-0.006289482116699219,-0.0026716291904449463,-0.008234027773141861
1772905676561377500,0.85637744140625,-0.011153221130371094,-0.0049054622650146484,-0.0059885792434215546
1772905676571377400,0.86637744140625,-0.013623237609863281,-0.004748106002807617,-0.005835447460412979
1772905676581377500,0.87637744140625,-0.011303901672363281,-0.0045957863330841064,-0.0011958125978708267
1772905676591377400,0.88637744140625,-0.008829116821289062,-0.0023497045040130615,0.0010394435375928879
1772905676601377500,0.89637744140625,-0.00635528564453125,-0.0025042295455932617,0.0011957883834838867
1772905676611377400,0.90637744140625,-0.0016069412231445312,-0.002658367156982422,0.0013469904661178589
1772905676621377500,0.91637744140625,0.0008630752563476562,-0.005208879709243774,-0.0035919230431318283
1772905676631377400,0.92637744140625,0.0033330917358398438,-0.00297391414642334,-0.0037403982132673264
1772905676641377500,0.93637744140625,0.0034132003784179688,-0.0007278621196746826,-0.005978308618068695
1772905676651377400,0.94637744140625,0.0009450912475585938,-0.0005694031715393066,-0.008221054449677467
1772905676661377500,0.95637744140625,0.0008668899536132812,-0.0031125545501708984,-0.0083701740950346
1772905676671377400,0.96637744140625,-0.0016050338745117188,-0.0032663345336914062,-0.008219830691814423
1772905676681377500,0.97637744140625,-0.001605987548828125,-0.003573685884475708,-0.003699313849210739
1772905676691377400,0.98637744140625,-0.00160980224609375,-0.0038775205612182617,-0.004009652882814407
1772905676701377500,0.99637744140625,-0.004002571105957031,-0.00658726692199707,-0.004319896921515465
1772905676711377400,1.00637744140625,-0.004000663757324219,-0.006909281015396118,-0.004634544253349304
1772905676721377500,1.01637744140625,-0.0016078948974609375,-0.007223933935165405,-0.007027504965662956
1772905676731377400,1.02637744140625,-0.0038499832153320312,-0.007525622844696045,-0.009417654946446419
1772905676741377500,1.03637744140625,-0.0060901641845703125,-0.005445033311843872,-0.007011024281382561
1772905676751377400,1.04637744140625,-0.008484840393066406,-0.005751311779022217,-0.004606705158948898
1772905676761377500,1.05637744140625,-0.008482933044433594,-0.005754560232162476,-0.0025241561233997345
1772905676771377400,1.06637744140625,-0.008485794067382812,-0.0033554136753082275,-0.00012391619384288788
1772905676781377500,1.07637744140625,-0.0059356689453125,-0.0033622682094573975,-0.002514394000172615
1772905676791377400,1.08637744140625,-0.0033903121948242188,-0.0012823939323425293,-0.005075724795460701
1772905676801377500,1.09637744140625,0.001560211181640625,-0.0015849173069000244,-0.004760388284921646
1772905676811377400,1.10637744140625,0.0017080307006835938,-0.003977000713348389,-0.004768282175064087
1772905676821377500,1.11637744140625,0.0018587112426757812,-0.006369501352310181,-0.00716857984662056
1772905676831377400,1.12637744140625,-0.0005321502685546875,-0.008758872747421265,-0.007173767313361168
1772905676841377500,1.13637744140625,-0.0005331039428710938,-0.011154592037200928,-0.007174279540777206
1772905676851377400,1.14637744140625,-0.003082275390625,-0.008446305990219116,-0.0068635232746601105
1772905676861377500,1.15637744140625,-0.0032405853271484375,-0.008150488138198853,-0.00700957328081131
1772905676871377400,1.16637744140625,-0.00579071044921875,-0.005766421556472778,-0.012097367085516453
1772905676881377500,1.17637744140625,-0.005787849426269531,-0.005772531032562256,-0.014796268194913864
1772905676891377400,1.18637744140625,-0.005785942077636719,-0.0036811232566833496,-0.017196476459503174
1772905676901377500,1.19637744140625,-0.0056324005126953125,-0.0038795769214630127,-0.017197664827108383
1772905676911377400,1.20637744140625,-0.005480766296386719,-0.004189521074295044,-0.015117989853024483
1772905676921377500,1.21637744140625,-0.005328178405761719,-0.0044896602630615234,-0.012427535839378834
1772905676931377400,1.22637744140625,-0.005331993103027344,-0.004500240087509155,-0.009714506566524506
1772905676941377500,1.23637744140625,-0.005331993103027344,-0.002108544111251831,-0.004927091300487518
1772905676951377400,1.24637744140625,-0.005372047424316406,-0.002103567123413086,-0.0004382748156785965
1772905676961377500,1.25637744140625,-0.00537109375,-0.0020956099033355713,0.0019550099968910217
1772905676971377400,1.26637744140625,-0.0077648162841796875,-0.004483342170715332,-0.0004485808312892914
1772905676981377500,1.27637744140625,-0.007767677307128906,-0.006882905960083008,-0.005232531577348709
1772905676991377400,1.28637744140625,-0.007611274719238281,-0.007189929485321045,-0.00793512538075447
1772905677001377500,1.29637744140625,-0.007452964782714844,-0.007200092077255249,-0.0100325308740139
1772905677011377400,1.30637744140625,-0.004901885986328125,-0.006892025470733643,-0.010032888501882553
1772905677021377500,1.31637744140625,-0.0026617050170898438,-0.008986473083496094,-0.009723709896206856
1772905677031377400,1.32637744140625,-0.00041961669921875,-0.008672893047332764,-0.009729702025651932
1772905677041377500,1.33637744140625,-0.0005750656127929688,-0.005965679883956909,-0.009418383240699768
1772905677051377400,1.34637744140625,-0.0031194686889648438,-0.003256082534790039,-0.011495492421090603
1772905677061377500,1.35637744140625,-0.003276824951171875,-0.0005522668361663818,-0.009409494698047638
1772905677071377400,1.36637744140625,-0.00582122802734375,-0.0005542635917663574,-0.00941261276602745
1772905677081377500,1.37637744140625,-0.008366584777832031,-0.0005417764186859131,-0.00941472314298153
1772905677091377400,1.38637744140625,-0.0107574462890625,-0.0029327869415283203,-0.009416323155164719
1772905677101377500,1.39637744140625,-0.010761260986328125,-0.0029306113719940186,-0.00941414199769497
1772905677111377400,1.40637744140625,-0.00836181640625,-0.005321025848388672,-0.009717261418700218
1772905677121377500,1.41637744140625,-0.005965232849121094,-0.010107576847076416,-0.009836839511990547
1772905677131377400,1.42637744140625,-0.0037212371826171875,-0.012496411800384521,-0.00745038129389286
1772905677141377500,1.43637744140625,-0.0014848709106445312,-0.01010236144065857,-0.0077649857848882675
1772905677151377400,1.44637744140625,-0.0016384124755859375,-0.005625486373901367,-0.00775521993637085
1772905677161377500,1.45637744140625,-0.0064296722412109375,-0.0035475194454193115,-0.00806441530585289
1772905677171377400,1.46637744140625,-0.008669853210449219,-0.0014577507972717285,-0.008060624822974205
1772905677181377500,1.47637744140625,-0.008521080017089844,-0.004171133041381836,-0.005661332979798317
1772905677191377400,1.48637744140625,-0.0059719085693359375,-0.004476398229598999,-0.008371690288186073
1772905677201377500,1.49637744140625,-0.005816459655761719,-0.007167845964431763,-0.010616503655910492
1772905677211377400,1.50637744140625,-0.0032634735107421875,-0.007157057523727417,-0.012799280695617199
1772905677221377500,1.51637744140625,-0.0031061172485351562,-0.004964113235473633,-0.012494171969592571
1772905677231377400,1.52637744140625,-0.0029506683349609375,-0.004659801721572876,-0.012483862228691578
1772905677241377500,1.53637744140625,-0.0029506683349609375,-0.006860017776489258,-0.01008896715939045
1772905677251377400,1.54637744140625,-0.0053424835205078125,-0.008940428495407104,-0.00768430158495903
1772905677261377500,1.55637744140625,-0.0053424835205078125,-0.00384405255317688,-0.00797976553440094
1772905677271377400,1.56637744140625,-0.0029439926147460938,-0.001139909029006958,-0.007989058271050453
1772905677281377500,1.57637744140625,-0.0029449462890625,-0.0035376250743865967,-0.00799480825662613
1772905677291377400,1.58637744140625,-0.0027894973754882812,-0.0011515021324157715,-0.010390069335699081
1772905677301377500,1.59637744140625,-0.0027914047241210938,0.0012411773204803467,-0.0100796427577734
1772905677311377400,1.60637744140625,-0.0027914047241210938,0.0015471875667572021,-0.01007341779768467
1772905677321377500,1.61637744140625,-0.0027904510498046875,-0.000852435827255249,-0.010086789727210999
1772905677331377400,1.62637744140625,-0.006290435791015625,-0.0045327842235565186,-0.007201081141829491
1772905677341377500,1.63637744140625,-0.00637054443359375,-0.006765961647033691,-0.007041880860924721
1772905677351377400,1.64637744140625,-0.0064449310302734375,-0.008998692035675049,-0.00928623415529728
1772905677361377500,1.65637744140625,-0.008913993835449219,-0.006444662809371948,-0.009438896551728249
1772905677371377400,1.66637744140625,-0.008988380432128906,-0.006592452526092529,-0.009290823712944984
1772905677381377500,1.67637744140625,-0.009067535400390625,-0.0040486156940460205,-0.007052022963762283
1772905677391377400,1.68637744140625,-0.009146690368652344,-0.0018098056316375732,-0.0072040073573589325
1772905677401377500,1.69637744140625,-0.009095191955566406,0.0004354417324066162,-0.009758377447724342
1772905677411377400,1.70637744140625,-0.006781578063964844,0.0002740323543548584,-0.009600590914487839
1772905677421377500,1.71637744140625,-0.006854057312011719,-0.0022714436054229736,-0.009749513119459152
1772905677431377400,1.72637744140625,-0.004382133483886719,-0.002423614263534546,-0.00959235243499279
1772905677441377500,1.73637744140625,-0.0043010711669921875,-0.00497475266456604,-0.009744377806782722
1772905677451377400,1.74637744140625,-0.006618499755859375,-0.0027350783348083496,-0.0075093768537044525
1772905677461377500,1.75637744140625,-0.008938789367675781,-0.0004904866218566895,-0.005275610834360123
1772905677471377400,1.76637744140625,-0.008859634399414062,-0.0006378889083862305,-0.005430161952972412
1772905677491377400,1.78637744140625,-0.006308555603027344,-0.003343552350997925,-0.005744734779000282
1772905677501377500,1.79637744140625,-0.006228446960449219,-0.005898922681808472,-0.008287768810987473
1772905677511377400,1.80637744140625,-0.0061511993408203125,-0.006053179502487183,-0.00843961164355278
1772905677521377500,1.81637744140625,-0.006076812744140625,-0.006213456392288208,-0.00859116017818451
1772905677531377400,1.82637744140625,-0.006003379821777344,-0.008765637874603271,-0.008749118074774742
1772905677541377500,1.83637744140625,-0.005928993225097656,-0.00892677903175354,-0.006195815280079842
1772905677551377400,1.84637744140625,-0.008243560791015625,-0.006373107433319092,-0.006353439763188362
1772905677561377500,1.85637744140625,-0.008167266845703125,-0.00413474440574646,-0.006194442510604858
1772905677571377400,1.86637744140625,-0.010485649108886719,-0.003982186317443848,-0.006354663521051407
1772905677591377400,1.88637744140625,-0.007935523986816406,-0.006382852792739868,-0.0015669502317905426
1772905677601377500,1.89637744140625,-0.005467414855957031,-0.006535261869430542,-0.0014169029891490936
1772905677611377400,1.90637744140625,-0.0029954910278320312,-0.006379276514053345,-0.00157172791659832
1772905677621377500,1.91637744140625,-0.0029172897338867188,-0.006535440683364868,-0.0038099195808172226
1772905677631377400,1.92637744140625,-0.0028429031372070312,-0.003983676433563232,-0.003960816189646721
1772905677641377500,1.93637744140625,-0.005161285400390625,-0.0017387568950653076,-0.006199553608894348
1772905677651377400,1.94637744140625,-0.007479667663574219,-0.0015777647495269775,-0.008741622790694237
1772905677661377500,1.95637744140625,-0.007401466369628906,-0.001732468605041504,-0.008898040279746056
1772905677671377400,1.96637744140625,-0.009718894958496094,-0.004277080297470093,-0.008749322965741158
1772905677681377500,1.97637744140625,-0.009714126586914062,-0.004587501287460327,-0.009064460173249245
1772905677691377400,1.98637744140625,-0.007166862487792969,-0.004591643810272217,-0.009362984448671341
1772905677701377500,1.99637744140625,-0.007016181945800781,-0.007301628589630127,-0.00905570387840271
1772905677711377400,2.00637744140625,-0.004471778869628906,-0.007312685251235962,-0.009042458608746529
1772905677721377500,2.01637744140625,-0.0067119598388671875,-0.010014951229095459,-0.008950196206569672
1772905677731377400,2.02637744140625,-0.00655364990234375,-0.009698629379272461,-0.008959567174315453
1772905677741377500,2.03637744140625,-0.006525993347167969,-0.009700268507003784,-0.008638601750135422
1772905677751377400,2.04637744140625,-0.0063724517822265625,-0.006996214389801025,-0.00864608958363533
1772905677761377500,2.05637744140625,-0.003826141357421875,-0.006693750619888306,-0.00864599272608757
1772905677771377400,2.06637744140625,-0.001434326171875,-0.004307776689529419,-0.008650844916701317
1772905677781377500,2.07637744140625,-0.0014400482177734375,-0.0015964210033416748,-0.006258571520447731
1772905677791377400,2.08637744140625,-0.0038318634033203125,-0.00367853045463562,-0.003857789561152458
1772905677801377500,2.09637744140625,-0.003826141357421875,-0.00577118992805481,-0.0011453721672296524
1772905677811377400,2.10637744140625,-0.0039806365966796875,-0.005469799041748047,-0.001144522801041603
1772905677821377500,2.11637744140625,-0.006377220153808594,-0.007563173770904541,-0.003223506733775139
1772905677831377400,2.12637744140625,-0.006378173828125,-0.004854083061218262,-0.005302611738443375
1772905677841377500,2.13637744140625,-0.00414276123046875,-0.0021389126777648926,-0.005304040387272835
1772905677851377400,2.14637744140625,-0.004294395446777344,-0.0018232464790344238,-0.00530286505818367
1772905677861377500,2.15637744140625,-0.004291534423828125,0.0008828043937683105,-0.005001816898584366
1772905677871377400,2.16637744140625,-0.004445075988769531,0.0008841454982757568,-0.0046866219490766525
1772905677881377500,2.17637744140625,-0.006859779357910156,-0.0011935532093048096,-0.007400216534733772
1772905677891377400,2.18637744140625,-0.00685882568359375,-0.0015135109424591064,-0.007081609219312668
1772905677901377500,2.19637744140625,-0.0068569183349609375,-0.0012060105800628662,-0.007399698719382286
1772905677911377400,2.20637744140625,-0.006855010986328125,-0.0035954415798187256,-0.007395727559924126
1772905677921377500,2.21637744140625,-0.006855010986328125,-0.0035903453826904297,-0.004997674375772476
1772905677931377400,2.22637744140625,-0.006859779357910156,-0.0015079379081726074,-0.004998549818992615
1772905677941377500,2.23637744140625,-0.004464149475097656,-0.001509547233581543,-0.007392270490527153
1772905677951377400,2.24637744140625,-0.002063751220703125,0.0005778372287750244,-0.00947892852127552
1772905677961377500,2.25637744140625,0.00032711029052734375,0.002976655960083008,-0.00725148618221283
1772905677971377400,2.26637744140625,0.00032806396484375,0.002669692039489746,-0.004546197131276131
1772905677981377500,2.27637744140625,0.00032711029052734375,0.002669781446456909,-0.0021594222635030746
1772905677991377400,2.28637744140625,0.00032520294189453125,-0.00004693865776062012,0.000543452799320221
1772905678001377500,2.29637744140625,-0.004464149475097656,-0.0045223236083984375,0.000551179051399231
1772905678011377400,2.30637744140625,-0.006855010986328125,-0.006611734628677368,0.0002508480101823807
1772905678021377500,2.31637744140625,-0.009100914001464844,-0.0066228508949279785,-0.0018297377973794937
1772905678031377400,2.32637744140625,-0.009103775024414062,-0.004229217767715454,-0.0015235412865877151
1772905678041377500,2.33637744140625,-0.009104728698730469,-0.003919422626495361,-0.0018337350338697433
1772905678051377400,2.34637744140625,-0.009104728698730469,-0.0039101243019104,-0.0018397066742181778
1772905678061377500,2.35637744140625,-0.009099006652832031,-0.003590196371078491,-0.001614987850189209
1772905678071377400,2.36637744140625,-0.009099006652832031,0.000884711742401123,-0.0013017617166042328
1772905678081377500,2.37637744140625,-0.009099006652832031,0.0011844933032989502,-0.004013873636722565
1772905678091377400,2.38637744140625,-0.009096145629882812,0.0011944472789764404,-0.004005689173936844
1772905678101377500,2.39637744140625,-0.006699562072753906,-0.0011959671974182129,-0.006399555131793022
1772905678111377400,2.40637744140625,-0.004302978515625,-0.0008870065212249756,-0.004313269630074501
1772905678121377500,2.41637744140625,-0.004298210144042969,-0.0008909404277801514,-0.004006527364253998
1772905678131377400,2.42637744140625,-0.0066986083984375,-0.0008934736251831055,-0.006396684795618057
1772905678141377500,2.43637744140625,-0.0066967010498046875,0.0014978349208831787,-0.006477668881416321
1772905678151377400,2.44637744140625,-0.004153251647949219,0.003583669662475586,-0.008569778874516487
1772905678161377500,2.45637744140625,-0.0043048858642578125,0.003433436155319214,-0.008565407246351242
1772905678171377400,2.46637744140625,-0.006855010986328125,0.001043558120727539,-0.008881771937012672
1772905678181377500,2.47637744140625,-0.006857872009277344,-0.004059970378875732,-0.006181465461850166
1772905678191377400,2.48637744140625,-0.00685882568359375,-0.006774634122848511,-0.005878407508134842
1772905678201377500,2.49637744140625,-0.00701141357421875,-0.011558204889297485,-0.005869526416063309
1772905678211377400,2.50637744140625,-0.004616737365722656,-0.008848398923873901,-0.005874523892998695
1772905678221377500,2.51637744140625,-0.004748344421386719,-0.004372775554656982,-0.003168240189552307
1772905678231377400,2.52637744140625,-0.007297515869140625,-0.0019664764404296875,-0.003483446314930916
1772905678241377500,2.53637744140625,-0.0074558258056640625,0.0025098025798797607,-0.0010868348181247711
1772905678251377400,2.54637744140625,-0.010006904602050781,0.002194702625274658,-0.0007829945534467697
1772905678261377500,2.55637744140625,-0.010162353515625,0.0021955668926239014,-0.0011031627655029297
1772905678271377400,2.56637744140625,-0.010317802429199219,0.00011584162712097168,-0.0031815972179174423
1772905678281377500,2.57637744140625,-0.010470390319824219,-0.0022854208946228027,-0.003177521750330925
1772905678291377400,2.58637744140625,-0.005835533142089844,-0.0019752085208892822,-0.005671240389347076
1772905678301377500,2.59637744140625,-0.0035924911499023438,-0.004368245601654053,-0.005500726401805878
1772905678311377400,2.60637744140625,-0.00135040283203125,-0.004367023706436157,-0.005510261282324791
1772905678321377500,2.61637744140625,-0.0015020370483398438,-0.004369765520095825,-0.0034193675965070724
1772905678331377400,2.62637744140625,-0.006290435791015625,-0.0045327842235565186,-0.00241268053650856
1772905678341377500,2.63637744140625,-0.008763313293457031,-0.004693657159805298,-0.00016608648002147675
1772905678351377400,2.64637744140625,-0.008843421936035156,-0.0024506747722625732,-0.0027152076363563538
1772905678361377500,2.65637744140625,-0.01131439208984375,-0.00499802827835083,-0.005262104794383049
1772905678371377400,2.66637744140625,-0.011236190795898438,-0.00724378228187561,-0.007508032023906708
1772905678381377500,2.67637744140625,-0.008764266967773438,-0.007391005754470825,-0.007352996617555618
1772905678391377400,2.68637744140625,-0.008837699890136719,-0.007542073726654053,-0.005071807652711868
1772905678401377500,2.69637744140625,-0.008913040161132812,-0.004991590976715088,-0.0028362609446048737
1772905678411377400,2.70637744140625,-0.006443977355957031,-0.0024460256099700928,-0.0002888701856136322
1772905678421377500,2.71637744140625,-0.00652313232421875,-0.002381742000579834,-0.0025275368243455887
1772905678431377400,2.72637744140625,-0.006598472595214844,-0.004687666893005371,-0.00507308728992939
1772905678441377500,2.73637744140625,-0.006679534912109375,-0.006928950548171997,-0.007625242695212364
1772905678451377400,2.74637744140625,-0.009153366088867188,-0.004685103893280029,-0.007464200258255005
1772905678461377500,2.75637744140625,-0.009230613708496094,-0.004838109016418457,-0.002833891659975052
1772905678471377400,2.76637744140625,-0.006916999816894531,-0.002598494291305542,-0.0005902517586946487
1772905678481377500,2.77637744140625,-0.006992340087890625,-0.00005125999450683594,-0.0004335884004831314
1772905678491377400,2.78637744140625,-0.0070667266845703125,-0.0025547444820404053,-0.00267600454390049
1772905678501377500,2.79637744140625,-0.009537696838378906,-0.004796206951141357,-0.007613224908709526
1772905678511377400,2.80637744140625,-0.009458541870117188,-0.004635900259017944,-0.009846627712249756
1772905678521377500,2.81637744140625,-0.006984710693359375,-0.0071791112422943115,-0.012391253374516964
1772905678531377400,2.82637744140625,-0.00930023193359375,-0.007019609212875366,-0.012544437311589718
1772905678541377500,2.83637744140625,-0.009220123291015625,-0.004784107208251953,-0.009996898472309113
1772905678551377400,2.84637744140625,-0.009294509887695312,-0.002545654773712158,-0.0053610652685165405
1772905678561377500,2.85637744140625,-0.0068264007568359375,-0.002612173557281494,-0.005514867603778839
1772905678571377400,2.86637744140625,-0.00675201416015625,-0.0027648508548736572,-0.005361059680581093
1772905678581377500,2.87637744140625,-0.0042819976806640625,-0.002925097942352295,-0.005513200536370277
1772905678591377400,2.88637744140625,-0.00420379638671875,-0.003075540065765381,-0.005662182345986366
1772905678601377500,2.89637744140625,-0.004123687744140625,-0.0005319118499755859,-0.00550239160656929
1772905678611377400,2.90637744140625,-0.0040493011474609375,-0.0006850659847259521,-0.007744409143924713
1772905678621377500,2.91637744140625,-0.0063629150390625,-0.0005366802215576172,-0.007900914177298546
1772905678631377400,2.92637744140625,-0.008683204650878906,0.002012908458709717,-0.008054614067077637
1772905678641377500,2.93637744140625,-0.008603096008300781,-0.0005362927913665771,-0.010300373658537865
1772905678651377400,2.94637744140625,-0.011075019836425781,-0.0003889799118041992,-0.010454567149281502
1772905678661377500,2.95637744140625,-0.013390541076660156,-0.002631157636642456,-0.010610934346914291
1772905678671377400,2.96637744140625,-0.013309478759765625,-0.002779364585876465,-0.01045851781964302
1772905678681377500,2.97637744140625,-0.010759353637695312,-0.0024709701538085938,-0.008073976263403893
1772905678691377400,2.98637744140625,-0.008205413818359375,-0.00456663966178894,-0.005676772445440292
1772905678701377500,2.99637744140625,-0.005656242370605469,-0.004258960485458374,-0.005368983373045921
1772905678711377400,3.00637744140625,-0.000865936279296875,-0.004254788160324097,-0.007750464603304863
1772905678721377500,3.01637744140625,-0.0008707046508789062,-0.003951430320739746,-0.01015142910182476
1772905678731377400,3.02637744140625,-0.0031137466430664062,-0.001250237226486206,-0.012587576173245907
1772905678741377500,3.03637744140625,-0.0053577423095703125,-0.003644198179244995,-0.012271200306713581
1772905678751377400,3.04637744140625,-0.005356788635253906,-0.0036343932151794434,-0.010186711326241493
1772905678761377500,3.05637744140625,-0.0075931549072265625,-0.005937546491622925,-0.00779891200363636
1772905678771377400,3.06637744140625,-0.007439613342285156,-0.005877017974853516,-0.007796838879585266
1772905678781377500,3.07637744140625,-0.009679794311523438,-0.0010829269886016846,-0.005083877593278885
1772905678791377400,3.08637744140625,-0.009521484375,0.001619964838027954,-0.0050895605236291885
1772905678801377500,3.09637744140625,-0.009364128112792969,0.0043218135833740234,-0.007170835509896278
1772905678811377400,3.10637744140625,-0.006808280944824219,0.004636615514755249,-0.007176101207733154
1772905678821377500,3.11637744140625,-0.006659507751464844,0.004642754793167114,-0.004777820780873299
1772905678831377400,3.12637744140625,-0.0065097808837890625,0.0022070109844207764,-0.005090314894914627
1772905678841377500,3.13637744140625,-0.00635528564453125,0.002212703227996826,-0.004782399162650108
1772905678851377400,3.14637744140625,-0.006356239318847656,0.0018908977508544922,-0.005094168707728386
1772905678861377500,3.15637744140625,-0.006356239318847656,0.0021942555904388428,-0.007186507806181908
1772905678871377400,3.16637744140625,-0.0063571929931640625,0.0018818378448486328,-0.0092710480093956
1772905678881377500,3.17637744140625,-0.003968238830566406,-0.0001996457576751709,-0.009270833805203438
1772905678891377400,3.18637744140625,-0.0038156509399414062,-0.0022769272327423096,-0.008963299915194511
1772905678901377500,3.19637744140625,-0.0038099288940429688,-0.0044467151165008545,-0.008647628128528595
1772905678911377400,3.20637744140625,-0.0038099288940429688,-0.0017490684986114502,-0.006251469254493713
1772905678921377500,3.21637744140625,-0.003810882568359375,-0.0014368295669555664,-0.0035529937595129013
1772905678931377400,3.22637744140625,-0.0014181137084960938,-0.0011388957500457764,-0.0011397209018468857
1772905678941377500,3.23637744140625,-0.0015783309936523438,-0.001446753740310669,-0.0011504963040351868
1772905678951377400,3.24637744140625,-0.004123687744140625,-0.0014529228210449219,-0.001456262543797493
1772905678961377500,3.25637744140625,-0.0042819976806640625,-0.0017628967761993408,-0.0038444884121418
1772905678971377400,3.26637744140625,-0.0044345855712890625,0.00032332539558410645,-0.005924947559833527
1772905678981377500,3.27637744140625,-0.004588127136230469,0.00032576918601989746,-0.006220869719982147
1772905678991377400,3.28637744140625,-0.004590034484863281,0.000024080276489257812,-0.0038269367069005966
1772905679001377500,3.29637744140625,-0.004742622375488281,-0.0026693642139434814,-0.0014370009303092957
1772905679011377400,3.30637744140625,-0.0025091171264648438,-0.002370297908782959,0.0006434526294469833
1772905679021377500,3.31637744140625,-0.0026636123657226562,-0.00267067551612854,0.003047581762075424
1772905679031377400,3.32637744140625,-0.0028209686279296875,-0.0005775392055511475,0.0009572375565767288
1772905679041377500,3.33637744140625,-0.002979278564453125,0.0015054047107696533,-0.0017421897500753403
1772905679051377400,3.34637744140625,-0.0007429122924804688,0.0012014806270599365,-0.0020570680499076843
1772905679061377500,3.35637744140625,-0.0008907318115234375,-0.0015024244785308838,-0.004756646230816841
1772905679071377400,3.36637744140625,-0.005832672119140625,0.0005823671817779541,-0.006836274638772011
1772905679081377500,3.37637744140625,-0.008376121520996094,0.0026586055755615234,-0.007144680246710777
1772905679091377400,3.38637744140625,-0.010767936706542969,0.002649754285812378,-0.006831260398030281
1772905679101377500,3.39637744140625,-0.010771751403808594,0.0023373663425445557,-0.007133921608328819
1772905679111377400,3.40637744140625,-0.010775566101074219,0.002343475818634033,-0.007143009454011917
1772905679121377500,3.41637744140625,-0.0083770751953125,0.0023381710052490234,-0.0050684381276369095
1772905679131377400,3.42637744140625,-0.008376121520996094,-0.00006565451622009277,-0.005075635388493538
1772905679141377500,3.43637744140625,-0.008381843566894531,-0.00485876202583313,-0.005385588854551315
1772905679151377400,3.44637744140625,-0.00838470458984375,-0.007252931594848633,-0.007781181484460831
1772905679161377500,3.45637744140625,-0.010775566101074219,-0.007254749536514282,-0.010188380256295204
1772905679171377400,3.46637744140625,-0.013167381286621094,-0.004552632570266724,-0.012260357849299908
1772905679181377500,3.47637744140625,-0.013164520263671875,-0.0021626949310302734,-0.00986991636455059
1772905679191377400,3.48637744140625,-0.010767936706542969,-0.0018441081047058105,-0.004772156476974487
1772905679201377500,3.49637744140625,-0.0083770751953125,0.0005429685115814209,-0.0023773983120918274
1772905679211377400,3.50637744140625,-0.0035848617553710938,0.0008523464202880859,-0.002379210665822029
1772905679221377500,3.51637744140625,-0.0035848617553710938,0.0008469820022583008,-0.0023778658360242844
1772905679231377400,3.52637744140625,-0.0035829544067382812,-0.0015465617179870605,-0.0047797877341508865
1772905679241377500,3.53637744140625,-0.003589630126953125,-0.0015548467636108398,-0.004783721640706062
1772905679251377400,3.54637744140625,-0.0035848617553710938,-0.001553952693939209,-0.0023948252201080322
1772905679261377500,3.55637744140625,-0.005976676940917969,-0.001550912857055664,-0.004786435514688492
1772905679271377400,3.56637744140625,-0.005978584289550781,-0.003938525915145874,-0.004813499748706818
1772905679281377500,3.57637744140625,-0.008215904235839844,-0.006012678146362305,-0.00241127610206604
1772905679291377400,3.58637744140625,-0.010460853576660156,-0.005704104900360107,-0.002108292654156685
1772905679301377500,3.59637744140625,-0.010310173034667969,-0.002993762493133545,-0.004192402586340904
1772905679311377400,3.60637744140625,-0.012547492980957031,-0.0002891719341278076,-0.004203908145427704
1772905679321377500,3.61637744140625,-0.012396812438964844,0.000015050172805786133,-0.001508079469203949
1772905679331377400,3.62637744140625,-0.013472557067871094,-0.002138584852218628,-0.00241268053650856
1772905679341377500,3.63637744140625,-0.011000633239746094,-0.0067726969718933105,-0.004656054079532623
1772905679351377400,3.64637744140625,-0.010923385620117188,-0.006616532802581787,-0.006891284137964249
1772905679361377500,3.65637744140625,-0.008454322814941406,-0.006462961435317993,-0.006742933765053749
1772905679371377400,3.66637744140625,-0.0059833526611328125,-0.003909707069396973,-0.006586626172065735
1772905679381377500,3.67637744140625,-0.005904197692871094,-0.0013628005981445312,-0.006426360458135605
1772905679391377400,3.68637744140625,-0.005827903747558594,-0.00360870361328125,-0.0062700845301151276
1772905679401377500,3.69637744140625,-0.008143424987792969,-0.005843669176101685,-0.006119990721344948
1772905679411377400,3.70637744140625,-0.008068084716796875,-0.0056823790073394775,-0.008362093940377235
1772905679421377500,3.71637744140625,-0.00798797607421875,-0.005525827407836914,-0.010608070529997349
1772905679431377400,3.72637744140625,-0.010304450988769531,-0.005378067493438721,-0.008057970553636551
1772905679441377500,3.73637744140625,-0.012623786926269531,-0.005224287509918213,-0.007904000580310822
1772905679451377400,3.74637744140625,-0.010149955749511719,-0.0026695430278778076,-0.010456749238073826
1772905679461377500,3.75637744140625,-0.007678985595703125,-0.0025104284286499023,-0.010607377626001835
1772905679471377400,3.76637744140625,-0.005208015441894531,-0.00027745962142944336,-0.00805218517780304
1772905679481377500,3.77637744140625,-0.00513458251953125,0.001962512731552124,-0.007895618677139282
1772905679491377400,3.78637744140625,-0.0074520111083984375,0.00211527943611145,-0.0032650306820869446
1772905679501377500,3.79637744140625,-0.009924888610839844,-0.00012868642807006836,-0.00342409685254097
1772905679511377400,3.80637744140625,-0.009999275207519531,0.000026017427444458008,-0.001181008294224739
1772905679521377500,3.81637744140625,-0.0076847076416015625,-0.002526789903640747,0.0010606888681650162
1772905679531377400,3.82637744140625,-0.007609367370605469,-0.0026873648166656494,-0.0014817528426647186
1772905679541377500,3.83637744140625,-0.010079383850097656,-0.005241572856903076,-0.006423259153962135
1772905679551377400,3.84637744140625,-0.007761955261230469,-0.005398273468017578,-0.008967416360974312
1772905679561377500,3.85637744140625,-0.007841110229492188,-0.005242258310317993,-0.009122643619775772
1772905679571377400,3.86637744140625,-0.007915496826171875,-0.00509190559387207,-0.006875969469547272
1772905679581377500,3.87637744140625,-0.00783538818359375,-0.002547740936279297,-0.0022427998483181
1772905679591377400,3.88637744140625,-0.007755279541015625,0.0000017583370208740234,0.00030764006078243256
1772905679601377500,3.89637744140625,-0.010076522827148438,0.00016179680824279785,0.00045491568744182587
1772905679611377400,3.90637744140625,-0.00760650634765625,-0.0020785927772521973,-0.0017810240387916565
1772905679621377500,3.91637744140625,-0.007525444030761719,-0.0019285082817077637,-0.006421081721782684
1772905679631377400,3.92637744140625,-0.005053520202636719,-0.0017769038677215576,-0.008654236793518066
1772905679641377500,3.93637744140625,-0.0025806427001953125,-0.0016198158264160156,-0.006111159920692444
1772905679651377400,3.94637744140625,-0.0025014877319335938,-0.004168957471847534,-0.0035664793103933334
1772905679661377500,3.95637744140625,-0.0025787353515625,-0.001925736665725708,-0.001012023538351059
1772905679671377400,3.96637744140625,-0.0074462890625,-0.0017644166946411133,-0.001172814518213272
1772905679681377500,3.97637744140625,-0.009992599487304688,-0.0017684996128082275,-0.006266910582780838
1772905679691377400,3.98637744140625,-0.009995460510253906,-0.004170864820480347,-0.0062710996717214584
1772905679701377500,3.99637744140625,-0.0075969696044921875,-0.004169166088104248,-0.006262000650167465
1772905679711377400,4.00637744140625,-0.0052013397216796875,-0.004173696041107178,-0.0014800205826759338
1772905679721377500,4.01637744140625,-0.002811431884765625,-0.001771390438079834,-0.001485707238316536
1772905679731377400,4.02637744140625,-0.0028142929077148438,0.0006302595138549805,-0.006276402622461319
1772905679741377500,4.03637744140625,-0.0029668807983398438,0.0030173063278198242,-0.008671553805470467
1772905679751377400,4.04637744140625,-0.002964019775390625,0.0006161034107208252,-0.00866631232202053
1772905679761377500,4.05637744140625,-0.0053577423095703125,0.0006149113178253174,-0.0038707591593265533
1772905679771377400,4.06637744140625,-0.007907867431640625,0.0005453228950500488,-0.0014731809496879578
1772905679781377500,4.07637744140625,-0.008055686950683594,-0.0018506944179534912,0.0009160209447145462
1772905679791377400,4.08637744140625,-0.0056667327880859375,-0.004252612590789795,0.0012250188738107681
1772905679801377500,4.09637744140625,-0.0056667327880859375,-0.004264265298843384,-0.0008654072880744934
1772905679811377400,4.10637744140625,-0.005669593811035156,-0.0015550851821899414,-0.0032665804028511047
1772905679821377500,4.11637744140625,-0.0032720565795898438,0.0011475682258605957,-0.005662351846694946
1772905679831377400,4.12637744140625,-0.003421783447265625,0.0011560916900634766,-0.005353027954697609
1772905679841377500,4.13637744140625,-0.0034246444702148438,0.0035543739795684814,-0.007738512009382248
1772905679851377400,4.14637744140625,-0.0032701492309570312,0.005640178918838501,-0.007427753880620003
1772905679861377500,4.15637744140625,-0.0031137466430664062,0.003254234790802002,-0.004720574244856834
1772905679871377400,4.16637744140625,-0.0032644271850585938,0.0035732686519622803,-0.004419531673192978
1772905679881377500,4.17637744140625,-0.0055065155029296875,0.0038924217224121094,-0.002021161839365959
1772905679891377400,4.18637744140625,-0.010293960571289062,0.006600052118301392,0.0006751511245965958
1772905679901377500,4.19637744140625,-0.010289192199707031,0.008998572826385498,0.000977957621216774
1772905679911377400,4.20637744140625,-0.01013946533203125,0.013793915510177612,-0.0011179447174072266
1772905679921377500,4.21637744140625,-0.010141372680664062,0.013791412115097046,-0.0008098054677248001
1772905679931377400,4.22637744140625,-0.007748603820800781,0.011391520500183105,-0.003212597221136093
1772905679941377500,4.23637744140625,-0.0053501129150390625,0.008984565734863281,-0.0008104592561721802
1772905679951377400,4.24637744140625,-0.005349159240722656,0.004192084074020386,-0.000813683494925499
1772905679961377500,4.25637744140625,-0.0053539276123046875,0.0041994452476501465,-0.0031966902315616608
1772905679971377400,4.26637744140625,-0.010146141052246094,0.006603837013244629,-0.007998661138117313
1772905679981377500,4.27637744140625,-0.012542724609375,0.00659489631652832,-0.005597228184342384
1772905679991377400,4.28637744140625,-0.010151863098144531,0.00690150260925293,-0.0031944643706083298
1772905680001377500,4.29637744140625,-0.0076045989990234375,0.004812717437744141,0.003988053649663925
1772905680021377500,4.31637744140625,-0.004906654357910156,0.004804819822311401,0.004613291472196579
1772905680031377400,4.32637744140625,-0.007300376892089844,0.004806727170944214,0.004612067714333534
1772905680041377500,4.33637744140625,-0.0072994232177734375,0.004804044961929321,0.0022179316729307175
1772905680051377400,4.34637744140625,-0.00969696044921875,0.0048029422760009766,-0.00017541088163852692
1772905680061377500,4.35637744140625,-0.009850502014160156,0.004493802785873413,-0.00017020292580127716
1772905680071377400,4.36637744140625,-0.010000228881835938,0.002092510461807251,-0.00048462487757205963
1772905680081377500,4.37637744140625,-0.010004043579101562,0.0020981431007385254,0.0016045141965150833
1772905680091377400,4.38637744140625,-0.010160446166992188,-0.000604093074798584,0.003990514203906059
1772905680101377500,4.39637744140625,-0.007925987243652344,-0.0009092986583709717,0.003996742889285088
1772905680111377400,4.40637744140625,-0.005534172058105469,-0.0032304227352142334,0.0012949351221323013
1772905680121377500,4.41637744140625,-0.0055370330810546875,-0.0008338391780853271,-0.001398526132106781
1772905680131377400,4.42637744140625,-0.005692481994628906,-0.0008313655853271484,-0.001706460490822792
1772905680141377500,4.43637744140625,-0.005843162536621094,0.0015662014484405518,-0.0020209960639476776
1772905680151377400,4.44637744140625,-0.008386611938476562,0.00396302342414856,0.00006991811096668243
1772905680161377500,4.45637744140625,-0.010935783386230469,0.003970295190811157,-0.00023684091866016388
1772905680171377400,4.46637744140625,-0.013336181640625,0.001566171646118164,-0.0005466993898153305
1772905680181377500,4.47637744140625,-0.013334274291992188,0.0015699267387390137,-0.0005448870360851288
1772905680191377400,4.48637744140625,-0.011096954345703125,0.0018790364265441895,-0.0032551418989896774
1772905680201377500,4.49637744140625,-0.011248588562011719,0.004577577114105225,-0.003566507250070572
1772905680211377400,4.50637744140625,-0.008852005004882812,0.0069675445556640625,-0.003571363165974617
1772905680221377500,4.51637744140625,-0.009008407592773438,0.009362667798995972,-0.0035745184868574142
1772905680231377400,4.52637744140625,-0.011402130126953125,0.009364664554595947,-0.0062714833766222
1772905680241377500,4.53637744140625,-0.013795852661132812,0.009353160858154297,-0.006570814177393913
1772905680251377400,4.54637744140625,-0.013796806335449219,0.006955146789550781,-0.006875939667224884
1772905680261377500,4.55637744140625,-0.013952255249023438,0.004263192415237427,-0.009575916454195976
1772905680271377400,4.56637744140625,-0.011555671691894531,0.003962904214859009,-0.007482429966330528
1772905680281377500,4.57637744140625,-0.00995635986328125,0.0012611448764801025,-0.0077992770820856094
1772905680291377400,4.58637744140625,-0.009499549865722656,-0.0011217892169952393,-0.007201915606856346
1772905680301377500,4.59637744140625,-0.009507179260253906,0.001002669334411621,-0.007459642365574837
1772905680311377400,4.60637744140625,-0.009764671325683594,0.0007370412349700928,-0.010119035840034485
1772905680321377500,4.61637744140625,-0.009766578674316406,0.0004852116107940674,-0.010376006364822388
1772905680331377400,4.62637744140625,-0.011078834533691406,-0.002138584852218628,-0.007201081141829491
1772905680341377500,4.63637744140625,-0.008550643920898438,-0.0022696256637573242,-0.00706484355032444
1772905680351377400,4.64637744140625,-0.00841522216796875,-0.000007927417755126953,-0.007191972807049751
1772905680361377500,4.65637744140625,-0.008278846740722656,-0.00014534592628479004,-0.007318776100873947
1772905680371377400,4.66637744140625,-0.008409500122070312,-0.0002799034118652344,-0.00718216598033905
1772905680381377500,4.67637744140625,-0.010669708251953125,-0.002807915210723877,-0.009441440925002098
1772905680391377400,4.68637744140625,-0.010538101196289062,-0.0053337812423706055,-0.009312717244029045
1772905680401377500,4.69637744140625,-0.008008003234863281,-0.005460113286972046,-0.009439114481210709
1772905680411377400,4.70637744140625,-0.005741119384765625,-0.00798150897026062,-0.009307539090514183
1772905680421377500,4.71637744140625,-0.005612373352050781,-0.008118748664855957,-0.00677984394133091
1772905680431377400,4.72637744140625,-0.00788116455078125,-0.008256256580352783,-0.004250558093190193
1772905680441377500,4.73637744140625,-0.00774383544921875,-0.00838574767112732,-0.0017285924404859543
1772905680451377400,4.74637744140625,-0.010266304016113281,-0.008518457412719727,-0.004254071041941643
1772905680461377500,4.75637744140625,-0.00800323486328125,-0.008653491735458374,-0.004380680620670319
1772905680471377400,4.76637744140625,-0.010532379150390625,-0.006390005350112915,-0.00451139360666275
1772905680481377500,4.77637744140625,-0.0106658935546875,-0.004129499197006226,-0.0046425145119428635
1772905680491377400,4.78637744140625,-0.01053619384765625,-0.001866459846496582,-0.004775051027536392
1772905680501377500,4.79637744140625,-0.008016586303710938,-0.002003103494644165,-0.009690506383776665
1772905680511377400,4.80637744140625,-0.007879257202148438,0.00025656819343566895,-0.009822359308600426
1772905680521377500,4.81637744140625,-0.005347251892089844,-0.0022635161876678467,-0.009956829249858856
1772905680531377400,4.82637744140625,-0.005215644836425781,-0.004790782928466797,-0.010084958747029305
1772905680541377500,4.83637744140625,-0.0074787139892578125,-0.007315695285797119,-0.007815919816493988
1772905680551377400,4.84637744140625,-0.010004997253417969,-0.009838193655014038,-0.0031608212739229202
1772905680561377500,4.85637744140625,-0.010130882263183594,-0.0099753737449646,-0.00328909233212471
1772905680571377400,4.86637744140625,-0.012661933898925781,-0.007707357406616211,-0.003419332206249237
1772905680581377500,4.87637744140625,-0.012530326843261719,-0.0006570219993591309,-0.0035543162375688553
1772905680591377400,4.88637744140625,-0.007877349853515625,0.001867443323135376,-0.006076393648982048
1772905680601377500,4.89637744140625,-0.005614280700683594,0.0017349720001220703,-0.006203178316354752
1772905680611377400,4.90637744140625,-0.005749702453613281,-0.0007860064506530762,-0.008724814280867577
1772905680621377500,4.91637744140625,-0.00588226318359375,-0.0033087432384490967,-0.008850516751408577
1772905680631377400,4.92637744140625,-0.006016731262207031,-0.0058366358280181885,-0.011380201205611229
1772905680641377500,4.93637744140625,-0.008273124694824219,-0.0035788416862487793,-0.011512145400047302
1772905680651377400,4.94637744140625,-0.01079559326171875,-0.003442823886871338,-0.009096642956137657
1772905680661377500,4.95637744140625,-0.013322830200195312,-0.0035681426525115967,-0.009232502430677414
1772905680671377400,4.96637744140625,-0.010792732238769531,-0.003434419631958008,-0.009100919589400291
1772905680681377500,4.97637744140625,-0.010655403137207031,-0.0033034086227416992,-0.008975455537438393
1772905680691377400,4.98637744140625,-0.0081329345703125,-0.00583261251449585,-0.013637945987284184
1772905680701377500,4.99637744140625,-0.005614280700683594,-0.008100330829620361,-0.011369995772838593
1772905680711377400,5.00637744140625,-0.00548553466796875,-0.007974416017532349,-0.008839428424835205
1772905680721377500,5.01637744140625,-0.005356788635253906,-0.005449026823043823,-0.003923160955309868
1772905680731377400,5.02637744140625,-0.005219459533691406,-0.0031835436820983887,-0.0013951417058706284
1772905680741377500,5.03637744140625,-0.007617950439453125,-0.005573451519012451,-0.003799593076109886
1772905680751377400,5.04637744140625,-0.0076274871826171875,-0.005312532186508179,-0.005929557606577873
1772905680761377500,5.05637744140625,-0.010026931762695312,-0.005042552947998047,-0.008070673793554306
1772905680771377400,5.06637744140625,-0.009769439697265625,-0.007166236639022827,-0.008073549717664719
1772905680781377500,5.07637744140625,-0.00977325439453125,-0.006895631551742554,-0.008078120648860931
1772905680791377400,5.08637744140625,-0.0049877166748046875,-0.00662657618522644,-0.008078625425696373
1772905680801377500,5.09637744140625,-0.002826690673828125,-0.006362885236740112,-0.005430929362773895
1772905680811377400,5.10637744140625,-0.0025653839111328125,-0.003971189260482788,-0.005602961406111717
1772905680821377500,5.11637744140625,-0.00042438507080078125,-0.00635334849357605,-0.008260300382971764
1772905680831377400,5.12637744140625,-0.0030803680419921875,-0.00635191798210144,-0.010655472055077553
1772905680851377400,5.14637744140625,-0.008143424987792969,-0.006363391876220703,-0.010908233001828194
1772905680861377500,5.15637744140625,-0.008142471313476562,-0.003967404365539551,-0.008252216503024101
1772905680871377400,5.16637744140625,-0.00814056396484375,0.0008168816566467285,-0.008253945037722588
1772905680881377500,5.17637744140625,-0.008143424987792969,0.0008197128772735596,-0.005865423008799553
1772905680891377400,5.18637744140625,-0.00839996337890625,0.0008183419704437256,-0.0034699812531471252
1772905680901377500,5.19637744140625,-0.00865936279296875,-0.0015680491924285889,-0.0034797973930835724
1772905680911377400,5.20637744140625,-0.008924484252929688,-0.006349772214889526,-0.005871599540114403
1772905680921377500,5.21637744140625,-0.011585235595703125,-0.006352096796035767,-0.008260831236839294
1772905680931377400,5.22637744140625,-0.011853218078613281,-0.003954201936721802,-0.010656334459781647
1772905680941377500,5.23637744140625,-0.012115478515625,-0.003951460123062134,-0.010663546621799469
1772905680951377400,5.24637744140625,-0.012112617492675781,-0.003956705331802368,-0.01066170260310173
1772905680961377500,5.25637744140625,-0.012120246887207031,-0.003946930170059204,-0.01067047193646431
1772905680971377400,5.26637744140625,-0.012120246887207031,-0.006351947784423828,-0.008271679282188416
1772905680981377500,5.27637744140625,-0.012383460998535156,-0.006354629993438721,-0.008264923468232155
1772905680991377400,5.28637744140625,-0.012384414672851562,-0.0039573609828948975,-0.005875147879123688
1772905681001377500,5.29637744140625,-0.012388229370117188,-0.003958404064178467,-0.008270887657999992
1772905681011377400,5.30637744140625,-0.009722709655761719,-0.003965467214584351,-0.008274752646684647
1772905681021377500,5.31637744140625,-0.0070648193359375,-0.003968924283981323,-0.008208967745304108
1772905681031377400,5.32637744140625,-0.0070648193359375,-0.003966093063354492,-0.003155680373311043
1772905681041377500,5.33637744140625,-0.00972747802734375,-0.003964245319366455,-0.0031568650156259537
1772905681051377400,5.34637744140625,-0.009731292724609375,-0.006624847650527954,-0.003048097714781761
1772905681061377500,5.35637744140625,-0.007075309753417969,-0.008763641119003296,-0.003042476251721382
1772905681071377400,5.36637744140625,-0.004688262939453125,-0.008765637874603271,-0.005699692294001579
1772905681081377500,5.37637744140625,-0.0070934295654296875,-0.00637701153755188,-0.005912601947784424
1772905681091377400,5.38637744140625,-0.00948333740234375,-0.0037141144275665283,-0.005913134664297104
1772905681101377500,5.39637744140625,-0.014262199401855469,-0.0037043392658233643,-0.008055707439780235
1772905681111377400,5.40637744140625,-0.014262199401855469,-0.006093859672546387,-0.008060947060585022
1772905681121377500,5.41637744140625,-0.011868476867675781,-0.006087899208068848,-0.00806082971394062
1772905681131377400,5.42637744140625,-0.011871337890625,-0.0034357309341430664,-0.005668947473168373
1772905681141377500,5.43637744140625,-0.009473800659179688,-0.005578041076660156,-0.0032755639404058456
1772905681151377400,5.44637744140625,-0.009470939636230469,-0.005834132432937622,-0.005673777312040329
1772905681161377500,5.45637744140625,-0.009470939636230469,-0.0037074387073516846,-0.008063560351729393
1772905681171377400,5.46637744140625,-0.012125015258789062,-0.001322329044342041,-0.010617610067129135
1772905681181377500,5.47637744140625,-0.014781951904296875,-0.001333385705947876,-0.010883128270506859
1772905681191377400,5.48637744140625,-0.014781951904296875,-0.00373917818069458,-0.008754558861255646
1772905681201377500,5.49637744140625,-0.012421607971191406,-0.008532553911209106,-0.003965597599744797
1772905681211377400,5.50637744140625,-0.010289192199707031,-0.008273571729660034,-0.0013962741941213608
1772905681221377500,5.51637744140625,-0.010289192199707031,-0.008015245199203491,0.0012586992233991623
1772905681231377400,5.52637744140625,-0.010281562805175781,-0.005357652902603149,-0.0011414773762226105
1772905681241377500,5.53637744140625,-0.010284423828125,-0.002698659896850586,-0.003539862111210823
1772905681251377400,5.54637744140625,-0.012675285339355469,-0.0024318695068359375,-0.005935221910476685
1772905681261377500,5.55637744140625,-0.015065193176269531,-0.0048198699951171875,-0.008595369756221771
1772905681271377400,5.56637744140625,-0.0150604248046875,-0.004549920558929443,-0.00859002023935318
1772905681281377500,5.57637744140625,-0.012398719787597656,-0.0042847394943237305,-0.008326664566993713
1772905681291377400,5.58637744140625,-0.012400627136230469,-0.004023134708404541,-0.01046026311814785
1772905681301377500,5.59637744140625,-0.014521598815917969,-0.003764539957046509,-0.007795283570885658
1772905681311377400,5.60637744140625,-0.014262199401855469,-0.0035012662410736084,-0.0075399745255708694
1772905681321377500,5.61637744140625,-0.01399993896484375,-0.000847935676574707,-0.004887852817773819
1772905681331377400,5.62637744140625,-0.011078834533691406,-0.002138584852218628,-0.007201081141829491
1772905681341377500,5.63637744140625,-0.008549690246582031,-0.0020013153553009033,-0.004674151539802551
1772905681351377400,5.64637744140625,-0.0084228515625,0.0005283653736114502,-0.004544831812381744
1772905681361377500,5.65637744140625,-0.005900382995605469,0.0006541609764099121,-0.0020196884870529175
1772905681371377400,5.66637744140625,-0.005770683288574219,0.0005190372467041016,0.0005057305097579956
1772905681381377500,5.67637744140625,-0.008031845092773438,-0.0017393827438354492,0.0006375648081302643
1772905681391377400,5.68637744140625,-0.007895469665527344,-0.003997683525085449,0.0007748305797576904
1772905681401377500,5.69637744140625,-0.00775909423828125,-0.003871530294418335,-0.001484716311097145
1772905681411377400,5.70637744140625,-0.007622718811035156,-0.004006624221801758,-0.006146987900137901
1772905681421377500,5.71637744140625,-0.007748603820800781,-0.004133552312850952,-0.008667604997754097
1772905681431377400,5.72637744140625,-0.007876396179199219,-0.0016088783740997314,-0.00879846140742302
1772905681441377500,5.73637744140625,-0.007750511169433594,0.0009155571460723877,-0.00866798497736454
1772905681451377400,5.74637744140625,-0.010019302368164062,0.0007807016372680664,-0.008541587740182877
1772905681461377500,5.75637744140625,-0.009890556335449219,0.0009098947048187256,-0.006010752171278
1772905681471377400,5.76637744140625,-0.010026931762695312,-0.0013547539710998535,-0.00614144466817379
1772905681481377500,5.77637744140625,-0.010160446166992188,-0.003616124391555786,-0.006272418424487114
1772905681491377400,5.78637744140625,-0.007899284362792969,-0.0034818649291992188,-0.0037471912801265717
1772905681501377500,5.79637744140625,-0.008028984069824219,-0.003351062536239624,-0.0012243837118148804
1772905681511377400,5.80637744140625,-0.005763053894042969,-0.0008234679698944092,-0.001094592735171318
1772905681521377500,5.81637744140625,-0.00563812255859375,-0.0006942451000213623,0.0014296844601631165
1772905681531377400,5.82637744140625,-0.005511283874511719,-0.0005644857883453369,0.0015566479414701462
1772905681541377500,5.83637744140625,-0.005645751953125,-0.0028319358825683594,0.0016914401203393936
1772905681551377400,5.84637744140625,-0.005778312683105469,-0.0027002692222595215,-0.0005747396498918533
1772905681561377500,5.85637744140625,-0.005642890930175781,-0.002570629119873047,-0.0007111281156539917
1772905681571377400,5.86637744140625,-0.003116607666015625,-0.00004932284355163574,-0.0005764365196228027
1772905681581377500,5.87637744140625,-0.0032453536987304688,0.00007686018943786621,-0.0028442852199077606
1772905681591377400,5.88637744140625,-0.003376007080078125,0.00021135807037353516,-0.0027077123522758484
1772905681601377500,5.89637744140625,-0.005900382995605469,0.0027344226837158203,-0.002577977254986763
1772905681611377400,5.90637744140625,-0.006030082702636719,0.005002915859222412,-0.0024461429566144943
1772905681621377500,5.91637744140625,-0.006159782409667969,0.004869282245635986,-0.0025722328573465347
1772905681631377400,5.92637744140625,-0.008687019348144531,0.0026040971279144287,-0.002701740711927414
1772905681641377500,5.93637744140625,-0.008820533752441406,0.0003382563591003418,-0.002833891659975052
1772905681651377400,5.94637744140625,-0.008693695068359375,-0.004581034183502197,-0.0005651339888572693
1772905681661377500,5.95637744140625,-0.010957717895507812,-0.004715144634246826,-0.003096718341112137
1772905681671377400,5.96637744140625,-0.013485908508300781,-0.0021952688694000244,-0.003232436254620552
1772905681681377500,5.97637744140625,-0.013619422912597656,-0.0020639002323150635,-0.00549633614718914
1772905681691377400,5.98637744140625,-0.011096954345703125,0.0028502345085144043,-0.00536821223795414
1772905681701377500,5.99637744140625,-0.011231422424316406,0.0029878318309783936,-0.005233142524957657
1772905681711377400,6.00637744140625,-0.013756752014160156,0.003114640712738037,-0.002967698499560356
1772905681721377500,6.01637744140625,-0.013883590698242188,0.0032511651515960693,-0.0007083173841238022
1772905681731377400,6.02637744140625,-0.014010429382324219,0.00099259614944458,-0.003228498622775078
1772905681741377500,6.03637744140625,-0.014280319213867188,0.0009885430335998535,-0.005889976397156715
1772905681751377400,6.04637744140625,-0.014538764953613281,-0.0014072954654693604,-0.008545605465769768
1772905681761377500,6.05637744140625,-0.01718616485595703,-0.0014073848724365234,-0.00854635238647461
1772905681771377400,6.06637744140625,-0.01744842529296875,0.0036441385746002197,-0.0061502642929553986
1772905681781377500,6.07637744140625,-0.01770782470703125,0.0036459267139434814,-0.0064163729548454285
1772905681791377400,6.08637744140625,-0.015582084655761719,0.0036362111568450928,-0.006683651357889175
1772905681801377500,6.09637744140625,-0.013452529907226562,0.0036413967609405518,-0.004288952797651291
1772905681811377400,6.10637744140625,-0.011324882507324219,0.003646373748779297,-0.006810327991843224
1772905681821377500,6.11637744140625,-0.008931159973144531,0.0036446750164031982,-0.006821231916546822
1772905681831377400,6.12637744140625,-0.008938789367675781,0.006040453910827637,-0.009211879223585129
1772905681841377500,6.13637744140625,-0.011593818664550781,0.005781352519989014,-0.007079422473907471
1772905681851377400,6.14637744140625,-0.0118560791015625,0.008447468280792236,-0.007335018366575241
1772905681861377500,6.15637744140625,-0.011854171752929688,0.008443742990493774,-0.007345374673604965
1772905681871377400,6.16637744140625,-0.011582374572753906,0.0060461461544036865,-0.004692286252975464
1772905681881377500,6.17637744140625,-0.011322021484375,0.0036445260047912598,-0.004434192553162575
1772905681891377400,6.18637744140625,-0.0086669921875,0.0009864866733551025,0.0003538168966770172
1772905681901377500,6.19637744140625,-0.008402824401855469,-0.001411527395248413,0.000356847420334816
1772905681911377400,6.20637744140625,-0.010539054870605469,-0.0038090944290161133,0.00035422854125499725
1772905681921377500,6.21637744140625,-0.01053619384765625,-0.008600234985351562,-0.002034015953540802
1772905681931377400,6.22637744140625,-0.013188362121582031,-0.0062004029750823975,-0.0020318105816841125
1772905681941377500,6.23637744140625,-0.013178825378417969,-0.0038059651851654053,-0.002038992941379547
1772905681951377400,6.24637744140625,-0.012911796569824219,0.0009780824184417725,0.00035491958260536194
1772905681961377500,6.25637744140625,-0.012922286987304688,0.0009804368019104004,0.0006187967956066132
1772905681971377400,6.26637744140625,-0.0155792236328125,0.000984102487564087,-0.0017728041857481003
1772905681981377500,6.27637744140625,-0.015582084655761719,0.000990837812423706,-0.0041657183319330215
1772905681991377400,6.28637744140625,-0.015322685241699219,-0.0038031041622161865,-0.004164723679423332
1772905682001377500,6.29637744140625,-0.012925148010253906,-0.0037969350814819336,-0.004158187657594681
1772905682011377400,6.30637744140625,-0.010531425476074219,-0.0038024187088012695,-0.0044189635664224625
1772905682021377500,6.31637744140625,-0.010526657104492188,-0.0037993192672729492,-0.004428630694746971
1772905682031377400,6.32637744140625,-0.008133888244628906,0.0009951293468475342,-0.006823265925049782
1772905682041377500,6.33637744140625,-0.008128166198730469,0.0009939968585968018,-0.006827184930443764
1772905682051377400,6.34637744140625,-0.00838470458984375,0.0012604594230651855,-0.006831256672739983
1772905682061377500,6.35637744140625,-0.01103973388671875,0.0015228688716888428,-0.0044327303767204285
1772905682071377400,6.36637744140625,-0.010949134826660156,-0.001123875379562378,-0.004432691261172295
1772905682081377500,6.37637744140625,-0.010687828063964844,0.0010104775428771973,-0.0046919770538806915
1772905682091377400,6.38637744140625,-0.0085601806640625,0.0010190904140472412,-0.004953254014253616
1772905682101377500,6.39637744140625,-0.006163597106933594,0.0010184943675994873,-0.0049535129219293594
1772905682111377400,6.40637744140625,-0.005906105041503906,0.0007659196853637695,-0.004693280905485153
1772905682121377500,6.41637744140625,-0.0059051513671875,-0.0018967688083648682,-0.0044269319623708725
1772905682131377400,6.42637744140625,-0.010693550109863281,-0.004563093185424805,-0.004427941516041756
1772905682141377500,6.43637744140625,-0.010433197021484375,-0.004833221435546875,-0.0044206492602825165
1772905682151377400,6.44637744140625,-0.010438919067382812,-0.004838794469833374,-0.0020271241664886475
1772905682161377500,6.45637744140625,-0.012834548950195312,-0.0024333596229553223,-0.002127731218934059
1772905682171377400,6.46637744140625,-0.012574195861816406,-0.002687394618988037,-0.0000013504177331924438
1772905682181377500,6.47637744140625,-0.012574195861816406,-0.0005567073822021484,0.000007243826985359192
1772905682191377400,6.48637744140625,-0.010171890258789062,-0.0008132755756378174,-0.002129577100276947
1772905682201377500,6.49637744140625,-0.010171890258789062,0.0013169944286346436,-0.004528805613517761
1772905682211377400,6.50637744140625,-0.0077762603759765625,0.0037145614624023438,-0.009179336950182915
1772905682221377500,6.51637744140625,-0.007779121398925781,0.0015756189823150635,-0.009171994403004646
1772905682231377400,6.52637744140625,-0.005382537841796875,-0.0008184313774108887,-0.006776159629225731
1772905682241377500,6.53637744140625,-0.0053806304931640625,-0.002955615520477295,-0.0043826624751091
1772905682251377400,6.54637744140625,-0.0029840469360351562,-0.005359679460525513,-0.004382461309432983
1772905682261377500,6.55637744140625,-0.0032434463500976562,-0.005350291728973389,-0.004643505439162254
1772905682271377400,6.56637744140625,-0.0035076141357421875,-0.0029512345790863037,-0.007292941212654114
1772905682281377500,6.57637744140625,-0.006163597106933594,-0.0005473494529724121,-0.007285945117473602
1772905682291377400,6.58637744140625,-0.008810043334960938,-0.0002910792827606201,-0.007282434031367302
1772905682301377500,6.59637744140625,-0.011464118957519531,-0.0002849400043487549,-0.0075446851551532745
1772905682311377400,6.60637744140625,-0.011720657348632812,-0.0026732683181762695,-0.005409296602010727
1772905682321377500,6.61637744140625,-0.011984825134277344,-0.0029330551624298096,-0.005680928006768227
1772905682331377400,6.62637744140625,-0.008684158325195312,-0.006926983594894409,-0.000018481165170669556
1772905682341377500,6.63637744140625,-0.006161689758300781,-0.00679740309715271,-0.00014471635222434998
1772905682351377400,6.64637744140625,-0.0060291290283203125,-0.004276633262634277,-0.00001576729118824005
1772905682361377500,6.65637744140625,-0.00589752197265625,-0.0020173192024230957,-0.0022756624966859818
1772905682371377400,6.66637744140625,-0.008161544799804688,-0.0021496713161468506,-0.006931183859705925
1772905682381377500,6.67637744140625,-0.008024215698242188,-0.002283841371536255,-0.0091991126537323
1772905682391377400,6.68637744140625,-0.007889747619628906,-0.0021581649780273438,-0.009062277153134346
1772905682401377500,6.69637744140625,-0.005360603332519531,-0.0020276904106140137,-0.0065426304936409
1772905682411377400,6.70637744140625,-0.0052318572998046875,-0.0018932521343231201,-0.004019357264041901
1772905682421377500,6.71637744140625,-0.005096435546875,-0.004413634538650513,-0.00388999842107296
1772905682431377400,6.72637744140625,-0.0049591064453125,-0.004548996686935425,-0.0037573445588350296
1772905682441377500,6.73637744140625,-0.004826545715332031,-0.007068455219268799,-0.0036201030015945435
1772905682451377400,6.74637744140625,-0.0023021697998046875,-0.009598225355148315,-0.0010904613882303238
1772905682461377500,6.75637744140625,-0.0021753311157226562,-0.011857599020004272,-0.0009565558284521103
1772905682471377400,6.76637744140625,-0.004439353942871094,-0.011992841958999634,-0.0008307229727506638
1772905682481377500,6.77637744140625,-0.004313468933105469,-0.007332116365432739,-0.0030930042266845703
1772905682491377400,6.78637744140625,-0.0041866302490234375,-0.002675771713256836,-0.00774991512298584
1772905682501377500,6.79637744140625,-0.0016574859619140625,-0.00015565752983093262,-0.007613044232130051
1772905682511377400,6.80637744140625,-0.0017862319946289062,-0.00001862645149230957,-0.0052851904183626175
1772905682521377500,6.81637744140625,-0.001911163330078125,-0.0022767484188079834,-0.0051585957407951355
1772905682531377400,6.82637744140625,-0.0017843246459960938,-0.004798322916030884,-0.005286330357193947
1772905682541377500,6.83637744140625,-0.0019207000732421875,-0.004930317401885986,-0.005417978391051292
1772905682551377400,6.84637744140625,-0.002048492431640625,-0.005057871341705322,-0.005553966388106346
1772905682561377500,6.85637744140625,-0.0021791458129882812,-0.004927277565002441,-0.003026781603693962
1772905682571377400,6.86637744140625,-0.004706382751464844,-0.005059242248535156,-0.0028893593698740005
1772905682581377500,6.87637744140625,-0.0072269439697265625,-0.007589578628540039,-0.0030191820114851
1772905682591377400,6.88637744140625,-0.007357597351074219,-0.007458001375198364,-0.003147158771753311
1772905682601377500,6.89637744140625,-0.00508880615234375,-0.007590949535369873,-0.003281291574239731
1772905682611377400,6.90637744140625,-0.005225181579589844,-0.007717609405517578,-0.0010223835706710815
1772905682621377500,6.91637744140625,-0.00748443603515625,-0.0075859129428863525,-0.0011491868644952774
1772905682631377400,6.92637744140625,-0.009751319885253906,-0.005066573619842529,-0.001284835860133171
1772905682641377500,6.93637744140625,-0.009623527526855469,-0.005198150873184204,-0.0011547468602657318
1772905682651377400,6.94637744140625,-0.011880874633789062,-0.00532415509223938,-0.0010245423763990402
1772905682661377500,6.95637744140625,-0.009350776672363281,-0.005196273326873779,-0.0032857023179531097
1772905682671377400,6.96637744140625,-0.009221076965332031,-0.005064278841018677,-0.0031509045511484146
1772905682681377500,6.97637744140625,-0.00909423828125,-0.00732421875,-0.005417609587311745
1772905682691377400,6.98637744140625,-0.006569862365722656,-0.007450312376022339,-0.0076748039573431015
1772905682701377500,6.99637744140625,-0.0016489028930664062,-0.002527892589569092,-0.007811384275555611
1772905682711377400,7.00637744140625,-0.0017757415771484375,0.0023949146270751953,-0.005544047802686691
1772905682721377500,7.01637744140625,-0.001903533935546875,0.002529710531234741,-0.005420815199613571
1772905682731377400,7.02637744140625,-0.004431724548339844,0.000262528657913208,-0.005291556939482689
1772905682741377500,7.03637744140625,-0.007083892822265625,-0.004530102014541626,-0.005291372537612915
1772905682751377400,7.04637744140625,-0.007349967956542969,-0.00692373514175415,-0.003159463405609131
1772905682761377500,7.05637744140625,-0.005225181579589844,-0.006661593914031982,-0.0010263621807098389
1772905682771377400,7.06637744140625,-0.005490303039550781,-0.006395876407623291,0.001103326678276062
1772905682781377500,7.07637744140625,-0.005755424499511719,-0.003735482692718506,0.0008452460169792175
1772905682791377400,7.08637744140625,-0.008417129516601562,-0.0013322532176971436,0.0005774963647127151
1772905682801377500,7.09637744140625,-0.008687019348144531,-0.0013280510902404785,-0.002077123150229454
1772905682811377400,7.10637744140625,-0.008943557739257812,0.0010666847229003906,-0.004731521010398865
1772905682821377500,7.11637744140625,-0.009214401245117188,0.0034531056880950928,-0.0073806121945381165
1772905682831377400,7.12637744140625,-0.009476661682128906,0.0013315975666046143,-0.0076421089470386505
1772905682841377500,7.13637744140625,-0.009738922119140625,-0.0034635066986083984,-0.005514245480298996
1772905682851377400,7.14637744140625,-0.012395858764648438,-0.005854368209838867,-0.0057828351855278015
1772905682861377500,7.15637744140625,-0.012652397155761719,-0.00851672887802124,-0.008445028215646744
1772905682871377400,7.16637744140625,-0.012915611267089844,-0.008245527744293213,-0.008696703240275383
1772905682881377500,7.17637744140625,-0.013178825378417969,-0.0055900514125823975,-0.008697891607880592
1772905682891377400,7.18637744140625,-0.013431549072265625,-0.0031928420066833496,-0.01135384850203991
1772905682901377500,7.19637744140625,-0.008902549743652344,-0.00344771146774292,-0.011616086587309837
1772905682911377400,7.20637744140625,-0.006516456604003906,-0.0034489333629608154,-0.011683488264679909
1772905682921377500,7.21637744140625,-0.006524085998535156,-0.0037120580673217773,-0.011942468583583832
1772905682931377400,7.22637744140625,-0.006779670715332031,-0.0013259053230285645,-0.009551700204610825
1772905682941377500,7.23637744140625,-0.009172439575195312,0.001065671443939209,-0.006897617131471634
1772905682951377400,7.24637744140625,-0.011565208435058594,0.001063317060470581,-0.004237208515405655
1772905682961377500,7.25637744140625,-0.01129913330078125,-0.0013312101364135742,-0.00211196206510067
1772905682971377400,7.26637744140625,-0.013686180114746094,-0.0010724365711212158,-0.0047768764197826385
1772905682981377500,7.27637744140625,-0.01607990264892578,-0.0007996857166290283,-0.009564461186528206
1772905682991377400,7.28637744140625,-0.01582050323486328,-0.0008047819137573242,-0.011696305125951767
1772905683001377500,7.29637744140625,-0.01582813262939453,0.0015926957130432129,-0.011429227888584137
1772905683011377400,7.30637744140625,-0.013165473937988281,0.0015912353992462158,-0.009034698829054832
1772905683021377500,7.31637744140625,-0.010769844055175781,-0.0010699927806854248,-0.006642861291766167
1772905683031377400,7.32637744140625,-0.011030197143554688,-0.0013216733932495117,-0.006637725979089737
1772905683041377500,7.33637744140625,-0.011285781860351562,-0.001317054033279419,-0.00449913926422596
1772905683051377400,7.34637744140625,-0.013944625854492188,-0.0037176311016082764,-0.007149575278162956
1772905683061377500,7.35637744140625,-0.013946533203125,-0.001317143440246582,-0.0071541909128427505
1772905683071377400,7.36637744140625,-0.011809349060058594,-0.001576542854309082,-0.007159087806940079
1772905683081377500,7.37637744140625,-0.012063980102539062,-0.003970086574554443,-0.00719706155359745
1772905683091377400,7.38637744140625,-0.0123291015625,-0.0037166476249694824,-0.009863102808594704
1772905683101377500,7.39637744140625,-0.012333869934082031,-0.006109178066253662,-0.014652240090072155
1772905683111377400,7.40637744140625,-0.012072563171386719,-0.008509457111358643,-0.01704905368387699
1772905683121377500,7.41637744140625,-0.009684562683105469,-0.00877043604850769,-0.012252619490027428
1772905683131377400,7.42637744140625,-0.009680747985839844,-0.006638556718826294,-0.007467441260814667
1772905683151377400,7.44637744140625,-0.009161949157714844,-0.004233986139297485,-0.0069374386221170425
1772905683161377500,7.45637744140625,-0.008892059326171875,-0.00422435998916626,-0.006674008443951607
1772905683181377500,7.47637744140625,-0.010754585266113281,-0.0018371045589447021,-0.008542206138372421
1772905683191377400,7.48637744140625,-0.01049041748046875,0.00028648972511291504,-0.008278228342533112
1772905683201377500,7.49637744140625,-0.010226249694824219,0.00002110004425048828,-0.008008243516087532
1772905683211377400,7.50637744140625,-0.009968757629394531,0.002152055501937866,-0.005619674921035767
1772905683221377500,7.51637744140625,-0.009700775146484375,-0.00024297833442687988,-0.003230579197406769
1772905683231377400,7.52637744140625,-0.011842727661132812,-0.00264817476272583,-0.0029686633497476578
1772905683241377500,7.53637744140625,-0.011585235595703125,-0.0026443302631378174,-0.0003106221556663513
1772905683251377400,7.54637744140625,-0.011325836181640625,-0.0026449263095855713,-0.000044927000999450684
1772905683261377500,7.55637744140625,-0.011061668395996094,-0.0023851394653320312,-0.002177879214286804
1772905683271377400,7.56637744140625,-0.010793685913085938,-0.002656906843185425,-0.006705384701490402
1772905683281377500,7.57637744140625,-0.010522842407226562,-0.0005338191986083984,-0.009359050542116165
1772905683291377400,7.58637744140625,-0.007868766784667969,-0.002927541732788086,-0.009359199553728104
1772905683301377500,7.59637744140625,-0.0052242279052734375,-0.0053285956382751465,-0.00936046987771988
1772905683311377400,7.60637744140625,-0.004961967468261719,-0.007993698120117188,-0.011746569536626339
1772905683321377500,7.61637744140625,-0.00469207763671875,-0.00799340009689331,-0.011745412833988667
1772905683331377400,7.62637744140625,-0.006290435791015625,-0.0045327842235565186,-0.011989480815827847
1772905683341377500,7.63637744140625,-0.006163597106933594,-0.002012312412261963,-0.009459199383854866
1772905683351377400,7.64637744140625,-0.006035804748535156,-0.0021427273750305176,-0.004538228735327721
1772905683361377500,7.65637744140625,-0.005900382995605469,0.00012224912643432617,-0.004412129521369934
1772905683371377400,7.66637744140625,-0.0033779144287109375,-0.002400219440460205,-0.004275931045413017
1772905683381377500,7.67637744140625,-0.0032491683959960938,-0.0025326907634735107,-0.006537772715091705
1772905683391377400,7.68637744140625,-0.0007257461547851562,-0.005060970783233643,-0.006409879773855209
1772905683401377500,7.69637744140625,-0.0005960464477539062,-0.005192786455154419,-0.006538622081279755
1772905683411377400,7.70637744140625,-0.0007257461547851562,-0.007719874382019043,-0.009068597108125687
1772905683421377500,7.71637744140625,-0.0029897689819335938,-0.007854312658309937,-0.009201174601912498
1772905683431377400,7.72637744140625,-0.005257606506347656,-0.005331933498382568,-0.009067503735423088
1772905683441377500,7.73637744140625,-0.005123138427734375,-0.00306779146194458,-0.00893467478454113
1772905683451377400,7.74637744140625,-0.007389068603515625,-0.0007988214492797852,-0.008798440918326378
1772905683461377500,7.75637744140625,-0.007254600524902344,-0.0006647408008575439,-0.0038778595626354218
1772905683471377400,7.76637744140625,-0.004730224609375,-0.0007926821708679199,0.0010411739349365234
1772905683481377500,7.77637744140625,-0.0045986175537109375,-0.0033176541328430176,0.0009379591792821884
1772905683491377400,7.78637744140625,-0.0020761489868164062,-0.0034469664096832275,-0.0013309027999639511
1772905683501377500,7.79637744140625,-0.004334449768066406,-0.0033122599124908447,-0.003598460927605629
1772905683511377400,7.80637744140625,-0.0044612884521484375,-0.003176093101501465,-0.008249351754784584
1772905683521377500,7.81637744140625,-0.004588127136230469,-0.005701988935470581,-0.0105148209258914
1772905683531377400,7.82637744140625,-0.004725456237792969,-0.005575090646743774,-0.010640579275786877
1772905683541377500,7.83637744140625,-0.004597663879394531,-0.005438446998596191,-0.008380692452192307
1772905683551377400,7.84637744140625,-0.006857872009277344,-0.0029177069664001465,-0.005859678611159325
1772905683561377500,7.85637744140625,-0.006732940673828125,-0.0027909278869628906,-0.003331940621137619
1772905683571377400,7.86637744140625,-0.006598472595214844,-0.002926945686340332,-0.0008015651255846024
1772905683581377500,7.87637744140625,-0.00433349609375,-0.005448639392852783,-0.0009311344474554062
1772905683591377400,7.88637744140625,-0.0020656585693359375,-0.005323231220245361,-0.001056671142578125
1772905683601377500,7.89637744140625,0.00020122528076171875,-0.00518682599067688,-0.0035807210952043533
1772905683611377400,7.90637744140625,-0.002063751220703125,-0.002660304307937622,-0.0061050839722156525
1772905683621377500,7.91637744140625,-0.0045948028564453125,-0.0027873218059539795,-0.005971234291791916
1772905683631377400,7.92637744140625,-0.007115364074707031,-0.0029226839542388916,-0.005835525691509247
1772905683641377500,7.93637744140625,-0.007153511047363281,-0.005446672439575195,-0.0035674460232257843
1772905683651377400,7.94637744140625,-0.007283210754394531,-0.00796973705291748,-0.0060985032469034195
1772905683661377500,7.95637744140625,-0.007151603698730469,-0.008104532957077026,-0.008618826046586037
1772905683671377400,7.96637744140625,-0.007021903991699219,-0.005845576524734497,-0.00848342478275299
1772905683681377500,7.97637744140625,-0.0047550201416015625,-0.0035859644412994385,-0.008608663454651833
1772905683691377400,7.98637744140625,-0.004881858825683594,-0.0037148892879486084,-0.00634288415312767
1772905683701377500,7.99637744140625,-0.00475311279296875,-0.0014512836933135986,-0.006474774330854416
1772905683711377400,8.00637744140625,-0.004883766174316406,-0.001318812370300293,-0.0015609245747327805
1772905683721377500,8.01637744140625,-0.0074062347412109375,-0.001416325569152832,-0.0014303699135780334
1772905683731377400,8.02637744140625,-0.009671211242675781,-0.001547694206237793,0.0008288547396659851
1772905683741377500,8.03637744140625,-0.009927749633789062,-0.004193931818008423,0.00055694580078125
1772905683751377400,8.04637744140625,-0.010186195373535156,-0.004197031259536743,-0.0021006278693675995
1772905683761377500,8.05637744140625,-0.0077953338623046875,-0.006593823432922363,-0.0023528821766376495
1772905683771377400,8.06637744140625,-0.008052825927734375,-0.006337255239486694,-0.007408143952488899
1772905683781377500,8.07637744140625,-0.0056591033935546875,-0.006072908639907837,-0.009798496961593628
1772905683791377400,8.08637744140625,-0.0032672882080078125,-0.003673642873764038,-0.009799471125006676
1772905683801377500,8.09637744140625,-0.003261566162109375,-0.0036711394786834717,-0.009534481912851334
1772905683811377400,8.10637744140625,-0.003002166748046875,-0.003410905599594116,-0.009271290153265
1772905683821377500,8.11637744140625,-0.005393028259277344,-0.0055419206619262695,-0.006615040823817253
1772905683831377400,8.12637744140625,-0.005387306213378906,-0.005795538425445557,-0.004219973459839821
1772905683841377500,8.13637744140625,-0.003002166748046875,-0.0057942867279052734,-0.00421849824488163
1772905683851377400,8.14637744140625,-0.0032567977905273438,-0.005799442529678345,-0.004489343613386154
1772905683861377500,8.15637744140625,-0.005646705627441406,-0.005801111459732056,-0.004486348479986191
1772905683871377400,8.16637744140625,-0.008047103881835938,-0.005803227424621582,-0.004488624632358551
1772905683881377500,8.17637744140625,-0.01043701171875,-0.003408879041671753,-0.004258753731846809
1772905683891377400,8.18637744140625,-0.012828826904296875,-0.0007580816745758057,-0.004247255623340607
1772905683911377400,8.20637744140625,-0.010180473327636719,-0.0034307241439819336,-0.004504689946770668
1772905683931377400,8.22637744140625,-0.009916305541992188,-0.005821019411087036,-0.004573492333292961
1772905683941377500,8.23637744140625,-0.010180473327636719,-0.005825161933898926,-0.002173490822315216
1772905683951377400,8.24637744140625,-0.0056610107421875,-0.003427565097808838,-0.0024284496903419495
1772905683961377500,8.25637744140625,-0.0035238265991210938,-0.005813091993331909,-0.002689940854907036
1772905683971377400,8.26637744140625,-0.0013933181762695312,-0.005545943975448608,-0.0026988722383975983
1772905683981377500,8.27637744140625,-0.0037908554077148438,-0.005285710096359253,-0.00509299524128437
1772905683991377400,8.28637744140625,-0.00592803955078125,-0.007670313119888306,-0.005094138905405998
1772905684001377500,8.29637744140625,-0.00592803955078125,-0.007941186428070068,-0.0074856821447610855
1772905684011377400,8.30637744140625,-0.006184577941894531,-0.007944762706756592,-0.009879076853394508
1772905684021377500,8.31637744140625,-0.008577346801757812,-0.005297482013702393,-0.010141052305698395
1772905684031377400,8.32637744140625,-0.005924224853515625,-0.005027949810028076,-0.010403726249933243
1772905684041377500,8.33637744140625,-0.005749702453613281,-0.0023671090602874756,-0.007746540009975433
1772905684051377400,8.34637744140625,-0.005490303039550781,-0.004706084728240967,-0.007481228560209274
1772905684061377500,8.35637744140625,-0.007877349853515625,-0.004440903663635254,-0.009613648056983948
1772905684071377400,8.36637744140625,-0.007870674133300781,-0.004443079233169556,-0.0072287097573280334
1772905684081377500,8.37637744140625,-0.010006904602050781,-0.004443228244781494,-0.004579328000545502
1772905684091377400,8.38637744140625,-0.010006904602050781,-0.004182606935501099,-0.0019278042018413544
1772905684101377500,8.39637744140625,-0.007603645324707031,-0.003918588161468506,-0.00166289322078228
1772905684111377400,8.40637744140625,-0.004946708679199219,-0.003923147916793823,-0.0016526244580745697
1772905684121377500,8.41637744140625,-0.0049495697021484375,-0.0036992132663726807,-0.0016460679471492767
1772905684131377400,8.42637744140625,-0.005208015441894531,-0.0034359097480773926,-0.0037734415382146835
1772905684141377500,8.43637744140625,-0.007342338562011719,-0.0031819045543670654,-0.003506682813167572
1772905684151377400,8.44637744140625,-0.009474754333496094,-0.0029204189777374268,-0.005634225904941559
1772905684161377500,8.45637744140625,-0.009737968444824219,-0.005045473575592041,-0.005377620458602905
1772905684171377400,8.46637744140625,-0.007342338562011719,-0.007435828447341919,-0.005112934857606888
1772905684181377500,8.47637744140625,-0.0076007843017578125,-0.007434487342834473,-0.007774807512760162
1772905684191377400,8.48637744140625,-0.007852554321289062,-0.007169634103775024,-0.008035322651267052
1772905684201377500,8.49637744140625,-0.005728721618652344,-0.004519134759902954,-0.005902986973524094
1772905684211377400,8.50637744140625,-0.005992889404296875,-0.004518479108810425,-0.0037725139409303665
1772905684221377500,8.51637744140625,-0.0038557052612304688,-0.004517495632171631,-0.004034237936139107
1772905684231377400,8.52637744140625,-0.004117012023925781,-0.004258006811141968,-0.004302114248275757
1772905684241377500,8.53637744140625,-0.004374504089355469,-0.004258990287780762,-0.004567345604300499
1772905684251377400,8.54637744140625,-0.006778717041015625,-0.003997504711151123,-0.004569957032799721
1772905684261377500,8.55637744140625,-0.0067844390869140625,-0.0042566657066345215,-0.004836905747652054
1772905684271377400,8.56637744140625,-0.0091705322265625,-0.0016042888164520264,-0.005096796900033951
1772905684281377500,8.57637744140625,-0.011827468872070312,-0.001601874828338623,-0.007745390757918358
1772905684291377400,8.58637744140625,-0.014482498168945312,-0.0018588006496429443,-0.010412218049168587
1772905684301377500,8.59637744140625,-0.014485359191894531,-0.0018573403358459473,-0.012550978921353817
1772905684311377400,8.60637744140625,-0.009702682495117188,-0.004242241382598877,-0.010418439283967018
1772905684321377500,8.61637744140625,-0.0073032379150390625,-0.004246532917022705,-0.010626936331391335
1772905684331377400,8.62637744140625,-0.0038957595825195312,-0.0045327842235565186,-0.007201081141829491
1772905684341377500,8.63637744140625,-0.0064239501953125,-0.002264171838760376,-0.0073316097259521484
1772905684351377400,8.64637744140625,-0.006550788879394531,0.0002650618553161621,-0.007467502728104591
1772905684361377500,8.65637744140625,-0.0066852569580078125,0.00013688206672668457,-0.007602296769618988
1772905684371377400,8.66637744140625,-0.0065593719482421875,0.000004231929779052734,-0.007736977189779282
1772905684381377500,8.67637744140625,-0.006427764892578125,-0.002264261245727539,-0.007865142077207565
1772905684391377400,8.68637744140625,-0.006290435791015625,-0.004524439573287964,-0.005333889275789261
1772905684401377500,8.69637744140625,-0.006417274475097656,-0.004652202129364014,-0.0028105545789003372
1772905684411377400,8.70637744140625,-0.0062885284423828125,-0.0071777403354644775,-0.002939799800515175
1772905684421377500,8.71637744140625,-0.008554458618164062,-0.007306814193725586,-0.0052007511258125305
1772905684431377400,8.72637744140625,-0.008419036865234375,-0.007437527179718018,-0.007462039589881897
1772905684441377500,8.73637744140625,-0.005892753601074219,-0.007569432258605957,-0.005200939252972603
1772905684451377400,8.74637744140625,-0.006022453308105469,-0.007434964179992676,-0.005336573347449303
1772905684461377500,8.75637744140625,-0.006153106689453125,-0.0073070228099823,-0.007600435987114906
1772905684471377400,8.76637744140625,-0.006282806396484375,-0.007433801889419556,-0.00747334398329258
1772905684481377500,8.77637744140625,-0.0064105987548828125,-0.007307827472686768,-0.007346900179982185
1772905684491377400,8.78637744140625,-0.011326789855957031,-0.0023828744888305664,-0.009612340480089188
1772905684501377500,8.79637744140625,-0.011455535888671875,-0.002248793840408325,-0.009483275935053825
1772905684511377400,8.80637744140625,-0.016379356384277344,-0.002379804849624634,-0.012006056495010853
1772905684521377500,8.81637744140625,-0.014119148254394531,-0.004909425973892212,-0.009746840223670006
1772905684531377400,8.82637744140625,-0.011855125427246094,-0.007170826196670532,-0.007477926090359688
1772905684541377500,8.83637744140625,-0.009592056274414062,-0.004647642374038696,-0.005215350538492203
1772905684551377400,8.84637744140625,-0.007323265075683594,-0.00451582670211792,-0.0005546733736991882
1772905684561377500,8.85637744140625,-0.007450103759765625,-0.001986086368560791,0.0017130952328443527
1772905684571377400,8.86637744140625,-0.0075836181640625,-0.0018540620803833008,0.0015790089964866638
1772905684581377500,8.87637744140625,-0.007712364196777344,-0.0017273128032684326,-0.0009444151073694229
1772905684591377400,8.88637744140625,-0.007847785949707031,0.0007968246936798096,-0.003468140959739685
1772905684601377500,8.89637744140625,-0.007973670959472656,-0.0017247796058654785,-0.0035971179604530334
1772905684611377400,8.90637744140625,-0.007840156555175781,-0.003992944955825806,-0.006128443405032158
1772905684631377400,8.92637744140625,-0.009972572326660156,-0.004257023334503174,-0.010653289034962654
1772905684641377500,8.93637744140625,-0.012232780456542969,-0.002000361680984497,-0.012920309789478779
1772905684651377400,8.94637744140625,-0.012099266052246094,-0.001871258020401001,-0.010399332270026207
1772905684661377500,8.95637744140625,-0.011964797973632812,-0.0020012855529785156,-0.005481069907546043
1772905684671377400,8.96637744140625,-0.014227867126464844,-0.0045299530029296875,-0.000560687854886055
1772905684681377500,8.97637744140625,-0.01649188995361328,-0.007049471139907837,-0.00042351894080638885
1772905684691377400,8.98637744140625,-0.013970375061035156,-0.007169902324676514,-0.0026904288679361343
1772905684701377500,8.99637744140625,-0.011444091796875,-0.004908442497253418,-0.004955817013978958
1772905684711377400,9.00637744140625,-0.011309623718261719,-0.0050355494022369385,-0.007222238928079605
1772905684731377400,9.02637744140625,-0.008646011352539062,-0.0005023777484893799,-0.004558775573968887
1772905684741377500,9.03637744140625,-0.008378028869628906,-0.0005099475383758545,-0.0066918618977069855
1772905684751377400,9.04637744140625,-0.010517120361328125,-0.0007717907428741455,-0.004028366878628731
1772905684761377500,9.05637744140625,-0.007852554321289062,-0.003175199031829834,-0.0040200501680374146
1772905684771377400,9.06637744140625,-0.008104324340820312,-0.005564063787460327,-0.0016229022294282913
1772905684781377500,9.07637744140625,-0.008362770080566406,-0.007955580949783325,-0.0013660043478012085
1772905684791377400,9.08637744140625,-0.006232261657714844,-0.005822509527206421,-0.0037644393742084503
1772905684801377500,9.09637744140625,-0.005974769592285156,-0.005819916725158691,-0.006153417751193047
1772905684811377400,9.10637744140625,-0.00836944580078125,-0.005816012620925903,-0.010678517632186413
1772905684821377500,9.11637744140625,-0.008631706237792969,-0.005552560091018677,-0.010681151412427425
1772905684831377400,9.12637744140625,-0.011295318603515625,-0.003163248300552368,-0.010685891844332218
1772905684841377500,9.13637744140625,-0.011301040649414062,-0.0007731318473815918,-0.008294085040688515
1772905684851377400,9.14637744140625,-0.01103973388671875,-0.0008040666580200195,-0.0035056080669164658
1772905684861377500,9.15637744140625,-0.011038780212402344,-0.0007967054843902588,-0.0037687383592128754
1772905684871377400,9.16637744140625,-0.011044502258300781,-0.0029269754886627197,-0.004027457907795906
1772905684881377500,9.17637744140625,-0.011052131652832031,-0.00531962513923645,-0.004280544817447662
1772905684891377400,9.18637744140625,-0.008662223815917969,-0.0029290616512298584,-0.00693821907043457
1772905684901377500,9.19637744140625,-0.008402824401855469,-0.0029318928718566895,-0.00719633512198925
1772905684911377400,9.20637744140625,-0.008138656616210938,-0.002927035093307495,-0.0045402999967336655
1772905684921377500,9.21637744140625,-0.010273933410644531,-0.0029234886169433594,-0.004274342209100723
1772905684931377400,9.22637744140625,-0.012409210205078125,-0.003190338611602783,-0.0042822472751140594
1772905684941377500,9.23637744140625,-0.012143135070800781,-0.0034457743167877197,-0.0066816192120313644
1772905684951377400,9.24637744140625,-0.011881828308105469,-0.0037040114402770996,-0.006690800189971924
1772905684961377500,9.25637744140625,-0.011625289916992188,-0.00635942816734314,-0.009093042463064194
1772905684971377400,9.26637744140625,-0.011365890502929688,-0.006627857685089111,-0.009084902703762054
1772905684981377500,9.27637744140625,-0.011104583740234375,-0.0068853795528411865,-0.006692085415124893
1772905684991377400,9.28637744140625,-0.008441925048828125,-0.00714227557182312,-0.0016436390578746796
1772905685001377500,9.29637744140625,-0.008189201354980469,-0.0047464072704315186,0.0007477328181266785
1772905685011377400,9.30637744140625,-0.008197784423828125,-0.005002468824386597,0.0007583517581224442
1772905685021377500,9.31637744140625,-0.008199691772460938,-0.00500565767288208,-0.0016323179006576538
1772905685031377400,9.32637744140625,-0.0036802291870117188,-0.005004405975341797,-0.004026720300316811
1772905685041377500,9.33637744140625,-0.0015554428100585938,-0.007394582033157349,-0.004287242889404297
1772905685051377400,9.34637744140625,0.0005712509155273438,-0.007653266191482544,-0.004541678354144096
1772905685061377500,9.35637744140625,0.0005712509155273438,-0.00526583194732666,-0.004802389070391655
1772905685071377400,9.36637744140625,-0.0020818710327148438,-0.0026057064533233643,-0.004806956276297569
1772905685081377500,9.37637744140625,-0.004736900329589844,0.00004863739013671875,-0.007213026285171509
1772905685091377400,9.38637744140625,-0.007386207580566406,-0.002089560031890869,-0.0072060879319906235
1772905685101377500,9.39637744140625,-0.009785652160644531,-0.0018206238746643066,-0.009593931958079338
1772905685111377400,9.40637744140625,-0.009786605834960938,-0.003956735134124756,-0.009589755907654762
1772905685121377500,9.41637744140625,-0.0076503753662109375,-0.0037041008472442627,-0.007196081802248955
1772905685131377400,9.42637744140625,-0.00525665283203125,-0.0010499060153961182,-0.004809362813830376
1772905685141377500,9.43637744140625,-0.007649421691894531,-0.0010515153408050537,-0.0024105627089738846
1772905685151377400,9.44637744140625,-0.007645606994628906,-0.003452867269515991,-0.00001892074942588806
1772905685161377500,9.45637744140625,-0.00765228271484375,-0.005845904350280762,0.00022559799253940582
1772905685171377400,9.46637744140625,-0.007656097412109375,-0.005845934152603149,-0.0019101575016975403
1772905685181377500,9.47637744140625,-0.0074024200439453125,-0.003452897071838379,-0.006695261225104332
1772905685191377400,9.48637744140625,-0.007145881652832031,-0.0009349286556243896,-0.00909273698925972
1772905685201377500,9.49637744140625,-0.009534835815429688,-0.0006824135780334473,-0.011490796692669392
1772905685211377400,9.50637744140625,-0.009799957275390625,-0.002816706895828247,-0.011754748411476612
1772905685221377500,9.51637744140625,-0.009790420532226562,-0.0028195083141326904,-0.009359840303659439
1772905685231377400,9.52637744140625,-0.009782791137695312,-0.0028212666511535645,-0.006968559697270393
1772905685241377500,9.53637744140625,-0.010037422180175781,-0.002558112144470215,-0.006962144747376442
1772905685251377400,9.54637744140625,-0.010296821594238281,-0.0027924776077270508,-0.006963798776268959
1772905685261377500,9.55637744140625,-0.007902145385742188,-0.0027968883514404297,-0.00935300812125206
1772905685271377400,9.56637744140625,-0.0055084228515625,-0.005193531513214111,-0.006953353062272072
1772905685281377500,9.57637744140625,-0.003108978271484375,-0.005186885595321655,-0.00695737823843956
1772905685291377400,9.58637744140625,-0.003108978271484375,-0.005185425281524658,-0.0069563500583171844
1772905685301377500,9.59637744140625,-0.0033655166625976562,-0.007580578327178955,-0.006959864869713783
1772905685311377400,9.60637744140625,-0.006022453308105469,-0.004926741123199463,-0.007229261100292206
1772905685321377500,9.61637744140625,-0.008671760559082031,-0.002266228199005127,-0.007486123591661453
1772905685331377400,9.62637744140625,-0.011078834533691406,-0.002138584852218628,-0.007201081141829491
1772905685341377500,9.63637744140625,-0.011211395263671875,-0.004401177167892456,-0.0073348600417375565
1772905685351377400,9.64637744140625,-0.008943557739257812,-0.006665825843811035,-0.012257182039320469
1772905685361377500,9.65637744140625,-0.009070396423339844,-0.009192496538162231,-0.014784688130021095
1772905685371377400,9.66637744140625,-0.011591911315917969,-0.009061634540557861,-0.014921395108103752
1772905685381377500,9.67637744140625,-0.011720657348632812,-0.009196877479553223,-0.015047261491417885
1772905685391377400,9.68637744140625,-0.011593818664550781,-0.004281133413314819,-0.010386642068624496
1772905685401377500,9.69637744140625,-0.014103889465332031,-0.002013683319091797,-0.008123448118567467
1772905685411377400,9.70637744140625,-0.01397705078125,0.0002442896366119385,-0.008251214399933815
1772905685421377500,9.71637744140625,-0.013841629028320312,-0.0022751986980438232,-0.010510647669434547
1772905685431377400,9.72637744140625,-0.01371002197265625,-0.0047949254512786865,-0.01277285534888506
1772905685441377500,9.73637744140625,-0.011180877685546875,-0.007322430610656738,-0.012643865309655666
1772905685451377400,9.74637744140625,-0.008657455444335938,-0.0074478089809417725,-0.010385386645793915
1772905685461377500,9.75637744140625,-0.008531570434570312,-0.007584959268569946,-0.008122995495796204
1772905685471377400,9.76637744140625,-0.006008148193359375,-0.005065560340881348,-0.005592569708824158
1772905685481377500,9.77637744140625,-0.005875587463378906,-0.002798914909362793,-0.007861340418457985
1772905685491377400,9.78637744140625,-0.008135795593261719,0.0018555819988250732,-0.007733507081866264
1772905685501377500,9.79637744140625,-0.0080108642578125,-0.0004019737243652344,-0.009998464956879616
1772905685511377400,9.80637744140625,-0.010271072387695312,-0.0029314756393432617,-0.007472319528460503
1772905685521377500,9.81637744140625,-0.012792587280273438,-0.005196034908294678,-0.0049528032541275024
1772905685531377400,9.82637744140625,-0.012927055358886719,-0.007453322410583496,-0.0024280529469251633
1772905685541377500,9.83637744140625,-0.013058662414550781,-0.007318228483200073,-0.004689149558544159
1772905685551377400,9.84637744140625,-0.012927055358886719,-0.0074443519115448,-0.004552658647298813
1772905685561377500,9.85637744140625,-0.012799263000488281,-0.007581561803817749,-0.004419658333063126
1772905685571377400,9.86637744140625,-0.010537147521972656,-0.007710635662078857,-0.004552509635686874
1772905685581377500,9.87637744140625,-0.010410308837890625,-0.0075848400592803955,-0.004689441993832588
1772905685591377400,9.88637744140625,-0.010281562805175781,-0.005055636167526245,-0.007220285013318062
1772905685601377500,9.89637744140625,-0.0077571868896484375,-0.0025315284729003906,-0.009487602859735489
1772905685611377400,9.90637744140625,-0.0076274871826171875,-0.0024051666259765625,-0.006961612030863762
1772905685621377500,9.91637744140625,-0.010153770446777344,-0.0022755861282348633,-0.006826192140579224
1772905685631377400,9.92637744140625,-0.010284423828125,-0.002405405044555664,-0.006691073998808861
1772905685641377500,9.93637744140625,-0.010159492492675781,-0.0048334598541259766,-0.006821341812610626
1772905685651377400,9.94637744140625,-0.010286331176757812,-0.004701346158981323,-0.006956126540899277
1772905685661377500,9.95637744140625,-0.010411262512207031,-0.002171754837036133,-0.007084367796778679
1772905685671377400,9.96637744140625,-0.010281562805175781,-0.002299278974533081,-0.004819786176085472
1772905685681377500,9.97637744140625,-0.0101470947265625,-0.004821866750717163,-0.004947282373905182
1772905685691377400,9.98637744140625,-0.010278701782226562,-0.007090389728546143,-0.005077987909317017
1772905685701377500,9.99637744140625,-0.010145187377929688,-0.006958693265914917,-0.004945673048496246
1772905685711377400,10.00637744140625,-0.012407302856445312,-0.006832897663116455,-0.007203811779618263
1772905685721377500,10.01637744140625,-0.012537002563476562,-0.004302918910980225,-0.007068643346428871
1772905685731377400,10.02637744140625,-0.012662887573242188,-0.001773834228515625,-0.006936827674508095
1772905685741377500,10.03637744140625,-0.010273933410644531,-0.0017767548561096191,-0.009059939533472061
1772905685751377400,10.04637744140625,-0.007884979248046875,-0.00443720817565918,-0.011186751537024975
1772905685761377500,10.05637744140625,-0.010284423828125,-0.004175812005996704,-0.011182286776602268
1772905685771377400,10.06637744140625,-0.010022163391113281,-0.004178255796432495,-0.008781848475337029
1772905685781377500,10.07637744140625,-0.01241302490234375,-0.004174679517745972,-0.0063971299678087234
1772905685791377400,10.08637744140625,-0.012670516967773438,-0.004430860280990601,-0.004009749740362167
1772905685801377500,10.09637744140625,-0.010290145874023438,-0.004178047180175781,-0.0013590827584266663
1772905685811377400,10.10637744140625,-0.0057659149169921875,-0.001775294542312622,-0.0010993406176567078
1772905685821377500,10.11637744140625,-0.0036363601684570312,0.0007799863815307617,-0.0037627145648002625
1772905685831377400,10.12637744140625,-0.0039005279541015625,0.001035839319229126,-0.006422396749258041
1772905685841377500,10.13637744140625,-0.006560325622558594,-0.0010883808135986328,-0.01147108431905508
1772905685851377400,10.14637744140625,-0.009214401245117188,-0.0008359253406524658,-0.013855423778295517
1772905685861377500,10.15637744140625,-0.009476661682128906,-0.0032250583171844482,-0.013853920623660088
1772905685871377400,10.16637744140625,-0.009733200073242188,-0.0034855008125305176,-0.014119463041424751
1772905685881377500,10.17637744140625,-0.0099945068359375,-0.003231942653656006,-0.011714507825672626
1772905685891377400,10.18637744140625,-0.010256767272949219,-0.0008309483528137207,-0.009320152923464775
1772905685901377500,10.19637744140625,-0.010519027709960938,-0.001102149486541748,-0.009581293910741806
1772905685911377400,10.20637744140625,-0.010783195495605469,-0.003226250410079956,-0.009838821366429329
1772905685921377500,10.21637744140625,-0.008397102355957031,-0.003227144479751587,-0.010093526914715767
1772905685931377400,10.22637744140625,-0.005738258361816406,-0.0034944117069244385,-0.007702155038714409
1772905685941377500,10.23637744140625,-0.0054721832275390625,-0.006149500608444214,-0.005572974681854248
1772905685951377400,10.24637744140625,-0.005466461181640625,-0.008285373449325562,-0.0031898636370897293
1772905685961377500,10.25637744140625,-0.0054645538330078125,-0.005624264478683472,-0.003197692334651947
1772905685971377400,10.26637744140625,-0.007592201232910156,-0.005368977785110474,-0.0029370058327913284
1772905685981377500,10.27637744140625,-0.00998687744140625,-0.002972543239593506,-0.00506586953997612
1772905685991377400,10.28637744140625,-0.012376785278320312,-0.00537264347076416,-0.007191548123955727
1772905686001377500,10.29637744140625,-0.015034675598144531,-0.0053667426109313965,-0.009584791958332062
1772905686011377400,10.30637744140625,-0.012637138366699219,-0.007754713296890259,-0.007189415395259857
1772905686021377500,10.31637744140625,-0.009977340698242188,-0.01040637493133545,-0.005064342170953751
1772905686031377400,10.32637744140625,-0.007317543029785156,-0.01040494441986084,-0.0005480349063873291
1772905686041377500,10.33637744140625,-0.009710311889648438,-0.005713760852813721,-0.00028357282280921936
1772905686051377400,10.34637744140625,-0.011844635009765625,-0.003578662872314453,0.0023788772523403168
1772905686061377500,10.35637744140625,-0.01398468017578125,-0.0014525055885314941,0.0026357658207416534
1772905686071377400,10.36637744140625,-0.014254570007324219,0.000941932201385498,0.0004971958696842194
1772905686081377500,10.37637744140625,-0.012129783630371094,0.003590315580368042,-0.0019064787775278091
1772905686091377400,10.38637744140625,-0.012127876281738281,0.0036014318466186523,-0.006697535514831543
1772905686101377500,10.39637744140625,-0.010004043579101562,0.001207798719406128,-0.0069597456604242325
1772905686111377400,10.40637744140625,-0.010262489318847656,0.0012089908123016357,-0.004832124337553978
1772905686121377500,10.41637744140625,-0.010000228881835938,-0.0011935234069824219,-0.005098674446344376
1772905686131377400,10.42637744140625,-0.009748458862304688,-0.0011924207210540771,-0.005361044779419899
1772905686141377500,10.43637744140625,-0.009738922119140625,-0.0014571547508239746,-0.005632676184177399
1772905686151377400,10.44637744140625,-0.012135505676269531,-0.0014514029026031494,-0.00589274987578392
1772905686161377500,10.45637744140625,-0.011870384216308594,-0.003840237855911255,-0.005892204120755196
1772905686171377400,10.46637744140625,-0.012137413024902344,-0.003837496042251587,-0.0034997425973415375
1772905686181377500,10.47637744140625,-0.009747505187988281,-0.0035706758499145508,-0.0032382383942604065
1772905686191377400,10.48637744140625,-0.009744644165039062,-0.0033156275749206543,-0.005631508305668831
1772905686201377500,10.49637744140625,-0.009744644165039062,-0.003316134214401245,-0.008287327364087105
1772905686211377400,10.50637744140625,-0.0121307373046875,-0.0030615031719207764,-0.008549828082323074
1772905686221377500,10.51637744140625,-0.012127876281738281,-0.0032235682010650635,-0.008349992334842682
1772905686231377400,10.52637744140625,-0.01186370849609375,-0.001095801591873169,-0.005694776773452759
1772905686241377500,10.53637744140625,-0.009203910827636719,-0.0013616681098937988,-0.005689552053809166
1772905686251377400,10.54637744140625,-0.006810188293457031,-0.0016193389892578125,-0.00569731742143631
1772905686261377500,10.55637744140625,-0.006804466247558594,-0.0016247928142547607,-0.007826924324035645
1772905686271377400,10.56637744140625,-0.006805419921875,-0.0016151368618011475,-0.009964445605874062
1772905686281377500,10.57637744140625,-0.004153251647949219,0.0007801949977874756,-0.009967772290110588
1772905686291377400,10.58637744140625,-0.0038928985595703125,0.001041322946548462,-0.00757211446762085
1772905686301377500,10.59637744140625,-0.0038862228393554688,-0.0010880827903747559,-0.004913967102766037
1772905686311377400,10.60637744140625,-0.006024360656738281,-0.0013481676578521729,-0.002258647233247757
1772905686321377500,10.61637744140625,-0.005759239196777344,-0.0016094446182250977,-0.0022600144147872925
1772905686331377400,10.62637744140625,-0.006290435791015625,0.0026498138904571533,-0.0048068817704916
1772905686341377500,10.63637744140625,-0.008549690246582031,0.00490841269493103,-0.007336342707276344
1772905686351377400,10.64637744140625,-0.008678436279296875,0.005035877227783203,-0.007463151589035988
1772905686361377500,10.65637744140625,-0.010935783386230469,0.0027676820755004883,-0.0073377471417188644
1772905686371377400,10.66637744140625,-0.011072158813476562,0.0005048215389251709,-0.009594425559043884
1772905686381377500,10.67637744140625,-0.008810043334960938,-0.0017639100551605225,-0.00946800410747528
1772905686391377400,10.68637744140625,-0.006285667419433594,-0.004022508859634399,-0.00694766640663147
1772905686401377500,10.69637744140625,-0.0061588287353515625,-0.0065496861934661865,-0.006812393665313721
1772905686411377400,10.70637744140625,-0.008416175842285156,-0.009076297283172607,-0.006685841828584671
1772905686421377500,10.71637744140625,-0.008542060852050781,-0.006811678409576416,-0.006821243092417717
1772905686431377400,10.72637744140625,-0.00841522216796875,-0.002154052257537842,-0.004562985152006149
1772905686441377500,10.73637744140625,-0.010677337646484375,0.002505779266357422,0.00009813159704208374
1772905686451377400,10.74637744140625,-0.012944221496582031,0.004765689373016357,0.00022976286709308624
1772905686461377500,10.75637744140625,-0.0128173828125,0.004635721445083618,0.0003601759672164917
1772905686471377400,10.76637744140625,-0.010293960571289062,0.004504561424255371,-0.0042909011244773865
1772905686481377500,10.77637744140625,-0.007762908935546875,0.0022425949573516846,-0.006553458049893379
1772905686491377400,10.78637744140625,-0.0076351165771484375,-0.0026829540729522705,-0.008819838985800743
1772905686501377500,10.79637744140625,-0.007500648498535156,-0.005214482545852661,-0.008686738088726997
1772905686511377400,10.80637744140625,-0.009766578674316406,-0.007738888263702393,-0.008815929293632507
1772905686521377500,10.81637744140625,-0.012026786804199219,-0.010269910097122192,-0.004153791815042496
1772905686531377400,10.82637744140625,-0.014547348022460938,-0.008004724979400635,-0.0018863175064325333
1772905686541377500,10.83637744140625,-0.014415740966796875,-0.0054832398891448975,-0.0020186584442853928
1772905686551377400,10.84637744140625,-0.014285087585449219,-0.003222942352294922,-0.002149553969502449
1772905686561377500,10.85637744140625,-0.014149665832519531,-0.000692903995513916,-0.004677340388298035
1772905686571377400,10.86637744140625,-0.014019012451171875,-0.0005572140216827393,-0.0069373901933431625
1772905686581377500,10.87637744140625,-0.013890266418457031,-0.002824336290359497,-0.0068113841116428375
1772905686591377400,10.88637744140625,-0.011622428894042969,-0.005084007978439331,-0.00907563790678978
1772905686601377500,10.89637744140625,-0.011749267578125,-0.004948288202285767,-0.008939852938055992
1772905686611377400,10.90637744140625,-0.009487152099609375,-0.007216274738311768,-0.006675316020846367
1772905686621377500,10.91637744140625,-0.0072231292724609375,-0.009472936391830444,-0.009203793480992317
1772905686631377400,10.92637744140625,-0.007349967956542969,-0.009343326091766357,-0.011725700460374355
1772905686641377500,10.93637744140625,-0.005092620849609375,-0.006821990013122559,-0.01185226533561945
1772905686651377400,10.94637744140625,-0.0052280426025390625,-0.009081780910491943,-0.007190093398094177
1772905686661377500,10.95637744140625,-0.007748603820800781,-0.008946746587753296,-0.0001388397067785263
1772905686671377400,10.96637744140625,-0.010272026062011719,-0.00881984829902649,0.002128833904862404
1772905686691377400,10.98637744140625,-0.0129241943359375,-0.011053651571273804,-0.005323328077793121
1772905686701377500,10.99637744140625,-0.01305389404296875,-0.008524686098098755,-0.007852846756577492
1772905686711377400,11.00637744140625,-0.01319122314453125,-0.006257444620132446,-0.01037706807255745
1772905686721377500,11.01637744140625,-0.013325691223144531,-0.003996402025222778,-0.01050594262778759
1772905686731377400,11.02637744140625,-0.013455390930175781,-0.006259918212890625,-0.005849117413163185
1772905686741377500,11.03637744140625,-0.011330604553222656,-0.008386015892028809,-0.00583919882774353
1772905686751377400,11.04637744140625,-0.011330604553222656,-0.00838521122932434,-0.005845645442605019
1772905686761377500,11.05637744140625,-0.01160430908203125,-0.006245315074920654,-0.006107008084654808
1772905686771377400,11.06637744140625,-0.011599540710449219,-0.00384676456451416,-0.003982266411185265
1772905686781377500,11.07637744140625,-0.011592864990234375,-0.0038437247276306152,-0.0039985403418540955
1772905686791377400,11.08637744140625,-0.011588096618652344,-0.0017219483852386475,-0.006649073213338852
1772905686801377500,11.09637744140625,-0.011847496032714844,-0.0017188787460327148,-0.00930386409163475
1772905686811377400,11.10637744140625,-0.012114524841308594,-0.004110962152481079,-0.014347155578434467
1772905686821377500,11.11637744140625,-0.009729385375976562,-0.004113197326660156,-0.014339807443320751
1772905686831377400,11.12637744140625,-0.0073261260986328125,-0.0038554370403289795,-0.011946005746722221
1772905686841377500,11.13637744140625,-0.0073337554931640625,-0.0038603246212005615,-0.007163887843489647
1772905686851377400,11.14637744140625,-0.0073261260986328125,-0.0038624703884124756,-0.005031196400523186
1772905686861377500,11.15637744140625,-0.007579803466796875,-0.0038619935512542725,-0.0050284285098314285
1772905686871377400,11.16637744140625,-0.009975433349609375,-0.003855973482131958,-0.005033014342188835
1772905686881377500,11.17637744140625,-0.009982109069824219,-0.004123598337173462,-0.005292411893606186
1772905686891377400,11.18637744140625,-0.009972572326660156,-0.0065111517906188965,-0.007942456752061844
1772905686901377500,11.19637744140625,-0.012364387512207031,-0.008895903825759888,-0.007942605763673782
1772905686911377400,11.20637744140625,-0.012360572814941406,-0.008896887302398682,-0.007687421515583992
1772905686921377500,11.21637744140625,-0.012363433837890625,-0.006497681140899658,-0.009821165353059769
1772905686931377400,11.22637744140625,-0.012109756469726562,-0.004105478525161743,-0.01195245236158371
1772905686941377500,11.23637744140625,-0.009721755981445312,0.0006875395774841309,-0.011686880141496658
1772905686951377400,11.24637744140625,-0.009720802307128906,-0.0017038285732269287,-0.013816815800964832
1772905686961377500,11.25637744140625,-0.009730339050292969,-0.0017091929912567139,-0.011158626526594162
1772905686981377500,11.27637744140625,-0.012385368347167969,-0.004098951816558838,-0.008759116753935814
1772905686991377400,11.28637744140625,-0.014789581298828125,-0.004367053508758545,-0.008760994300246239
1772905687001377500,11.29637744140625,-0.01692676544189453,-0.004373222589492798,-0.00902610458433628
1772905687011377400,11.30637744140625,-0.014269828796386719,-0.004373997449874878,-0.009033095091581345
1772905687021377500,11.31637744140625,-0.009478569030761719,-0.0022460222244262695,-0.008769907057285309
1772905687031377400,11.32637744140625,-0.00682830810546875,-0.0024941563606262207,-0.01090063527226448
1772905687041377500,11.33637744140625,-0.006565093994140625,-0.004880756139755249,-0.008253687992691994
1772905687051377400,11.34637744140625,-0.008952140808105469,-0.007280528545379639,-0.00800006277859211
1772905687061377500,11.35637744140625,-0.011349678039550781,-0.007284820079803467,-0.005342356860637665
1772905687071377400,11.36637744140625,-0.013479232788085938,-0.007539927959442139,-0.0026861783117055893
1772905687081377500,11.37637744140625,-0.015615463256835938,-0.005289942026138306,-0.0024177059531211853
1772905687091377400,11.38637744140625,-0.012952804565429688,-0.0028953850269317627,-0.000016683712601661682
1772905687101377500,11.39637744140625,-0.012951850891113281,-0.000773310661315918,-0.00001325458288192749
1772905687111377400,11.40637744140625,-0.010547637939453125,-0.0007789433002471924,-0.000016456469893455505
1772905687121377500,11.41637744140625,-0.012675285339355469,-0.0005204677581787109,-0.0048033446073532104
1772905687131377400,11.42637744140625,-0.01267242431640625,-0.0005233585834503174,-0.004546083509922028
1772905687141377500,11.43637744140625,-0.01267242431640625,-0.002916306257247925,-0.004291346296668053
1772905687151377400,11.44637744140625,-0.012677192687988281,-0.005312860012054443,-0.004026072099804878
1772905687161377500,11.45637744140625,-0.012664794921875,-0.007447272539138794,-0.006157847121357918
1772905687171377400,11.46637744140625,-0.0102691650390625,-0.007455796003341675,-0.0061536263674497604
1772905687181377500,11.47637744140625,-0.007879257202148438,-0.005063474178314209,-0.003998052328824997
1772905687191377400,11.48637744140625,-0.008149147033691406,-0.004790544509887695,-0.004004273563623428
1772905687201377500,11.49637744140625,-0.010548591613769531,-0.00479087233543396,-0.0064044613391160965
1772905687211377400,11.50637744140625,-0.010547637939453125,-0.006920546293258667,-0.00880727544426918
1772905687221377500,11.51637744140625,-0.012934684753417969,-0.006654888391494751,-0.008810197934508324
1772905687231377400,11.52637744140625,-0.01055145263671875,-0.006914466619491577,-0.006151178851723671
1772905687241377500,11.53637744140625,-0.010547637939453125,-0.006917178630828857,-0.0010939612984657288
1772905687251377400,11.54637744140625,-0.010554313659667969,-0.006655275821685791,0.0036892034113407135
1772905687261377500,11.55637744140625,-0.012688636779785156,-0.0063946545124053955,0.0034271590411663055
1772905687271377400,11.56637744140625,-0.010286331176757812,-0.0037387311458587646,0.0010264385491609573
1772905687281377500,11.57637744140625,-0.0078887939453125,-0.0013400018215179443,-0.001104608178138733
1772905687291377400,11.58637744140625,-0.005503654479980469,-0.0013443529605865479,-0.003237394616007805
1772905687301377500,11.59637744140625,-0.0055141448974609375,-0.001350492238998413,-0.005893399938941002
1772905687311377400,11.60637744140625,-0.007907867431640625,0.001311570405960083,-0.005890142172574997
1772905687331377400,11.62637744140625,-0.008684158325195312,-0.002138584852218628,-0.0048068817704916
1772905687341377500,11.63637744140625,-0.01094818115234375,-0.004397004842758179,-0.007075764238834381
1772905687351377400,11.64637744140625,-0.010815620422363281,-0.004526227712631226,-0.006944647058844566
1772905687361377500,11.65637744140625,-0.013078689575195312,-0.002261251211166382,-0.004420086741447449
1772905687371377400,11.66637744140625,-0.01055145263671875,0.00025898218154907227,-0.004548527300357819
1772905687381377500,11.67637744140625,-0.010678291320800781,0.00038510560989379883,-0.004415957257151604
1772905687391377400,11.68637744140625,-0.008149147033691406,-0.00213623046875,-0.006672723218798637
1772905687401377500,11.69637744140625,-0.0082855224609375,-0.004658311605453491,-0.006798483431339264
1772905687411377400,11.70637744140625,-0.006023406982421875,-0.007182955741882324,-0.004541140049695969
1772905687421377500,11.71637744140625,-0.0061550140380859375,-0.007311373949050903,-0.004666753113269806
1772905687431377400,11.72637744140625,-0.006283760070800781,-0.0071800947189331055,-0.004794422537088394
1772905687441377500,11.73637744140625,-0.004017829895019531,-0.007045149803161621,-0.0046675484627485275
1772905687451377400,11.74637744140625,-0.004149436950683594,-0.007172286510467529,-0.002146948128938675
1772905687461377500,11.75637744140625,-0.004275321960449219,-0.009699910879135132,0.00011601485311985016
1772905687471377400,11.76637744140625,-0.0044116973876953125,-0.009570956230163574,-0.000020975247025489807
1772905687481377500,11.77637744140625,-0.0069427490234375,-0.007051140069961548,-0.0049424003809690475
1772905687491377400,11.78637744140625,-0.007069587707519531,-0.004520714282989502,-0.009865783154964447
1772905687501377500,11.79637744140625,-0.009594917297363281,-0.004395008087158203,-0.009997909888625145
1772905687511377400,11.80637744140625,-0.009721755981445312,-0.001998722553253174,-0.00773073174059391
1772905687521377500,11.81637744140625,-0.00719451904296875,-0.0018719136714935303,-0.005473487079143524
1772905687531377400,11.82637744140625,-0.004670143127441406,-0.0017414987087249756,-0.005609059706330299
1772905687541377500,11.83637744140625,-0.0048046112060546875,0.0007843673229217529,-0.005479380488395691
1772905687551377400,11.84637744140625,-0.004879951477050781,-0.0014722943305969238,-0.005349462851881981
1772905687561377500,11.85637744140625,-0.007411003112792969,-0.0037322044372558594,-0.0028203576803207397
1772905687571377400,11.86637744140625,-0.007542610168457031,-0.0059951841831207275,-0.0005532056093215942
1772905687581377500,11.87637744140625,-0.007679939270019531,-0.006122380495071411,-0.0006812978535890579
1772905687591377400,11.88637744140625,-0.007808685302734375,-0.005995303392410278,0.001577526330947876
1772905687601377500,11.89637744140625,-0.007933616638183594,-0.0058602988719940186,-0.0009533390402793884
1772905687611377400,11.90637744140625,-0.010458946228027344,-0.0033311545848846436,-0.0010794978588819504
1772905687621377500,11.91637744140625,-0.012987136840820312,-0.0008106231689453125,-0.0009525101631879807
1772905687631377400,11.92637744140625,-0.013120651245117188,-0.0009385943412780762,-0.0008216239511966705
1772905687641377500,11.93637744140625,-0.010861396789550781,-0.0008120834827423096,-0.003350788727402687
1772905687651377400,11.94637744140625,-0.008604049682617188,-0.0006825923919677734,-0.005871443077921867
1772905687661377500,11.95637744140625,-0.008736610412597656,-0.0005466341972351074,-0.008228078484535217
1772905687671377400,11.96637744140625,-0.008867263793945312,-0.0006734728813171387,-0.008095011115074158
1772905687681377500,11.97637744140625,-0.008999824523925781,-0.0008014440536499023,-0.005833981558680534
1772905687691377400,11.98637744140625,-0.009125709533691406,-0.0006675124168395996,-0.0011817310005426407
1772905687701377500,11.99637744140625,-0.009258270263671875,0.0018542110919952393,0.0010751187801361084
1772905687711377400,12.00637744140625,-0.009395599365234375,0.001724153757095337,0.0009376127272844315
1772905687721377500,12.01637744140625,-0.007136344909667969,-0.0007996261119842529,-0.0015889909118413925
1772905687731377400,12.02637744140625,-0.0072650909423828125,-0.0006727874279022217,-0.006511924788355827
1772905687741377500,12.03637744140625,-0.009919166564941406,-0.0009363293647766113,-0.009158670902252197
1772905687751377400,12.04637744140625,-0.010186195373535156,-0.0009341537952423096,-0.007024820894002914
