time,seconds_elapsed,z,y,x
1772905675968049200,0.263049072265625,9.267701148986816,-0.376570463180542,0.02961117960512638
1772905675978004700,0.273004638671875,9.267701148986816,-0.37417763471603394,0.027218356728553772
1772905675987954700,0.28295458984375,9.27009391784668,-0.376570463180542,0.022432712838053703
1772905675997949700,0.29294970703125,9.27009391784668,-0.37417763471603394,0.015254244208335876
1772905676007919400,0.30291943359375,9.272486686706543,-0.37417763471603394,0.012861421331763268
1772905676017897700,0.312897705078125,9.274879455566406,-0.376570463180542,0.010468599386513233
1772905676027871200,0.322871337890625,9.274879455566406,-0.37896329164505005,0.008075776509940624
1772905676037862400,0.3328623046875,9.272486686706543,-0.37896329164505005,0.010468599386513233
1772905676047843600,0.342843505859375,9.27009391784668,-0.376570463180542,0.012861421331763268
1772905676057830100,0.352830078125,9.27009391784668,-0.376570463180542,0.015254244208335876
1772905676067813600,0.362813720703125,9.267701148986816,-0.37896329164505005,0.017647067084908485
1772905676077773800,0.37277392578125,9.267701148986816,-0.3813561201095581,0.020039889961481094
1772905676087747300,0.382747314453125,9.265308380126953,-0.3813561201095581,0.017647067084908485
1772905676097729000,0.39272900390625,9.265308380126953,-0.37896329164505005,0.017647067084908485
1772905676107705900,0.402705810546875,9.265308380126953,-0.376570463180542,0.017647067084908485
1772905676117682200,0.41268212890625,9.265308380126953,-0.37417763471603394,0.017647067084908485
1772905676127658800,0.42265869140625,9.265308380126953,-0.376570463180542,0.017647067084908485
1772905676147608300,0.4426083984375,9.265308380126953,-0.3837489187717438,0.015254244208335876
1772905676157788200,0.4527880859375,9.265308380126953,-0.3837489187717438,0.015254244208335876
1772905676167982600,0.462982666015625,9.265308380126953,-0.37896329164505005,0.015254244208335876
1772905676177853200,0.472853271484375,9.265308380126953,-0.376570463180542,0.017647067084908485
1772905676187857000,0.48285693359375,9.265308380126953,-0.376570463180542,0.020039889961481094
1772905676197799700,0.492799560546875,9.265308380126953,-0.37896329164505005,0.020039889961481094
1772905676207777000,0.502777099609375,9.265308380126953,-0.37896329164505005,0.020039889961481094
1772905676217597200,0.51259716796875,9.267701148986816,-0.37896329164505005,0.020039889961481094
1772905676227417000,0.5224169921875,9.27009391784668,-0.37896329164505005,0.022432712838053703
1772905676237597200,0.53259716796875,9.272486686706543,-0.37896329164505005,0.022432712838053703
1772905676247729400,0.5427294921875,9.272486686706543,-0.37896329164505005,0.024825535714626312
1772905676257549600,0.552549560546875,9.27009391784668,-0.376570463180542,0.027218356728553772
1772905676267369500,0.562369384765625,9.27009391784668,-0.37896329164505005,0.024825535714626312
1772905676277528600,0.572528564453125,9.27009391784668,-0.37896329164505005,0.022432712838053703
1772905676287577600,0.58257763671875,9.27009391784668,-0.3813561201095581,0.022432712838053703
1772905676297503500,0.59250341796875,9.27009391784668,-0.38614174723625183,0.020039889961481094
1772905676307539700,0.602539794921875,9.27009391784668,-0.38614174723625183,0.020039889961481094
1772905676317494300,0.612494384765625,9.267701148986816,-0.3837489187717438,0.022432712838053703
1772905676327522600,0.6225224609375,9.267701148986816,-0.3813561201095581,0.022432712838053703
1772905676337342500,0.632342529296875,9.267701148986816,-0.3813561201095581,0.020039889961481094
1772905676347201300,0.642201171875,9.272486686706543,-0.3813561201095581,0.017647067084908485
1772905676357207600,0.65220751953125,9.274879455566406,-0.3813561201095581,0.015254244208335876
1772905676367202300,0.662202392578125,9.274879455566406,-0.3813561201095581,0.015254244208335876
1772905676377214000,0.6722138671875,9.272486686706543,-0.3837489187717438,0.015254244208335876
1772905676387210500,0.68221044921875,9.272486686706543,-0.38614174723625183,0.020039889961481094
1772905676397211000,0.6922109375,9.272486686706543,-0.38614174723625183,0.022432712838053703
1772905676407207700,0.702207763671875,9.272486686706543,-0.38614174723625183,0.022432712838053703
1772905676417208300,0.712208251953125,9.27009391784668,-0.38614174723625183,0.022432712838053703
1772905676427205600,0.72220556640625,9.27009391784668,-0.3837489187717438,0.022432712838053703
1772905676437204000,0.732203857421875,9.267701148986816,-0.3813561201095581,0.020039889961481094
1772905676447201300,0.742201171875,9.265308380126953,-0.37896329164505005,0.017647067084908485
1772905676457021400,0.752021484375,9.265308380126953,-0.376570463180542,0.020039889961481094
1772905676466877000,0.761876953125,9.267701148986816,-0.376570463180542,0.020039889961481094
1772905676477057000,0.77205712890625,9.27009391784668,-0.376570463180542,0.017647067084908485
1772905676487236900,0.78223681640625,9.272486686706543,-0.37896329164505005,0.017647067084908485
1772905676497265000,0.792264892578125,9.27727222442627,-0.37896329164505005,0.017647067084908485
1772905676507085000,0.8020849609375,9.279664993286133,-0.37417763471603394,0.020039889961481094
1772905676517002200,0.812002197265625,9.279664993286133,-0.37417763471603394,0.020039889961481094
1772905676526822100,0.821822265625,9.27727222442627,-0.376570463180542,0.017647067084908485
1772905676536684000,0.83168408203125,9.274879455566406,-0.37896329164505005,0.017647067084908485
1772905676546722000,0.84172216796875,9.27009391784668,-0.3813561201095581,0.017647067084908485
1772905676556690200,0.851690185546875,9.265308380126953,-0.3837489187717438,0.020039889961481094
1772905676566755000,0.861755126953125,9.26291561126709,-0.3837489187717438,0.020039889961481094
1772905676576733000,0.87173291015625,9.265308380126953,-0.3837489187717438,0.024825535714626312
1772905676586735400,0.8817353515625,9.267701148986816,-0.3813561201095581,0.027218356728553772
1772905676596716000,0.891716064453125,9.27009391784668,-0.3813561201095581,0.027218356728553772
1772905676606732000,0.90173193359375,9.274879455566406,-0.3813561201095581,0.027218356728553772
1772905676616716300,0.91171630859375,9.27727222442627,-0.3837489187717438,0.022432712838053703
1772905676626536200,0.9215361328125,9.279664993286133,-0.3813561201095581,0.022432712838053703
1772905676636397600,0.9313974609375,9.279664993286133,-0.37896329164505005,0.020039889961481094
1772905676646419700,0.941419677734375,9.27727222442627,-0.37896329164505005,0.017647067084908485
1772905676656384300,0.95138427734375,9.27727222442627,-0.3813561201095581,0.017647067084908485
1772905676666388000,0.961387939453125,9.274879455566406,-0.3813561201095581,0.017647067084908485
1772905676676356400,0.9713564453125,9.274879455566406,-0.3813561201095581,0.022432712838053703
1772905676686339000,0.981339111328125,9.274879455566406,-0.3813561201095581,0.022432712838053703
1772905676696309000,0.99130908203125,9.272486686706543,-0.3837489187717438,0.022432712838053703
1772905676706286600,1.00128662109375,9.272486686706543,-0.3837489187717438,0.022432712838053703
1772905676716257300,1.01125732421875,9.274879455566406,-0.3837489187717438,0.020039889961481094
1772905676726269400,1.02126953125,9.272486686706543,-0.3837489187717438,0.017647067084908485
1772905676736244200,1.031244140625,9.27009391784668,-0.3813561201095581,0.020039889961481094
1772905676746214400,1.04121435546875,9.267701148986816,-0.3813561201095581,0.022432712838053703
1772905676756189000,1.05118896484375,9.267701148986816,-0.3813561201095581,0.024825535714626312
1772905676766162200,1.061162109375,9.267701148986816,-0.37896329164505005,0.027218356728553772
1772905676776136400,1.071136474609375,9.27009391784668,-0.37896329164505005,0.024825535714626312
1772905676786080800,1.081080810546875,9.272486686706543,-0.376570463180542,0.022432712838053703
1772905676796052000,1.091052001953125,9.27727222442627,-0.376570463180542,0.022432712838053703
1772905676806039600,1.10103955078125,9.27727222442627,-0.37896329164505005,0.022432712838053703
1772905676816012500,1.111012451171875,9.27727222442627,-0.3813561201095581,0.020039889961481094
1772905676825979000,1.120978759765625,9.274879455566406,-0.3837489187717438,0.020039889961481094
1772905676835951000,1.130951171875,9.274879455566406,-0.38614174723625183,0.020039889961481094
1772905676845935900,1.140935791015625,9.272486686706543,-0.3837489187717438,0.020039889961481094
1772905676855909400,1.150909423828125,9.272486686706543,-0.3837489187717438,0.020039889961481094
1772905676865875200,1.160875244140625,9.27009391784668,-0.3813561201095581,0.015254244208335876
1772905676875848000,1.170847900390625,9.27009391784668,-0.3813561201095581,0.012861421331763268
1772905676885825300,1.1808251953125,9.27009391784668,-0.37896329164505005,0.010468599386513233
1772905676895798500,1.190798583984375,9.27009391784668,-0.37896329164505005,0.010468599386513233
1772905676905765000,1.20076513671875,9.27009391784668,-0.37896329164505005,0.012861421331763268
1772905676915737900,1.21073779296875,9.27009391784668,-0.37896329164505005,0.015254244208335876
1772905676925725700,1.2207255859375,9.27009391784668,-0.37896329164505005,0.017647067084908485
1772905676935700000,1.230699951171875,9.27009391784668,-0.376570463180542,0.022432712838053703
1772905676945660700,1.24066064453125,9.27009391784668,-0.376570463180542,0.027218356728553772
1772905676955633400,1.25063330078125,9.27009391784668,-0.376570463180542,0.02961117960512638
1772905676965614800,1.26061474609375,9.267701148986816,-0.37896329164505005,0.027218356728553772
1772905676975588600,1.270588623046875,9.267701148986816,-0.3813561201095581,0.022432712838053703
1772905676985586700,1.280586669921875,9.267701148986816,-0.3813561201095581,0.020039889961481094
1772905676995563000,1.29056298828125,9.267701148986816,-0.3813561201095581,0.017647067084908485
1772905677005582300,1.300582275390625,9.27009391784668,-0.3813561201095581,0.017647067084908485
1772905677015562800,1.310562744140625,9.272486686706543,-0.3837489187717438,0.017647067084908485
1772905677025526300,1.3205263671875,9.274879455566406,-0.3837489187717438,0.017647067084908485
1772905677035505200,1.330505126953125,9.274879455566406,-0.3813561201095581,0.017647067084908485
1772905677045454800,1.340454833984375,9.272486686706543,-0.37896329164505005,0.015254244208335876
1772905677055430700,1.3504306640625,9.272486686706543,-0.376570463180542,0.017647067084908485
1772905677065423400,1.36042333984375,9.27009391784668,-0.376570463180542,0.017647067084908485
1772905677075400700,1.370400634765625,9.267701148986816,-0.376570463180542,0.017647067084908485
1772905677085376300,1.380376220703125,9.265308380126953,-0.37896329164505005,0.017647067084908485
1772905677095353600,1.390353515625,9.265308380126953,-0.37896329164505005,0.017647067084908485
1772905677105330700,1.40033056640625,9.267701148986816,-0.3813561201095581,0.017647067084908485
1772905677115308000,1.41030810546875,9.27009391784668,-0.38614174723625183,0.017647067084908485
1772905677125276200,1.420276123046875,9.272486686706543,-0.3885345757007599,0.020039889961481094
1772905677135252500,1.43025244140625,9.274879455566406,-0.38614174723625183,0.020039889961481094
1772905677145230000,1.44022998046875,9.274879455566406,-0.3813561201095581,0.020039889961481094
1772905677155206700,1.45020654296875,9.27009391784668,-0.37896329164505005,0.020039889961481094
1772905677165173200,1.46017333984375,9.267701148986816,-0.376570463180542,0.020039889961481094
1772905677175148800,1.470148681640625,9.267701148986816,-0.37896329164505005,0.022432712838053703
1772905677185132500,1.480132568359375,9.27009391784668,-0.37896329164505005,0.020039889961481094
1772905677195108900,1.49010888671875,9.27009391784668,-0.3813561201095581,0.017647067084908485
1772905677205092600,1.500092529296875,9.272486686706543,-0.3813561201095581,0.015254244208335876
1772905677215070000,1.510070068359375,9.272486686706543,-0.37896329164505005,0.015254244208335876
1772905677225054000,1.520053955078125,9.272486686706543,-0.37896329164505005,0.015254244208335876
1772905677235031800,1.53003173828125,9.272486686706543,-0.3813561201095581,0.017647067084908485
1772905677244984300,1.539984375,9.27009391784668,-0.3837489187717438,0.020039889961481094
1772905677254959600,1.549959716796875,9.27009391784668,-0.37896329164505005,0.020039889961481094
1772905677264935700,1.559935791015625,9.272486686706543,-0.376570463180542,0.020039889961481094
1772905677274911000,1.569910888671875,9.272486686706543,-0.37896329164505005,0.020039889961481094
1772905677284889600,1.5798896484375,9.272486686706543,-0.376570463180542,0.017647067084908485
1772905677294865200,1.589865234375,9.272486686706543,-0.37417763471603394,0.017647067084908485
1772905677304848600,1.5998486328125,9.272486686706543,-0.37417763471603394,0.017647067084908485
1772905677314825200,1.6098251953125,9.272486686706543,-0.376570463180542,0.017647067084908485
1772905677324829000,1.619828857421875,9.27009391784668,-0.3813561201095581,0.020039889961481094
1772905677334808000,1.62980810546875,9.27009391784668,-0.3837489187717438,0.020039889961481094
1772905677344769300,1.639769287109375,9.27009391784668,-0.38614174723625183,0.017647067084908485
1772905677354746600,1.64974658203125,9.267701148986816,-0.3837489187717438,0.017647067084908485
1772905677364740000,1.659739990234375,9.267701148986816,-0.3837489187717438,0.017647067084908485
1772905677374719200,1.66971923828125,9.267701148986816,-0.3813561201095581,0.020039889961481094
1772905677384684000,1.67968408203125,9.267701148986816,-0.37896329164505005,0.020039889961481094
1772905677394661600,1.68966162109375,9.267701148986816,-0.376570463180542,0.017647067084908485
1772905677404632800,1.6996328125,9.27009391784668,-0.376570463180542,0.017647067084908485
1772905677414609700,1.709609619140625,9.27009391784668,-0.37896329164505005,0.017647067084908485
1772905677424593200,1.71959326171875,9.272486686706543,-0.37896329164505005,0.017647067084908485
1772905677434570800,1.72957080078125,9.272486686706543,-0.3813561201095581,0.017647067084908485
1772905677444543700,1.739543701171875,9.27009391784668,-0.37896329164505005,0.020039889961481094
1772905677454520800,1.749520751953125,9.267701148986816,-0.376570463180542,0.022432712838053703
1772905677464494600,1.75949462890625,9.267701148986816,-0.376570463180542,0.022432712838053703
1772905677474471400,1.769471435546875,9.267701148986816,-0.376570463180542,0.022432712838053703
1772905677484437200,1.779437255859375,9.27009391784668,-0.37896329164505005,0.022432712838053703
1772905677494412800,1.789412841796875,9.27009391784668,-0.3813561201095581,0.020039889961481094
1772905677504393500,1.7993935546875,9.27009391784668,-0.3813561201095581,0.020039889961481094
1772905677514369500,1.80936962890625,9.27009391784668,-0.3813561201095581,0.020039889961481094
1772905677524353500,1.819353515625,9.27009391784668,-0.3837489187717438,0.020039889961481094
1772905677534330600,1.82933056640625,9.27009391784668,-0.3837489187717438,0.022432712838053703
1772905677544313600,1.839313720703125,9.267701148986816,-0.3813561201095581,0.022432712838053703
1772905677554291200,1.849291259765625,9.267701148986816,-0.37896329164505005,0.022432712838053703
1772905677564258300,1.85925830078125,9.265308380126953,-0.37896329164505005,0.022432712838053703
1772905677584222500,1.879222412109375,9.267701148986816,-0.3813561201095581,0.027218356728553772
1772905677594200000,1.889199951171875,9.27009391784668,-0.3813561201095581,0.027218356728553772
1772905677604179200,1.89917919921875,9.272486686706543,-0.3813561201095581,0.027218356728553772
1772905677614157000,1.909156982421875,9.272486686706543,-0.3813561201095581,0.024825535714626312
1772905677624164000,1.9191640625,9.272486686706543,-0.37896329164505005,0.024825535714626312
1772905677634145000,1.92914501953125,9.27009391784668,-0.376570463180542,0.022432712838053703
1772905677644093000,1.939093017578125,9.267701148986816,-0.376570463180542,0.020039889961481094
1772905677654070500,1.949070556640625,9.267701148986816,-0.376570463180542,0.020039889961481094
1772905677664051700,1.9590517578125,9.265308380126953,-0.37896329164505005,0.020039889961481094
1772905677674029600,1.969029541015625,9.265308380126953,-0.37896329164505005,0.020039889961481094
1772905677683995100,1.9789951171875,9.267701148986816,-0.37896329164505005,0.020039889961481094
1772905677693971700,1.9889716796875,9.267701148986816,-0.3813561201095581,0.020039889961481094
1772905677703932400,1.998932373046875,9.27009391784668,-0.3813561201095581,0.020039889961481094
1772905677713907500,2.008907470703125,9.267701148986816,-0.3837489187717438,0.020039889961481094
1772905677723886000,2.018885986328125,9.267701148986816,-0.3837489187717438,0.020039889961481094
1772905677733861400,2.028861328125,9.267701148986816,-0.3837489187717438,0.020039889961481094
1772905677743837700,2.038837646484375,9.267701148986816,-0.3813561201095581,0.020039889961481094
1772905677753813200,2.048813232421875,9.27009391784668,-0.3813561201095581,0.020039889961481094
1772905677763798800,2.058798828125,9.272486686706543,-0.37896329164505005,0.020039889961481094
1772905677773775400,2.068775390625,9.272486686706543,-0.376570463180542,0.022432712838053703
1772905677783735600,2.078735595703125,9.27009391784668,-0.37896329164505005,0.024825535714626312
1772905677793710300,2.08871044921875,9.27009391784668,-0.3813561201095581,0.027218356728553772
1772905677803681500,2.098681640625,9.27009391784668,-0.3813561201095581,0.027218356728553772
1772905677813655800,2.10865576171875,9.267701148986816,-0.3837489187717438,0.024825535714626312
1772905677823631600,2.118631591796875,9.267701148986816,-0.3813561201095581,0.022432712838053703
1772905677833606100,2.128606201171875,9.27009391784668,-0.37896329164505005,0.022432712838053703
1772905677843586000,2.1385859375,9.27009391784668,-0.37896329164505005,0.022432712838053703
1772905677853561300,2.148561279296875,9.27009391784668,-0.376570463180542,0.022432712838053703
1772905677863545900,2.1585458984375,9.27009391784668,-0.376570463180542,0.022432712838053703
1772905677873522000,2.16852197265625,9.267701148986816,-0.37896329164505005,0.020039889961481094
1772905677883477000,2.17847705078125,9.267701148986816,-0.37896329164505005,0.020039889961481094
1772905677893451000,2.188450927734375,9.267701148986816,-0.37896329164505005,0.020039889961481094
1772905677903434500,2.1984345703125,9.267701148986816,-0.3813561201095581,0.020039889961481094
1772905677913409300,2.2084091796875,9.267701148986816,-0.3813561201095581,0.022432712838053703
1772905677923385600,2.218385498046875,9.267701148986816,-0.37896329164505005,0.022432712838053703
1772905677933360600,2.228360595703125,9.27009391784668,-0.37896329164505005,0.020039889961481094
1772905677943334400,2.23833447265625,9.272486686706543,-0.376570463180542,0.017647067084908485
1772905677953309200,2.24830908203125,9.274879455566406,-0.37417763471603394,0.020039889961481094
1772905677963280000,2.25827978515625,9.274879455566406,-0.37417763471603394,0.022432712838053703
1772905677973254400,2.26825439453125,9.274879455566406,-0.37417763471603394,0.024825535714626312
1772905677983230000,2.27822998046875,9.274879455566406,-0.376570463180542,0.027218356728553772
1772905677993204500,2.28820458984375,9.27009391784668,-0.3813561201095581,0.027218356728553772
1772905678003162400,2.298162353515625,9.267701148986816,-0.3837489187717438,0.027218356728553772
1772905678013135400,2.30813525390625,9.265308380126953,-0.3837489187717438,0.024825535714626312
1772905678023114200,2.3181142578125,9.265308380126953,-0.3813561201095581,0.024825535714626312
1772905678033087700,2.328087646484375,9.265308380126953,-0.3813561201095581,0.024825535714626312
1772905678043063600,2.3380634765625,9.265308380126953,-0.3813561201095581,0.024825535714626312
1772905678053037300,2.348037353515625,9.265308380126953,-0.3813561201095581,0.024825535714626312
1772905678063010800,2.3580107421875,9.265308380126953,-0.376570463180542,0.024825535714626312
1772905678072984600,2.367984619140625,9.265308380126953,-0.376570463180542,0.022432712838053703
1772905678082950100,2.3779501953125,9.265308380126953,-0.376570463180542,0.022432712838053703
1772905678092923000,2.3879228515625,9.267701148986816,-0.37896329164505005,0.020039889961481094
1772905678102895000,2.39789501953125,9.27009391784668,-0.37896329164505005,0.022432712838053703
1772905678112867800,2.407867919921875,9.27009391784668,-0.37896329164505005,0.022432712838053703
1772905678122834700,2.417834716796875,9.267701148986816,-0.37896329164505005,0.020039889961481094
1772905678132807000,2.427806884765625,9.267701148986816,-0.376570463180542,0.020039889961481094
1772905678142782000,2.437781982421875,9.27009391784668,-0.37417763471603394,0.017647067084908485
1772905678152754700,2.447754638671875,9.27009391784668,-0.37417763471603394,0.017647067084908485
1772905678162745900,2.457745849609375,9.267701148986816,-0.376570463180542,0.017647067084908485
1772905678172720000,2.46772021484375,9.267701148986816,-0.3813561201095581,0.020039889961481094
1772905678182687500,2.4776875,9.267701148986816,-0.3837489187717438,0.020039889961481094
1772905678192661200,2.4876611328125,9.267701148986816,-0.3885345757007599,0.020039889961481094
1772905678202642400,2.497642333984375,9.27009391784668,-0.38614174723625183,0.020039889961481094
1772905678212617000,2.507616943359375,9.27009391784668,-0.3813561201095581,0.022432712838053703
1772905678222594300,2.51759423828125,9.267701148986816,-0.37896329164505005,0.022432712838053703
1772905678232568800,2.52756884765625,9.267701148986816,-0.37417763471603394,0.024825535714626312
1772905678242539300,2.537539306640625,9.265308380126953,-0.37417763471603394,0.024825535714626312
1772905678252513500,2.547513427734375,9.265308380126953,-0.37417763471603394,0.024825535714626312
1772905678262517000,2.55751708984375,9.265308380126953,-0.376570463180542,0.022432712838053703
1772905678272494300,2.567494384765625,9.265308380126953,-0.37896329164505005,0.022432712838053703
1772905678282674200,2.577674072265625,9.27009391784668,-0.37896329164505005,0.020039889961481094
1772905678292735000,2.58773486328125,9.272486686706543,-0.3813561201095581,0.020039889961481094
1772905678302555100,2.59755517578125,9.274879455566406,-0.3813561201095581,0.020039889961481094
1772905678312371200,2.60737109375,9.274879455566406,-0.3813561201095581,0.022432712838053703
1772905678322399700,2.617399658203125,9.27009391784668,-0.3813561201095581,0.024825535714626312
1772905678332375800,2.627375732421875,9.267701148986816,-0.3813561201095581,0.027218356728553772
1772905678342347500,2.637347412109375,9.267701148986816,-0.37896329164505005,0.024825535714626312
1772905678352323300,2.6473232421875,9.265308380126953,-0.3813561201095581,0.022432712838053703
1772905678362290400,2.65729052734375,9.265308380126953,-0.3837489187717438,0.020039889961481094
1772905678372265200,2.66726513671875,9.267701148986816,-0.3837489187717438,0.020039889961481094
1772905678382241500,2.677241455078125,9.267701148986816,-0.3837489187717438,0.022432712838053703
1772905678392216600,2.687216552734375,9.267701148986816,-0.3813561201095581,0.024825535714626312
1772905678402180900,2.697180908203125,9.27009391784668,-0.37896329164505005,0.027218356728553772
1772905678412155000,2.70715478515625,9.27009391784668,-0.37896329164505005,0.024825535714626312
1772905678422141000,2.717140869140625,9.27009391784668,-0.3813561201095581,0.022432712838053703
1772905678432116200,2.7271162109375,9.27009391784668,-0.3837489187717438,0.020039889961481094
1772905678442069500,2.737069580078125,9.267701148986816,-0.3813561201095581,0.020039889961481094
1772905678452042500,2.74704248046875,9.267701148986816,-0.3813561201095581,0.024825535714626312
1772905678462029300,2.757029296875,9.27009391784668,-0.37896329164505005,0.027218356728553772
1772905678472003800,2.76700390625,9.27009391784668,-0.376570463180542,0.027218356728553772
1772905678482183700,2.77718359375,9.27009391784668,-0.37896329164505005,0.024825535714626312
1772905678492258300,2.78725830078125,9.267701148986816,-0.3813561201095581,0.020039889961481094
1772905678502078200,2.797078125,9.267701148986816,-0.3813561201095581,0.017647067084908485
1772905678511886000,2.806885986328125,9.27009391784668,-0.3837489187717438,0.015254244208335876
1772905678521863000,2.81686279296875,9.267701148986816,-0.3837489187717438,0.015254244208335876
1772905678531832000,2.82683203125,9.267701148986816,-0.3813561201095581,0.017647067084908485
1772905678542012200,2.83701220703125,9.267701148986816,-0.37896329164505005,0.022432712838053703
1772905678552083200,2.847083251953125,9.27009391784668,-0.37896329164505005,0.022432712838053703
1772905678561903400,2.8569033203125,9.27009391784668,-0.37896329164505005,0.022432712838053703
1772905678571734800,2.86673486328125,9.272486686706543,-0.37896329164505005,0.022432712838053703
1772905678581718000,2.876718017578125,9.272486686706543,-0.37896329164505005,0.022432712838053703
1772905678591686700,2.886686767578125,9.272486686706543,-0.376570463180542,0.022432712838053703
1772905678601689600,2.896689697265625,9.272486686706543,-0.376570463180542,0.020039889961481094
1772905678611661800,2.906661865234375,9.27009391784668,-0.376570463180542,0.020039889961481094
1772905678621842000,2.916842041015625,9.267701148986816,-0.37417763471603394,0.020039889961481094
1772905678631948500,2.926948486328125,9.267701148986816,-0.376570463180542,0.017647067084908485
1772905678641768400,2.9367685546875,9.265308380126953,-0.376570463180542,0.017647067084908485
1772905678651578400,2.946578369140625,9.26291561126709,-0.37896329164505005,0.017647067084908485
1772905678661589500,2.956589599609375,9.26291561126709,-0.37896329164505005,0.017647067084908485
1772905678671563500,2.9665634765625,9.265308380126953,-0.37896329164505005,0.020039889961481094
1772905678681743600,2.97674365234375,9.267701148986816,-0.3813561201095581,0.022432712838053703
1772905678691843300,2.98684326171875,9.27009391784668,-0.3813561201095581,0.022432712838053703
1772905678701663500,2.99666357421875,9.274879455566406,-0.3813561201095581,0.020039889961481094
1772905678711477800,3.006477783203125,9.274879455566406,-0.3813561201095581,0.017647067084908485
1772905678721462000,3.0164619140625,9.272486686706543,-0.37896329164505005,0.015254244208335876
1772905678731434000,3.02643408203125,9.27009391784668,-0.3813561201095581,0.015254244208335876
1772905678741414000,3.036413818359375,9.27009391784668,-0.3813561201095581,0.017647067084908485
1772905678751387000,3.046386962890625,9.267701148986816,-0.3837489187717438,0.020039889961481094
1772905678761359000,3.056359130859375,9.267701148986816,-0.3837489187717438,0.020039889961481094
1772905678771331800,3.066331787109375,9.265308380126953,-0.37896329164505005,0.022432712838053703
1772905678781296600,3.076296630859375,9.265308380126953,-0.376570463180542,0.022432712838053703
1772905678791268600,3.0862685546875,9.265308380126953,-0.37417763471603394,0.020039889961481094
1772905678801244000,3.096243896484375,9.267701148986816,-0.37417763471603394,0.020039889961481094
1772905678811216100,3.106216064453125,9.267701148986816,-0.37417763471603394,0.022432712838053703
1772905678821199000,3.11619921875,9.267701148986816,-0.376570463180542,0.022432712838053703
1772905678831172600,3.126172607421875,9.267701148986816,-0.376570463180542,0.022432712838053703
1772905678841156400,3.13615625,9.267701148986816,-0.376570463180542,0.022432712838053703
1772905678851131000,3.146130859375,9.267701148986816,-0.376570463180542,0.020039889961481094
1772905678861107000,3.15610693359375,9.267701148986816,-0.376570463180542,0.017647067084908485
1772905678871081500,3.16608154296875,9.27009391784668,-0.37896329164505005,0.017647067084908485
1772905678881072600,3.17607275390625,9.27009391784668,-0.3813561201095581,0.017647067084908485
1772905678891049200,3.18604931640625,9.27009391784668,-0.3837489187717438,0.017647067084908485
1772905678901005000,3.196005126953125,9.27009391784668,-0.3813561201095581,0.020039889961481094
1772905678910979300,3.205979248046875,9.27009391784668,-0.3813561201095581,0.022432712838053703
1772905678920951000,3.215950927734375,9.272486686706543,-0.3813561201095581,0.024825535714626312
1772905678930925000,3.225925048828125,9.272486686706543,-0.3813561201095581,0.024825535714626312
1772905678940900900,3.23590087890625,9.27009391784668,-0.3813561201095581,0.024825535714626312
1772905678950875100,3.245875244140625,9.27009391784668,-0.3813561201095581,0.022432712838053703
1772905678960866600,3.255866455078125,9.27009391784668,-0.37896329164505005,0.020039889961481094
1772905678970842600,3.265842529296875,9.27009391784668,-0.37896329164505005,0.020039889961481094
1772905678980828700,3.27582861328125,9.27009391784668,-0.37896329164505005,0.022432712838053703
1772905678990805500,3.285805419921875,9.27009391784668,-0.3813561201095581,0.024825535714626312
1772905679000788200,3.295788330078125,9.272486686706543,-0.3813561201095581,0.027218356728553772
1772905679010765800,3.305765869140625,9.272486686706543,-0.3813561201095581,0.02961117960512638
1772905679020743700,3.31574365234375,9.272486686706543,-0.37896329164505005,0.027218356728553772
1772905679030721300,3.32572119140625,9.272486686706543,-0.376570463180542,0.024825535714626312
1772905679040693800,3.33569384765625,9.274879455566406,-0.376570463180542,0.024825535714626312
1772905679050670800,3.3456708984375,9.274879455566406,-0.37896329164505005,0.022432712838053703
1772905679060691500,3.35569140625,9.27009391784668,-0.376570463180542,0.020039889961481094
1772905679070673000,3.3656728515625,9.267701148986816,-0.37417763471603394,0.020039889961481094
1772905679080591000,3.375591064453125,9.265308380126953,-0.37417763471603394,0.020039889961481094
1772905679090566100,3.385566162109375,9.265308380126953,-0.37417763471603394,0.020039889961481094
1772905679100541400,3.39554150390625,9.265308380126953,-0.37417763471603394,0.020039889961481094
1772905679110516500,3.4055166015625,9.267701148986816,-0.37417763471603394,0.022432712838053703
1772905679120491000,3.415490966796875,9.267701148986816,-0.376570463180542,0.022432712838053703
1772905679130466000,3.425466064453125,9.267701148986816,-0.3813561201095581,0.022432712838053703
1772905679140432000,3.435431884765625,9.267701148986816,-0.3837489187717438,0.020039889961481094
1772905679150406000,3.445406005859375,9.265308380126953,-0.3837489187717438,0.017647067084908485
1772905679160372500,3.45537255859375,9.26291561126709,-0.3813561201095581,0.015254244208335876
1772905679170345700,3.465345703125,9.26291561126709,-0.37896329164505005,0.017647067084908485
1772905679180334600,3.47533447265625,9.265308380126953,-0.37896329164505005,0.022432712838053703
1772905679190309400,3.485309326171875,9.267701148986816,-0.376570463180542,0.024825535714626312
1772905679200285700,3.49528564453125,9.272486686706543,-0.376570463180542,0.024825535714626312
1772905679210260700,3.5052607421875,9.272486686706543,-0.376570463180542,0.024825535714626312
1772905679220241200,3.5152412109375,9.272486686706543,-0.37896329164505005,0.022432712838053703
1772905679230216700,3.525216796875,9.272486686706543,-0.37896329164505005,0.022432712838053703
1772905679240201200,3.535201171875,9.272486686706543,-0.37896329164505005,0.024825535714626312
1772905679250177800,3.545177734375,9.27009391784668,-0.37896329164505005,0.022432712838053703
1772905679260144000,3.55514404296875,9.27009391784668,-0.3813561201095581,0.022432712838053703
1772905679270119400,3.565119384765625,9.267701148986816,-0.3837489187717438,0.024825535714626312
1772905679280097000,3.575096923828125,9.265308380126953,-0.3837489187717438,0.024825535714626312
1772905679290072800,3.58507275390625,9.265308380126953,-0.3813561201095581,0.022432712838053703
1772905679300054800,3.5950546875,9.26291561126709,-0.37896329164505005,0.022432712838053703
1772905679310031000,3.605031005859375,9.26291561126709,-0.37896329164505005,0.024825535714626312
1772905679320011000,3.615010986328125,9.26291561126709,-0.37896329164505005,0.024825535714626312
1772905679329987600,3.624987548828125,9.265308380126953,-0.3837489187717438,0.022432712838053703
1772905679339960800,3.6349609375,9.265308380126953,-0.3837489187717438,0.020039889961481094
1772905679349937200,3.644937255859375,9.267701148986816,-0.3837489187717438,0.020039889961481094
1772905679359944200,3.654944091796875,9.27009391784668,-0.3813561201095581,0.020039889961481094
1772905679369923600,3.664923583984375,9.27009391784668,-0.37896329164505005,0.020039889961481094
1772905679379888400,3.674888427734375,9.27009391784668,-0.3813561201095581,0.020039889961481094
1772905679389866200,3.6848662109375,9.267701148986816,-0.3837489187717438,0.020039889961481094
1772905679400046300,3.69504638671875,9.267701148986816,-0.3837489187717438,0.017647067084908485
1772905679410136000,3.705135986328125,9.267701148986816,-0.3837489187717438,0.015254244208335876
1772905679420088300,3.71508837890625,9.265308380126953,-0.3837489187717438,0.017647067084908485
1772905679430090200,3.72509033203125,9.26291561126709,-0.3837489187717438,0.017647067084908485
1772905679439910100,3.73491015625,9.265308380126953,-0.3813561201095581,0.015254244208335876
1772905679449748500,3.74474853515625,9.267701148986816,-0.3813561201095581,0.015254244208335876
1772905679459781400,3.754781494140625,9.27009391784668,-0.37896329164505005,0.017647067084908485
1772905679469758000,3.764758056640625,9.27009391784668,-0.376570463180542,0.017647067084908485
1772905679479754000,3.77475390625,9.267701148986816,-0.376570463180542,0.022432712838053703
1772905679489732600,3.784732666015625,9.265308380126953,-0.37896329164505005,0.022432712838053703
1772905679499678500,3.794678466796875,9.265308380126953,-0.37896329164505005,0.024825535714626312
1772905679509653800,3.80465380859375,9.267701148986816,-0.3813561201095581,0.027218356728553772
1772905679519614200,3.8146142578125,9.267701148986816,-0.3813561201095581,0.024825535714626312
1772905679529588000,3.824587890625,9.265308380126953,-0.3837489187717438,0.020039889961481094
1772905679539568600,3.834568603515625,9.267701148986816,-0.3837489187717438,0.017647067084908485
1772905679549543000,3.84454296875,9.267701148986816,-0.3837489187717438,0.017647067084908485
1772905679559484200,3.854484130859375,9.267701148986816,-0.3837489187717438,0.020039889961481094
1772905679569455000,3.864455078125,9.267701148986816,-0.3813561201095581,0.024825535714626312
1772905679579389000,3.874388916015625,9.267701148986816,-0.37896329164505005,0.027218356728553772
1772905679589356000,3.88435595703125,9.265308380126953,-0.37896329164505005,0.027218356728553772
1772905679599325200,3.8943251953125,9.267701148986816,-0.3813561201095581,0.024825535714626312
1772905679609292500,3.90429248046875,9.267701148986816,-0.3813561201095581,0.020039889961481094
1772905679619276000,3.914276123046875,9.27009391784668,-0.3813561201095581,0.017647067084908485
1772905679629245200,3.9242451171875,9.272486686706543,-0.3813561201095581,0.020039889961481094
1772905679639224000,3.93422412109375,9.272486686706543,-0.3837489187717438,0.022432712838053703
1772905679649194000,3.944194091796875,9.272486686706543,-0.3813561201095581,0.024825535714626312
1772905679659170000,3.954170166015625,9.267701148986816,-0.3813561201095581,0.024825535714626312
1772905679669140500,3.964140380859375,9.265308380126953,-0.3813561201095581,0.020039889961481094
1772905679679117300,3.974117431640625,9.265308380126953,-0.3837489187717438,0.020039889961481094
1772905679689088500,3.984088623046875,9.267701148986816,-0.3837489187717438,0.020039889961481094
1772905679699083800,3.994083740234375,9.27009391784668,-0.3837489187717438,0.024825535714626312
1772905679709057500,4.0040576171875,9.272486686706543,-0.3813561201095581,0.024825535714626312
1772905679719028000,4.014028076171875,9.272486686706543,-0.37896329164505005,0.020039889961481094
1772905679729001200,4.024001220703125,9.272486686706543,-0.376570463180542,0.017647067084908485
1772905679738986200,4.033986328125,9.272486686706543,-0.37896329164505005,0.017647067084908485
1772905679748960800,4.043960693359375,9.27009391784668,-0.37896329164505005,0.022432712838053703
1772905679758956500,4.05395654296875,9.267701148986816,-0.37896329164505005,0.024825535714626312
1772905679768933400,4.063933349609375,9.267701148986816,-0.3813561201095581,0.027218356728553772
1772905679779113200,4.07411328125,9.27009391784668,-0.3837489187717438,0.027218356728553772
1772905679789260800,4.0842607421875,9.27009391784668,-0.3837489187717438,0.024825535714626312
1772905679799195100,4.094195068359375,9.27009391784668,-0.3813561201095581,0.022432712838053703
1772905679809199000,4.10419921875,9.272486686706543,-0.37896329164505005,0.020039889961481094
1772905679819120400,4.114120361328125,9.272486686706543,-0.37896329164505005,0.020039889961481094
1772905679829116000,4.124115966796875,9.272486686706543,-0.376570463180542,0.017647067084908485
1772905679839075600,4.13407568359375,9.272486686706543,-0.37417763471603394,0.017647067084908485
1772905679849067500,4.144067626953125,9.272486686706543,-0.376570463180542,0.020039889961481094
1772905679859033300,4.154033447265625,9.272486686706543,-0.376570463180542,0.020039889961481094
1772905679869022500,4.1640224609375,9.27009391784668,-0.376570463180542,0.022432712838053703
1772905679878989000,4.173989013671875,9.265308380126953,-0.37417763471603394,0.024825535714626312
1772905679888976100,4.18397607421875,9.265308380126953,-0.3717848062515259,0.024825535714626312
1772905679898945800,4.19394580078125,9.265308380126953,-0.36699917912483215,0.022432712838053703
1772905679908931000,4.20393115234375,9.265308380126953,-0.36699917912483215,0.022432712838053703
1772905679918751000,4.2137509765625,9.267701148986816,-0.3693920075893402,0.020039889961481094
1772905679928551400,4.223551513671875,9.27009391784668,-0.3717848062515259,0.022432712838053703
1772905679938561300,4.233561279296875,9.27009391784668,-0.376570463180542,0.022432712838053703
1772905679948520200,4.243520263671875,9.27009391784668,-0.376570463180542,0.020039889961481094
1772905679958700300,4.2537001953125,9.267701148986816,-0.37417763471603394,0.017647067084908485
1772905679968812500,4.2638125,9.265308380126953,-0.37417763471603394,0.015254244208335876
1772905679978765600,4.273765625,9.26291561126709,-0.37417763471603394,0.017647067084908485
1772905679988755500,4.28375537109375,9.265308380126953,-0.37417763471603394,0.020039889961481094
1772905679998575600,4.29357568359375,9.267701148986816,-0.376570463180542,0.027218356728553772
1772905680008381700,4.303381591796875,9.27009391784668,-0.376570463180542,0.02961117960512638
1772905680018378000,4.3133779296875,9.27009391784668,-0.376570463180542,0.027218356728553772
1772905680028339500,4.32333935546875,9.267701148986816,-0.376570463180542,0.027218356728553772
1772905680038519600,4.33351953125,9.267701148986816,-0.376570463180542,0.024825535714626312
1772905680048627000,4.343626953125,9.265308380126953,-0.376570463180542,0.022432712838053703
1772905680058447000,4.353447021484375,9.265308380126953,-0.376570463180542,0.022432712838053703
1772905680068267000,4.36326708984375,9.265308380126953,-0.37896329164505005,0.022432712838053703
1772905680078228000,4.37322802734375,9.265308380126953,-0.37896329164505005,0.024825535714626312
1772905680088192000,4.38319189453125,9.265308380126953,-0.3813561201095581,0.027218356728553772
1772905680098194200,4.393194091796875,9.267701148986816,-0.3813561201095581,0.027218356728553772
1772905680108161800,4.403161865234375,9.27009391784668,-0.3837489187717438,0.024825535714626312
1772905680118144500,4.41314453125,9.27009391784668,-0.3813561201095581,0.022432712838053703
1772905680128113700,4.42311376953125,9.27009391784668,-0.3813561201095581,0.022432712838053703
1772905680138097200,4.43309716796875,9.27009391784668,-0.37896329164505005,0.022432712838053703
1772905680148067800,4.44306787109375,9.267701148986816,-0.376570463180542,0.024825535714626312
1772905680158248000,4.453248046875,9.265308380126953,-0.376570463180542,0.024825535714626312
1772905680168360000,4.46335986328125,9.26291561126709,-0.37896329164505005,0.024825535714626312
1772905680178180000,4.47318017578125,9.26291561126709,-0.37896329164505005,0.024825535714626312
1772905680187986700,4.482986572265625,9.265308380126953,-0.37896329164505005,0.022432712838053703
1772905680197985300,4.4929853515625,9.265308380126953,-0.376570463180542,0.022432712838053703
1772905680207957200,4.502957275390625,9.267701148986816,-0.37417763471603394,0.022432712838053703
1772905680217950700,4.51295068359375,9.267701148986816,-0.3717848062515259,0.022432712838053703
1772905680227925000,4.522925048828125,9.265308380126953,-0.3717848062515259,0.020039889961481094
1772905680238104800,4.533104736328125,9.26291561126709,-0.3717848062515259,0.020039889961481094
1772905680248201700,4.54320166015625,9.26291561126709,-0.37417763471603394,0.020039889961481094
1772905680258022000,4.55302197265625,9.26291561126709,-0.376570463180542,0.017647067084908485
1772905680267841800,4.562841796875,9.265308380126953,-0.376570463180542,0.020039889961481094
1772905680278022000,4.57302197265625,9.267701148986816,-0.37896329164505005,0.020039889961481094
1772905680288112400,4.5831123046875,9.267701148986816,-0.3813561201095581,0.020039889961481094
1772905680298068500,4.593068359375,9.267701148986816,-0.37896329164505005,0.020039889961481094
1772905680308066300,4.60306640625,9.267701148986816,-0.37896329164505005,0.017647067084908485
1772905680317886200,4.61288623046875,9.267701148986816,-0.37896329164505005,0.017647067084908485
1772905680327690800,4.622690673828125,9.265308380126953,-0.37896329164505005,0.020039889961481094
1772905680337683200,4.63268310546875,9.267701148986816,-0.37896329164505005,0.020039889961481094
1772905680347649800,4.64264990234375,9.267701148986816,-0.376570463180542,0.020039889961481094
1772905680357628000,4.6526279296875,9.267701148986816,-0.376570463180542,0.020039889961481094
1772905680367595800,4.662595703125,9.267701148986816,-0.376570463180542,0.020039889961481094
1772905680377580500,4.67258056640625,9.265308380126953,-0.37896329164505005,0.017647067084908485
1772905680387550200,4.68255029296875,9.265308380126953,-0.3813561201095581,0.017647067084908485
1772905680397730000,4.69272998046875,9.267701148986816,-0.3813561201095581,0.017647067084908485
1772905680407839500,4.702839599609375,9.27009391784668,-0.3837489187717438,0.017647067084908485
1772905680417659400,4.712659423828125,9.27009391784668,-0.3837489187717438,0.020039889961481094
1772905680427473400,4.722473388671875,9.267701148986816,-0.3837489187717438,0.022432712838053703
1772905680437653500,4.732653564453125,9.267701148986816,-0.3837489187717438,0.024825535714626312
1772905680447735600,4.742735595703125,9.265308380126953,-0.3837489187717438,0.022432712838053703
1772905680457702400,4.752702392578125,9.267701148986816,-0.3837489187717438,0.022432712838053703
1772905680467698200,4.7626982421875,9.265308380126953,-0.3813561201095581,0.022432712838053703
1772905680477673500,4.772673583984375,9.265308380126953,-0.37896329164505005,0.022432712838053703
1772905680487667200,4.782667236328125,9.265308380126953,-0.376570463180542,0.022432712838053703
1772905680497487000,4.792487060546875,9.267701148986816,-0.376570463180542,0.017647067084908485
1772905680507313400,4.8023134765625,9.267701148986816,-0.37417763471603394,0.017647067084908485
1772905680517493200,4.8124931640625,9.27009391784668,-0.376570463180542,0.017647067084908485
1772905680527587800,4.822587890625,9.27009391784668,-0.37896329164505005,0.017647067084908485
1772905680537542400,4.83254248046875,9.267701148986816,-0.3813561201095581,0.020039889961481094
1772905680547533300,4.842533203125,9.265308380126953,-0.3837489187717438,0.024825535714626312
1772905680557523200,4.852523193359375,9.265308380126953,-0.3837489187717438,0.024825535714626312
1772905680567514400,4.862514404296875,9.26291561126709,-0.3813561201095581,0.024825535714626312
1772905680577334300,4.872334228515625,9.26291561126709,-0.37417763471603394,0.024825535714626312
1772905680587163600,4.88216357421875,9.267701148986816,-0.3717848062515259,0.022432712838053703
1772905680597229600,4.8922294921875,9.27009391784668,-0.3717848062515259,0.022432712838053703
1772905680607201000,4.902200927734375,9.27009391784668,-0.37417763471603394,0.020039889961481094
1772905680617277400,4.91227734375,9.27009391784668,-0.376570463180542,0.020039889961481094
1772905680627259600,4.922259765625,9.27009391784668,-0.37896329164505005,0.017647067084908485
1772905680637225000,4.932224853515625,9.267701148986816,-0.376570463180542,0.017647067084908485
1772905680647205400,4.942205322265625,9.265308380126953,-0.376570463180542,0.020039889961481094
1772905680657239300,4.9522392578125,9.26291561126709,-0.376570463180542,0.020039889961481094
1772905680667225000,4.96222509765625,9.265308380126953,-0.376570463180542,0.020039889961481094
1772905680677202400,4.972202392578125,9.265308380126953,-0.376570463180542,0.020039889961481094
1772905680687187500,4.9821875,9.267701148986816,-0.37896329164505005,0.015254244208335876
1772905680697194200,4.9921943359375,9.27009391784668,-0.3813561201095581,0.017647067084908485
1772905680707181300,5.002181396484375,9.27009391784668,-0.3813561201095581,0.020039889961481094
1772905680717001500,5.01200146484375,9.27009391784668,-0.37896329164505005,0.024825535714626312
1772905680726930000,5.021929931640625,9.27009391784668,-0.376570463180542,0.027218356728553772
1772905680736910800,5.031910888671875,9.267701148986816,-0.37896329164505005,0.024825535714626312
1772905680746878700,5.041878662109375,9.267701148986816,-0.37896329164505005,0.022432712838053703
1772905680757058800,5.052058837890625,9.265308380126953,-0.37896329164505005,0.020039889961481094
1772905680767243500,5.062243408203125,9.265308380126953,-0.3813561201095581,0.020039889961481094
1772905680787259000,5.0822587890625,9.27009391784668,-0.3813561201095581,0.020039889961481094
1772905680797264000,5.092263916015625,9.272486686706543,-0.3813561201095581,0.022432712838053703
1772905680807268600,5.1022685546875,9.272486686706543,-0.37896329164505005,0.022432712838053703
1772905680817267000,5.112266845703125,9.274879455566406,-0.3813561201095581,0.020039889961481094
1772905680827271400,5.122271484375,9.272486686706543,-0.3813561201095581,0.017647067084908485
1772905680837276000,5.13227587890625,9.27009391784668,-0.3813561201095581,0.017647067084908485
1772905680847095800,5.142095703125,9.267701148986816,-0.3813561201095581,0.017647067084908485
1772905680856915700,5.151915771484375,9.267701148986816,-0.37896329164505005,0.020039889961481094
1772905680866720300,5.16172021484375,9.267701148986816,-0.37417763471603394,0.020039889961481094
1772905680876700200,5.1717001953125,9.267701148986816,-0.37417763471603394,0.022432712838053703
1772905680886880300,5.18188037109375,9.267701148986816,-0.37417763471603394,0.024825535714626312
1772905680896939000,5.19193896484375,9.267701148986816,-0.376570463180542,0.024825535714626312
1772905680906942200,5.201942138671875,9.267701148986816,-0.3813561201095581,0.022432712838053703
1772905680916762000,5.21176220703125,9.265308380126953,-0.3813561201095581,0.020039889961481094
1772905680926680000,5.22168017578125,9.265308380126953,-0.37896329164505005,0.017647067084908485
1772905680936667600,5.231667724609375,9.265308380126953,-0.37896329164505005,0.017647067084908485
1772905680946652400,5.24165234375,9.265308380126953,-0.37896329164505005,0.017647067084908485
1772905680956731100,5.251731201171875,9.265308380126953,-0.37896329164505005,0.017647067084908485
1772905680966725400,5.261725341796875,9.265308380126953,-0.3813561201095581,0.020039889961481094
1772905680976545500,5.271545654296875,9.265308380126953,-0.3813561201095581,0.020039889961481094
1772905680986388500,5.281388427734375,9.265308380126953,-0.37896329164505005,0.022432712838053703
1772905680996379400,5.29137939453125,9.265308380126953,-0.37896329164505005,0.020039889961481094
1772905681006346800,5.3013466796875,9.267701148986816,-0.37896329164505005,0.020039889961481094
1772905681016457200,5.311457275390625,9.27009391784668,-0.37896329164505005,0.020039889961481094
1772905681026439400,5.321439453125,9.27009391784668,-0.37896329164505005,0.024825535714626312
1772905681036368400,5.331368408203125,9.267701148986816,-0.37896329164505005,0.024825535714626312
1772905681046345000,5.341344970703125,9.267701148986816,-0.3813561201095581,0.024825535714626312
1772905681056290000,5.3512900390625,9.27009391784668,-0.3837489187717438,0.024825535714626312
1772905681066263600,5.361263671875,9.272486686706543,-0.3837489187717438,0.022432712838053703
1772905681076251400,5.37125146484375,9.27009391784668,-0.3813561201095581,0.022432712838053703
1772905681086226200,5.38122607421875,9.267701148986816,-0.37896329164505005,0.022432712838053703
1772905681096202800,5.39120263671875,9.26291561126709,-0.37896329164505005,0.020039889961481094
1772905681106177800,5.401177734375,9.26291561126709,-0.3813561201095581,0.020039889961481094
1772905681116204500,5.41120458984375,9.265308380126953,-0.3813561201095581,0.020039889961481094
1772905681126185000,5.42118505859375,9.265308380126953,-0.37896329164505005,0.022432712838053703
1772905681136071400,5.431071533203125,9.267701148986816,-0.3813561201095581,0.024825535714626312
1772905681146042000,5.4410419921875,9.267701148986816,-0.3813561201095581,0.022432712838053703
1772905681156011300,5.45101123046875,9.267701148986816,-0.37896329164505005,0.020039889961481094
1772905681165981700,5.460981689453125,9.265308380126953,-0.376570463180542,0.017647067084908485
1772905681175965700,5.470965576171875,9.26291561126709,-0.376570463180542,0.017647067084908485
1772905681185937700,5.480937744140625,9.26291561126709,-0.37896329164505005,0.020039889961481094
1772905681195917800,5.490917724609375,9.265308380126953,-0.3837489187717438,0.024825535714626312
1772905681205890800,5.500890869140625,9.267701148986816,-0.3837489187717438,0.027218356728553772
1772905681215890200,5.51089013671875,9.267701148986816,-0.3837489187717438,0.02961117960512638
1772905681225865700,5.52086572265625,9.267701148986816,-0.3813561201095581,0.027218356728553772
1772905681235830000,5.530830078125,9.267701148986816,-0.37896329164505005,0.024825535714626312
1772905681245804300,5.54080419921875,9.265308380126953,-0.37896329164505005,0.022432712838053703
1772905681255783700,5.55078369140625,9.26291561126709,-0.3813561201095581,0.020039889961481094
1772905681265758500,5.560758544921875,9.26291561126709,-0.3813561201095581,0.020039889961481094
1772905681275735800,5.57073583984375,9.265308380126953,-0.3813561201095581,0.020039889961481094
1772905681285710800,5.5807109375,9.265308380126953,-0.3813561201095581,0.017647067084908485
1772905681295669200,5.590669189453125,9.26291561126709,-0.3813561201095581,0.020039889961481094
1772905681305642800,5.600642822265625,9.26291561126709,-0.3813561201095581,0.020039889961481094
1772905681315637000,5.610636962890625,9.26291561126709,-0.37896329164505005,0.022432712838053703
1772905681325612500,5.620612548828125,9.265308380126953,-0.37896329164505005,0.020039889961481094
1772905681335591200,5.630591064453125,9.267701148986816,-0.37896329164505005,0.022432712838053703
1772905681345567000,5.64056689453125,9.267701148986816,-0.376570463180542,0.022432712838053703
1772905681355591200,5.650591064453125,9.27009391784668,-0.376570463180542,0.024825535714626312
1772905681365572000,5.660572021484375,9.27009391784668,-0.376570463180542,0.027218356728553772
1772905681375529000,5.670529052734375,9.267701148986816,-0.37896329164505005,0.027218356728553772
1772905681385507300,5.68050732421875,9.267701148986816,-0.3813561201095581,0.027218356728553772
1772905681395451600,5.69045166015625,9.267701148986816,-0.3813561201095581,0.024825535714626312
1772905681405426400,5.700426513671875,9.267701148986816,-0.3813561201095581,0.020039889961481094
1772905681415419000,5.7104189453125,9.267701148986816,-0.3813561201095581,0.017647067084908485
1772905681425395500,5.7203955078125,9.267701148986816,-0.37896329164505005,0.017647067084908485
1772905681435374600,5.73037451171875,9.267701148986816,-0.376570463180542,0.017647067084908485
1772905681445351400,5.740351318359375,9.265308380126953,-0.376570463180542,0.017647067084908485
1772905681455336200,5.750336181640625,9.265308380126953,-0.376570463180542,0.020039889961481094
1772905681465313800,5.760313720703125,9.265308380126953,-0.37896329164505005,0.020039889961481094
1772905681475295000,5.770294921875,9.265308380126953,-0.3813561201095581,0.020039889961481094
1772905681485272800,5.78027294921875,9.267701148986816,-0.3813561201095581,0.022432712838053703
1772905681495253000,5.7902529296875,9.267701148986816,-0.3813561201095581,0.024825535714626312
1772905681505231000,5.800231201171875,9.27009391784668,-0.37896329164505005,0.024825535714626312
1772905681515216400,5.81021630859375,9.27009391784668,-0.37896329164505005,0.027218356728553772
1772905681525195500,5.820195556640625,9.27009391784668,-0.37896329164505005,0.027218356728553772
1772905681535175400,5.830175537109375,9.27009391784668,-0.3813561201095581,0.027218356728553772
1772905681545154600,5.840154541015625,9.27009391784668,-0.3813561201095581,0.024825535714626312
1772905681555125000,5.850125,9.27009391784668,-0.3813561201095581,0.024825535714626312
1772905681565103400,5.860103271484375,9.272486686706543,-0.37896329164505005,0.024825535714626312
1772905681575078100,5.870078125,9.272486686706543,-0.37896329164505005,0.022432712838053703
1772905681585056300,5.88005615234375,9.272486686706543,-0.37896329164505005,0.022432712838053703
1772905681595035000,5.890034912109375,9.27009391784668,-0.376570463180542,0.022432712838053703
1772905681605012700,5.9000126953125,9.27009391784668,-0.37417763471603394,0.022432712838053703
1772905681614995700,5.90999560546875,9.27009391784668,-0.37417763471603394,0.022432712838053703
1772905681624974300,5.919974365234375,9.267701148986816,-0.376570463180542,0.022432712838053703
1772905681634948400,5.9299482421875,9.267701148986816,-0.37896329164505005,0.022432712838053703
1772905681644926500,5.939926513671875,9.267701148986816,-0.3837489187717438,0.024825535714626312
1772905681654896400,5.949896484375,9.265308380126953,-0.3837489187717438,0.022432712838053703
1772905681664873700,5.959873779296875,9.26291561126709,-0.3813561201095581,0.022432712838053703
1772905681674855000,5.96985498046875,9.26291561126709,-0.3813561201095581,0.020039889961481094
1772905681684832500,5.97983251953125,9.265308380126953,-0.376570463180542,0.020039889961481094
1772905681694795000,5.989794921875,9.265308380126953,-0.376570463180542,0.020039889961481094
1772905681704771000,5.99977099609375,9.26291561126709,-0.376570463180542,0.022432712838053703
1772905681714738400,6.009738525390625,9.26291561126709,-0.376570463180542,0.024825535714626312
1772905681724713700,6.019713623046875,9.26291561126709,-0.37896329164505005,0.022432712838053703
1772905681734698500,6.029698486328125,9.26291561126709,-0.37896329164505005,0.020039889961481094
1772905681744674800,6.0396748046875,9.26291561126709,-0.3813561201095581,0.017647067084908485
1772905681754657500,6.049657470703125,9.260522842407227,-0.3813561201095581,0.017647067084908485
1772905681764634400,6.05963427734375,9.260522842407227,-0.376570463180542,0.020039889961481094
1772905681774622700,6.069622802734375,9.260522842407227,-0.376570463180542,0.020039889961481094
1772905681784600600,6.0796005859375,9.26291561126709,-0.376570463180542,0.020039889961481094
1772905681794587600,6.089587646484375,9.265308380126953,-0.376570463180542,0.022432712838053703
1772905681804566500,6.09956640625,9.267701148986816,-0.376570463180542,0.020039889961481094
1772905681814515500,6.109515380859375,9.27009391784668,-0.376570463180542,0.020039889961481094
1772905681824491300,6.1194912109375,9.27009391784668,-0.37417763471603394,0.017647067084908485
1772905681834453500,6.12945361328125,9.267701148986816,-0.37417763471603394,0.020039889961481094
1772905681844428000,6.139427978515625,9.267701148986816,-0.3717848062515259,0.020039889961481094
1772905681854400800,6.14940087890625,9.267701148986816,-0.3717848062515259,0.020039889961481094
1772905681864375000,6.159375,9.267701148986816,-0.37417763471603394,0.022432712838053703
1772905681874355000,6.16935498046875,9.267701148986816,-0.376570463180542,0.022432712838053703
1772905681884329700,6.179329833984375,9.27009391784668,-0.37896329164505005,0.027218356728553772
1772905681894308600,6.18930859375,9.27009391784668,-0.3813561201095581,0.027218356728553772
1772905681904284000,6.199283935546875,9.267701148986816,-0.3837489187717438,0.027218356728553772
1772905681914255400,6.20925537109375,9.267701148986816,-0.3885345757007599,0.024825535714626312
1772905681924230100,6.219230224609375,9.265308380126953,-0.38614174723625183,0.024825535714626312
1772905681934220500,6.229220458984375,9.265308380126953,-0.3837489187717438,0.024825535714626312
1772905681944196900,6.23919677734375,9.265308380126953,-0.37896329164505005,0.027218356728553772
1772905681954172200,6.249172119140625,9.265308380126953,-0.37896329164505005,0.027218356728553772
1772905681964148500,6.2591484375,9.26291561126709,-0.37896329164505005,0.024825535714626312
1772905681974131200,6.269131103515625,9.26291561126709,-0.37896329164505005,0.022432712838053703
1772905681984108000,6.27910791015625,9.26291561126709,-0.3837489187717438,0.022432712838053703
1772905681994288000,6.2892880859375,9.265308380126953,-0.3837489187717438,0.022432712838053703
1772905682004396500,6.299396484375,9.267701148986816,-0.3837489187717438,0.022432712838053703
1772905682014216400,6.309216552734375,9.267701148986816,-0.3837489187717438,0.022432712838053703
1772905682024031000,6.319031005859375,9.27009391784668,-0.37896329164505005,0.020039889961481094
1772905682034022400,6.3290224609375,9.27009391784668,-0.37896329164505005,0.020039889961481094
1772905682043997700,6.338997802734375,9.27009391784668,-0.37896329164505005,0.020039889961481094
1772905682053989000,6.348989013671875,9.267701148986816,-0.37896329164505005,0.022432712838053703
1772905682063966000,6.358966064453125,9.267701148986816,-0.3813561201095581,0.022432712838053703
1772905682073943600,6.368943603515625,9.267701148986816,-0.37896329164505005,0.022432712838053703
1772905682083920400,6.37892041015625,9.27009391784668,-0.37896329164505005,0.022432712838053703
1772905682093889500,6.3888896484375,9.272486686706543,-0.37896329164505005,0.022432712838053703
1772905682103865600,6.398865478515625,9.272486686706543,-0.37896329164505005,0.022432712838053703
1772905682113836000,6.4088359375,9.272486686706543,-0.3813561201095581,0.022432712838053703
1772905682123811600,6.4188115234375,9.267701148986816,-0.3837489187717438,0.022432712838053703
1772905682133788000,6.428787841796875,9.267701148986816,-0.3837489187717438,0.022432712838053703
1772905682143763500,6.438763427734375,9.267701148986816,-0.3837489187717438,0.024825535714626312
1772905682153747200,6.448747314453125,9.265308380126953,-0.3813561201095581,0.024825535714626312
1772905682163723800,6.458723876953125,9.265308380126953,-0.3813561201095581,0.027218356728553772
1772905682173690400,6.4686904296875,9.265308380126953,-0.37896329164505005,0.027218356728553772
1772905682183666000,6.478666015625,9.267701148986816,-0.37896329164505005,0.024825535714626312
1772905682193634600,6.488634521484375,9.267701148986816,-0.376570463180542,0.022432712838053703
1772905682203609300,6.498609375,9.27009391784668,-0.37417763471603394,0.017647067084908485
1772905682213578200,6.508578125,9.27009391784668,-0.376570463180542,0.017647067084908485
1772905682223552500,6.518552490234375,9.272486686706543,-0.37896329164505005,0.020039889961481094
1772905682233522000,6.52852197265625,9.272486686706543,-0.3813561201095581,0.022432712838053703
1772905682243495700,6.53849560546875,9.274879455566406,-0.3837489187717438,0.022432712838053703
1772905682253477600,6.5484775390625,9.274879455566406,-0.3837489187717438,0.022432712838053703
1772905682263452200,6.5584521484375,9.274879455566406,-0.3813561201095581,0.020039889961481094
1772905682273423600,6.568423583984375,9.272486686706543,-0.37896329164505005,0.020039889961481094
1772905682283398000,6.57839794921875,9.27009391784668,-0.37896329164505005,0.020039889961481094
1772905682293577700,6.58857763671875,9.267701148986816,-0.37896329164505005,0.020039889961481094
1772905682303692800,6.59869287109375,9.267701148986816,-0.3813561201095581,0.022432712838053703
1772905682313512700,6.6085126953125,9.267701148986816,-0.3813561201095581,0.022432712838053703
1772905682323328000,6.618327880859375,9.267701148986816,-0.3837489187717438,0.027218356728553772
1772905682333315300,6.6283154296875,9.27009391784668,-0.3837489187717438,0.027218356728553772
1772905682343289000,6.6382890625,9.27009391784668,-0.3813561201095581,0.027218356728553772
1772905682353241000,6.648240966796875,9.27009391784668,-0.37896329164505005,0.024825535714626312
1772905682363212500,6.658212646484375,9.267701148986816,-0.37896329164505005,0.020039889961481094
1772905682373184500,6.6681845703125,9.267701148986816,-0.37896329164505005,0.017647067084908485
1772905682383156000,6.678156005859375,9.267701148986816,-0.37896329164505005,0.017647067084908485
1772905682393132000,6.688132080078125,9.27009391784668,-0.37896329164505005,0.020039889961481094
1772905682403104000,6.69810400390625,9.27009391784668,-0.37896329164505005,0.022432712838053703
1772905682413089000,6.708089111328125,9.27009391784668,-0.3813561201095581,0.022432712838053703
1772905682423062500,6.7180625,9.27009391784668,-0.3813561201095581,0.022432712838053703
1772905682433021400,6.728021484375,9.27009391784668,-0.3837489187717438,0.022432712838053703
1772905682442993200,6.7379931640625,9.272486686706543,-0.38614174723625183,0.024825535714626312
1772905682452978000,6.74797802734375,9.272486686706543,-0.3885345757007599,0.024825535714626312
1772905682462951000,6.757950927734375,9.27009391784668,-0.3885345757007599,0.024825535714626312
1772905682472919000,6.7679189453125,9.27009391784668,-0.3837489187717438,0.022432712838053703
1772905682482891800,6.777891845703125,9.27009391784668,-0.37896329164505005,0.017647067084908485
1772905682492872700,6.787872802734375,9.272486686706543,-0.376570463180542,0.017647067084908485
1772905682502846200,6.79784619140625,9.272486686706543,-0.376570463180542,0.020039889961481094
1772905682512827000,6.807826904296875,9.272486686706543,-0.37896329164505005,0.020039889961481094
1772905682522801200,6.81780126953125,9.272486686706543,-0.3813561201095581,0.020039889961481094
1772905682532981000,6.82798095703125,9.272486686706543,-0.3813561201095581,0.020039889961481094
1772905682543085600,6.83808544921875,9.272486686706543,-0.3813561201095581,0.020039889961481094
1772905682552905700,6.84790576171875,9.272486686706543,-0.3813561201095581,0.022432712838053703
1772905682562725600,6.8577255859375,9.27009391784668,-0.3813561201095581,0.022432712838053703
1772905682572905700,6.86790576171875,9.267701148986816,-0.3837489187717438,0.022432712838053703
1772905682582979000,6.87797900390625,9.267701148986816,-0.3837489187717438,0.022432712838053703
1772905682592799200,6.88779931640625,9.27009391784668,-0.3837489187717438,0.022432712838053703
1772905682602627600,6.897627685546875,9.27009391784668,-0.3837489187717438,0.024825535714626312
1772905682612807700,6.9078076171875,9.267701148986816,-0.3837489187717438,0.024825535714626312
1772905682622882800,6.9178828125,9.265308380126953,-0.3813561201095581,0.024825535714626312
1772905682632702700,6.92770263671875,9.265308380126953,-0.3813561201095581,0.024825535714626312
1772905682642522600,6.937522705078125,9.26291561126709,-0.3813561201095581,0.024825535714626312
1772905682652494800,6.947494873046875,9.265308380126953,-0.3813561201095581,0.022432712838053703
1772905682662462200,6.957462158203125,9.265308380126953,-0.3813561201095581,0.022432712838053703
1772905682672642000,6.96764208984375,9.265308380126953,-0.3837489187717438,0.020039889961481094
1772905682682762000,6.977761962890625,9.267701148986816,-0.3837489187717438,0.017647067084908485
1772905682692582000,6.987581787109375,9.272486686706543,-0.37896329164505005,0.017647067084908485
1772905682702383900,6.9973837890625,9.272486686706543,-0.37417763471603394,0.020039889961481094
1772905682712385300,7.00738525390625,9.272486686706543,-0.37417763471603394,0.020039889961481094
1772905682722355500,7.01735546875,9.27009391784668,-0.376570463180542,0.020039889961481094
1772905682732338700,7.027338623046875,9.267701148986816,-0.3813561201095581,0.020039889961481094
1772905682742310100,7.03731005859375,9.267701148986816,-0.3837489187717438,0.022432712838053703
1772905682752296400,7.04729638671875,9.27009391784668,-0.3837489187717438,0.024825535714626312
1772905682762269400,7.05726953125,9.27009391784668,-0.3837489187717438,0.027218356728553772
1772905682772248600,7.06724853515625,9.27009391784668,-0.3813561201095581,0.027218356728553772
1772905682782222000,7.07722216796875,9.267701148986816,-0.37896329164505005,0.027218356728553772
1772905682792198700,7.08719873046875,9.267701148986816,-0.37896329164505005,0.024825535714626312
1772905682802172700,7.097172607421875,9.267701148986816,-0.376570463180542,0.022432712838053703
1772905682812352500,7.1073525390625,9.267701148986816,-0.37417763471603394,0.020039889961481094
1772905682822469400,7.117469482421875,9.267701148986816,-0.376570463180542,0.020039889961481094
1772905682832289300,7.127289306640625,9.267701148986816,-0.3813561201095581,0.022432712838053703
1772905682842136000,7.137135986328125,9.265308380126953,-0.3837489187717438,0.022432712838053703
1772905682852109800,7.14710986328125,9.265308380126953,-0.38614174723625183,0.020039889961481094
1772905682862084600,7.157084716796875,9.265308380126953,-0.38614174723625183,0.020039889961481094
1772905682872061400,7.1670615234375,9.265308380126953,-0.3837489187717438,0.020039889961481094
1772905682882036500,7.177036376953125,9.265308380126953,-0.3813561201095581,0.017647067084908485
1772905682892028400,7.1870283203125,9.27009391784668,-0.3813561201095581,0.017647067084908485
1772905682902005200,7.197005126953125,9.272486686706543,-0.3813561201095581,0.017647067084908485
1772905682911946000,7.206946044921875,9.272486686706543,-0.3813561201095581,0.017647067084908485
1772905682921919200,7.216919189453125,9.272486686706543,-0.37896329164505005,0.020039889961481094
1772905682931899000,7.22689892578125,9.27009391784668,-0.376570463180542,0.022432712838053703
1772905682941872600,7.23687255859375,9.267701148986816,-0.376570463180542,0.024825535714626312
1772905682951840500,7.246840576171875,9.267701148986816,-0.37896329164505005,0.027218356728553772
1772905682961813500,7.2568134765625,9.265308380126953,-0.37896329164505005,0.024825535714626312
1772905682971794700,7.266794677734375,9.26291561126709,-0.37896329164505005,0.020039889961481094
1772905682981768700,7.276768798828125,9.26291561126709,-0.37896329164505005,0.017647067084908485
1772905682991948800,7.28694873046875,9.26291561126709,-0.376570463180542,0.017647067084908485
1772905683002051600,7.297051513671875,9.265308380126953,-0.376570463180542,0.020039889961481094
1772905683012010000,7.307010009765625,9.267701148986816,-0.37896329164505005,0.022432712838053703
1772905683022010600,7.3170107421875,9.267701148986816,-0.37896329164505005,0.022432712838053703
1772905683031830500,7.32683056640625,9.267701148986816,-0.37896329164505005,0.024825535714626312
1772905683041641000,7.336640869140625,9.265308380126953,-0.3813561201095581,0.022432712838053703
1772905683051613200,7.34661328125,9.265308380126953,-0.37896329164505005,0.022432712838053703
1772905683061580500,7.35658056640625,9.267701148986816,-0.37896329164505005,0.022432712838053703
1772905683071581400,7.36658154296875,9.267701148986816,-0.3813561201095581,0.022432712838053703
1772905683081552100,7.37655224609375,9.267701148986816,-0.3813561201095581,0.020039889961481094
1772905683091558000,7.386557861328125,9.267701148986816,-0.3837489187717438,0.015254244208335876
1772905683101532200,7.3965322265625,9.267701148986816,-0.38614174723625183,0.012861421331763268
1772905683111501600,7.40650146484375,9.27009391784668,-0.38614174723625183,0.017647067084908485
1772905683131466200,7.42646630859375,9.27009391784668,-0.3837489187717438,0.024825535714626312
1772905683161412400,7.456412353515625,9.27009391784668,-0.3813561201095581,0.020039889961481094
1772905683171392800,7.466392822265625,9.267701148986816,-0.37896329164505005,0.020039889961481094
1772905683181370400,7.476370361328125,9.267701148986816,-0.376570463180542,0.020039889961481094
1772905683191360300,7.4863603515625,9.267701148986816,-0.376570463180542,0.020039889961481094
1772905683201339100,7.496339111328125,9.267701148986816,-0.37417763471603394,0.022432712838053703
1772905683211274200,7.506274169921875,9.267701148986816,-0.376570463180542,0.024825535714626312
1772905683221248800,7.516248779296875,9.265308380126953,-0.37896329164505005,0.024825535714626312
1772905683231230500,7.52623046875,9.265308380126953,-0.37896329164505005,0.027218356728553772
1772905683241205800,7.536205810546875,9.265308380126953,-0.37896329164505005,0.027218356728553772
1772905683251188000,7.54618798828125,9.265308380126953,-0.37896329164505005,0.024825535714626312
1772905683261163800,7.556163818359375,9.265308380126953,-0.37896329164505005,0.020039889961481094
1772905683271139000,7.56613916015625,9.265308380126953,-0.376570463180542,0.017647067084908485
1772905683281115000,7.576114990234375,9.267701148986816,-0.37896329164505005,0.017647067084908485
1772905683291113000,7.586113037109375,9.27009391784668,-0.3813561201095581,0.017647067084908485
1772905683301091000,7.596091064453125,9.27009391784668,-0.3837489187717438,0.015254244208335876
1772905683311037200,7.606037109375,9.27009391784668,-0.3837489187717438,0.015254244208335876
1772905683321012000,7.616011962890625,9.27009391784668,-0.3813561201095581,0.015254244208335876
1772905683330987000,7.625987060546875,9.27009391784668,-0.37896329164505005,0.017647067084908485
1772905683340962000,7.635962158203125,9.27009391784668,-0.37896329164505005,0.022432712838053703
1772905683350944800,7.64594482421875,9.27009391784668,-0.376570463180542,0.022432712838053703
1772905683360920600,7.655920654296875,9.272486686706543,-0.37896329164505005,0.022432712838053703
1772905683370901200,7.6659013671875,9.272486686706543,-0.37896329164505005,0.020039889961481094
1772905683380877300,7.675877197265625,9.274879455566406,-0.3813561201095581,0.020039889961481094
1772905683390861800,7.68586181640625,9.274879455566406,-0.3813561201095581,0.020039889961481094
1772905683400839000,7.6958388671875,9.274879455566406,-0.3837489187717438,0.017647067084908485
1772905683410829800,7.705829833984375,9.272486686706543,-0.3837489187717438,0.017647067084908485
1772905683420808200,7.71580810546875,9.27009391784668,-0.3813561201095581,0.017647067084908485
1772905683430794200,7.725794189453125,9.27009391784668,-0.37896329164505005,0.017647067084908485
1772905683440773600,7.735773681640625,9.267701148986816,-0.376570463180542,0.017647067084908485
1772905683450750000,7.74575,9.267701148986816,-0.376570463180542,0.022432712838053703
1772905683460729000,7.75572900390625,9.27009391784668,-0.376570463180542,0.027218356728553772
1772905683470707700,7.765707763671875,9.27009391784668,-0.37896329164505005,0.027218356728553772
1772905683480686600,7.7756865234375,9.272486686706543,-0.37896329164505005,0.024825535714626312
1772905683490651600,7.785651611328125,9.27009391784668,-0.37896329164505005,0.022432712838053703
1772905683500629200,7.795629150390625,9.27009391784668,-0.37896329164505005,0.017647067084908485
1772905683510595000,7.805594970703125,9.27009391784668,-0.3813561201095581,0.015254244208335876
1772905683520571400,7.8155712890625,9.27009391784668,-0.3813561201095581,0.015254244208335876
1772905683530547700,7.825547607421875,9.27009391784668,-0.3813561201095581,0.017647067084908485
1772905683540524000,7.83552392578125,9.267701148986816,-0.37896329164505005,0.020039889961481094
1772905683550511000,7.845510986328125,9.267701148986816,-0.37896329164505005,0.022432712838053703
1772905683560488400,7.855488525390625,9.267701148986816,-0.37896329164505005,0.024825535714626312
1772905683570479000,7.86547900390625,9.27009391784668,-0.3813561201095581,0.024825535714626312
1772905683580457700,7.875457763671875,9.272486686706543,-0.3813561201095581,0.024825535714626312
1772905683590440400,7.8854404296875,9.274879455566406,-0.3813561201095581,0.022432712838053703
1772905683600419600,7.895419677734375,9.272486686706543,-0.37896329164505005,0.020039889961481094
1772905683610405000,7.905405029296875,9.27009391784668,-0.37896329164505005,0.020039889961481094
1772905683620385000,7.915385009765625,9.267701148986816,-0.37896329164505005,0.020039889961481094
1772905683630367200,7.9253671875,9.267701148986816,-0.3813561201095581,0.022432712838053703
1772905683640347400,7.935347412109375,9.267701148986816,-0.3837489187717438,0.020039889961481094
1772905683650330600,7.94533056640625,9.267701148986816,-0.3837489187717438,0.017647067084908485
1772905683660311000,7.95531103515625,9.267701148986816,-0.3813561201095581,0.017647067084908485
1772905683670292500,7.96529248046875,9.27009391784668,-0.37896329164505005,0.017647067084908485
1772905683680273000,7.97527294921875,9.27009391784668,-0.37896329164505005,0.020039889961481094
1772905683690245000,7.9852451171875,9.27009391784668,-0.376570463180542,0.020039889961481094
1772905683700224800,7.995224853515625,9.27009391784668,-0.376570463180542,0.024825535714626312
1772905683710193700,8.005193603515625,9.267701148986816,-0.376570463180542,0.024825535714626312
1772905683720172300,8.01517236328125,9.265308380126953,-0.376570463180542,0.027218356728553772
1772905683730150000,8.02514990234375,9.265308380126953,-0.37896329164505005,0.027218356728553772
1772905683740128300,8.035128173828125,9.265308380126953,-0.37896329164505005,0.024825535714626312
1772905683750115300,8.045115234375,9.267701148986816,-0.3813561201095581,0.024825535714626312
1772905683760094700,8.0550947265625,9.267701148986816,-0.3813561201095581,0.020039889961481094
1772905683770075600,8.06507568359375,9.27009391784668,-0.3813561201095581,0.017647067084908485
1772905683780055300,8.07505517578125,9.272486686706543,-0.37896329164505005,0.017647067084908485
1772905683790030600,8.085030517578126,9.272486686706543,-0.37896329164505005,0.017647067084908485
1772905683800009700,8.095009765625,9.272486686706543,-0.37896329164505005,0.017647067084908485
1772905683809992200,8.1049921875,9.27009391784668,-0.3813561201095581,0.020039889961481094
1772905683819971600,8.1149716796875,9.27009391784668,-0.3813561201095581,0.022432712838053703
1772905683829956600,8.12495654296875,9.272486686706543,-0.3813561201095581,0.022432712838053703
1772905683839936500,8.1349365234375,9.272486686706543,-0.3813561201095581,0.022432712838053703
1772905683849912300,8.144912353515625,9.27009391784668,-0.3813561201095581,0.022432712838053703
1772905683859892000,8.15489208984375,9.267701148986816,-0.3813561201095581,0.022432712838053703
1772905683870072000,8.165072021484375,9.265308380126953,-0.37896329164505005,0.022432712838053703
1772905683880171500,8.175171630859374,9.26291561126709,-0.376570463180542,0.022432712838053703
1772905683890115000,8.185114990234375,9.265308380126953,-0.376570463180542,0.020039889961481094
1772905683910075600,8.20507568359375,9.265308380126953,-0.3813561201095581,0.022432712838053703
1772905683920074000,8.215073974609375,9.265308380126953,-0.3813561201095581,0.022432712838053703
1772905683929894100,8.22489404296875,9.265308380126953,-0.3813561201095581,0.024825535714626312
1772905683939725800,8.234725830078125,9.27009391784668,-0.37896329164505005,0.024825535714626312
1772905683949778000,8.24477783203125,9.272486686706543,-0.3813561201095581,0.024825535714626312
1772905683959753500,8.25475341796875,9.274879455566406,-0.3813561201095581,0.024825535714626312
1772905683969724200,8.26472412109375,9.272486686706543,-0.3813561201095581,0.022432712838053703
1772905683979699200,8.27469921875,9.27009391784668,-0.3837489187717438,0.022432712838053703
1772905683989654800,8.28465478515625,9.27009391784668,-0.3837489187717438,0.020039889961481094
1772905683999627800,8.294627685546875,9.27009391784668,-0.3837489187717438,0.017647067084908485
1772905684009613600,8.304613525390625,9.267701148986816,-0.3813561201095581,0.017647067084908485
1772905684019587800,8.314587890625,9.27009391784668,-0.3813561201095581,0.017647067084908485
1772905684029586200,8.324586181640624,9.27009391784668,-0.37896329164505005,0.020039889961481094
1772905684039563000,8.33456298828125,9.27009391784668,-0.3813561201095581,0.020039889961481094
1772905684049542000,8.3445419921875,9.267701148986816,-0.3813561201095581,0.017647067084908485
1772905684059519000,8.35451904296875,9.267701148986816,-0.3813561201095581,0.020039889961481094
1772905684069443300,8.364443359375,9.265308380126953,-0.3813561201095581,0.022432712838053703
1772905684079415000,8.3744150390625,9.265308380126953,-0.3813561201095581,0.024825535714626312
1772905684089407500,8.384407470703126,9.267701148986816,-0.3813561201095581,0.024825535714626312
1772905684099381200,8.39438134765625,9.27009391784668,-0.3813561201095581,0.024825535714626312
1772905684109345000,8.404344970703125,9.27009391784668,-0.3813561201095581,0.024825535714626312
1772905684119318000,8.414318115234375,9.27009391784668,-0.3813561201095581,0.022432712838053703
1772905684129307000,8.424306884765626,9.267701148986816,-0.3813561201095581,0.022432712838053703
1772905684139281200,8.43428125,9.265308380126953,-0.3813561201095581,0.020039889961481094
1772905684149262000,8.444261962890625,9.265308380126953,-0.3837489187717438,0.020039889961481094
1772905684159237000,8.454237060546875,9.267701148986816,-0.38614174723625183,0.020039889961481094
1772905684169222000,8.464221923828125,9.267701148986816,-0.38614174723625183,0.017647067084908485
1772905684179198000,8.474197998046876,9.267701148986816,-0.38614174723625183,0.017647067084908485
1772905684189186000,8.48418603515625,9.27009391784668,-0.3837489187717438,0.020039889961481094
1772905684199163100,8.4941630859375,9.27009391784668,-0.3837489187717438,0.022432712838053703
1772905684209140200,8.50414013671875,9.272486686706543,-0.3837489187717438,0.022432712838053703
1772905684219117600,8.51411767578125,9.272486686706543,-0.3837489187717438,0.022432712838053703
1772905684229297700,8.524297607421875,9.272486686706543,-0.3837489187717438,0.022432712838053703
1772905684239401700,8.534401611328125,9.27009391784668,-0.3837489187717438,0.022432712838053703
1772905684249221600,8.5442216796875,9.27009391784668,-0.3837489187717438,0.022432712838053703
1772905684259041500,8.55404150390625,9.267701148986816,-0.3813561201095581,0.022432712838053703
1772905684269221600,8.5642216796875,9.265308380126953,-0.3813561201095581,0.020039889961481094
1772905684279300900,8.57430078125,9.26291561126709,-0.3813561201095581,0.017647067084908485
1772905684289241900,8.584241943359375,9.26291561126709,-0.3813561201095581,0.015254244208335876
1772905684299239000,8.594239013671874,9.267701148986816,-0.3837489187717438,0.017647067084908485
1772905684309245400,8.604245361328125,9.27009391784668,-0.3837489187717438,0.017647067084908485
1772905684319243800,8.614243896484375,9.272486686706543,-0.3813561201095581,0.020039889961481094
1772905684329063700,8.624063720703125,9.27009391784668,-0.37896329164505005,0.020039889961481094
1772905684338883600,8.633883544921876,9.27009391784668,-0.376570463180542,0.020039889961481094
1772905684348810800,8.643810791015625,9.27009391784668,-0.376570463180542,0.020039889961481094
1772905684358773200,8.653773193359376,9.27009391784668,-0.376570463180542,0.020039889961481094
1772905684368953000,8.663953125,9.27009391784668,-0.37896329164505005,0.020039889961481094
1772905684379055000,8.67405517578125,9.27009391784668,-0.3813561201095581,0.022432712838053703
1772905684389012000,8.684011962890626,9.27009391784668,-0.3813561201095581,0.024825535714626312
1772905684408963800,8.7039638671875,9.267701148986816,-0.3837489187717438,0.022432712838053703
1772905684418952400,8.713952392578125,9.267701148986816,-0.3837489187717438,0.020039889961481094
1772905684428772400,8.7237724609375,9.27009391784668,-0.3837489187717438,0.022432712838053703
1772905684438592500,8.733592529296875,9.27009391784668,-0.3837489187717438,0.022432712838053703
1772905684448565500,8.7435654296875,9.27009391784668,-0.3837489187717438,0.020039889961481094
1772905684458525400,8.753525390625,9.27009391784668,-0.3837489187717438,0.020039889961481094
1772905684468705500,8.76370556640625,9.27009391784668,-0.3837489187717438,0.020039889961481094
1772905684478826800,8.77382666015625,9.267701148986816,-0.3813561201095581,0.020039889961481094
1772905684488646700,8.783646728515626,9.265308380126953,-0.37896329164505005,0.017647067084908485
1772905684498466600,8.793466552734374,9.26291561126709,-0.37896329164505005,0.015254244208335876
1772905684508431600,8.803431640625,9.260522842407227,-0.37896329164505005,0.015254244208335876
1772905684518396000,8.81339599609375,9.26291561126709,-0.3813561201095581,0.017647067084908485
1772905684528576000,8.823575927734375,9.265308380126953,-0.3837489187717438,0.020039889961481094
1772905684538687700,8.833687744140626,9.267701148986816,-0.3813561201095581,0.022432712838053703
1772905684548507600,8.843507568359374,9.27009391784668,-0.3813561201095581,0.027218356728553772
1772905684558317800,8.85331787109375,9.27009391784668,-0.37896329164505005,0.02961117960512638
1772905684568498000,8.863497802734376,9.27009391784668,-0.37896329164505005,0.02961117960512638
1772905684578611000,8.87361083984375,9.27009391784668,-0.37896329164505005,0.027218356728553772
1772905684588430800,8.883430908203126,9.27009391784668,-0.376570463180542,0.024825535714626312
1772905684598250800,8.893250732421874,9.27009391784668,-0.37896329164505005,0.024825535714626312
1772905684608430800,8.903430908203125,9.27009391784668,-0.3813561201095581,0.022432712838053703
1772905684618512400,8.913512451171876,9.27009391784668,-0.3813561201095581,0.020039889961481094
1772905684628466700,8.923466796875,9.267701148986816,-0.3813561201095581,0.017647067084908485
1772905684638460000,8.9334599609375,9.265308380126953,-0.37896329164505005,0.015254244208335876
1772905684648279800,8.94327978515625,9.265308380126953,-0.37896329164505005,0.017647067084908485
1772905684658100000,8.953099853515624,9.265308380126953,-0.37896329164505005,0.022432712838053703
1772905684668058600,8.96305859375,9.26291561126709,-0.3813561201095581,0.027218356728553772
1772905684678020400,8.973020263671875,9.260522842407227,-0.3837489187717438,0.027218356728553772
1772905684688200200,8.9832001953125,9.26291561126709,-0.3837489187717438,0.024825535714626312
1772905684698301700,8.9933017578125,9.265308380126953,-0.3813561201095581,0.022432712838053703
1772905684708258600,9.003258544921875,9.265308380126953,-0.3813561201095581,0.020039889961481094
1772905684718250000,9.01325,9.265308380126953,-0.37896329164505005,0.022432712838053703
1772905684728070000,9.02306982421875,9.267701148986816,-0.376570463180542,0.022432712838053703
1772905684737890000,9.03289013671875,9.267701148986816,-0.376570463180542,0.020039889961481094
1772905684747867000,9.042866943359375,9.265308380126953,-0.376570463180542,0.022432712838053703
1772905684757829000,9.0528291015625,9.267701148986816,-0.37896329164505005,0.022432712838053703
1772905684768009200,9.06300927734375,9.267701148986816,-0.3813561201095581,0.024825535714626312
1772905684778113000,9.073113037109374,9.267701148986816,-0.3837489187717438,0.024825535714626312
1772905684787933000,9.082932861328125,9.27009391784668,-0.3813561201095581,0.022432712838053703
1772905684797752800,9.0927529296875,9.27009391784668,-0.3813561201095581,0.020039889961481094
1772905684807714600,9.102714599609374,9.267701148986816,-0.3813561201095581,0.015254244208335876
1772905684817678800,9.112678955078126,9.267701148986816,-0.3813561201095581,0.015254244208335876
1772905684827673000,9.122673095703124,9.265308380126953,-0.37896329164505005,0.015254244208335876
1772905684837640400,9.132640380859375,9.265308380126953,-0.376570463180542,0.017647067084908485
1772905684847820300,9.1428203125,9.265308380126953,-0.376570463180542,0.022432712838053703
1772905684857928700,9.1529287109375,9.265308380126953,-0.376570463180542,0.022432712838053703
1772905684867871700,9.162871826171875,9.265308380126953,-0.37896329164505005,0.022432712838053703
1772905684877866200,9.1728662109375,9.265308380126953,-0.3813561201095581,0.022432712838053703
1772905684887835100,9.182835205078124,9.267701148986816,-0.37896329164505005,0.020039889961481094
1772905684897827000,9.1928271484375,9.267701148986816,-0.37896329164505005,0.020039889961481094
1772905684907797800,9.2027978515625,9.267701148986816,-0.37896329164505005,0.022432712838053703
1772905684917787600,9.21278759765625,9.265308380126953,-0.37896329164505005,0.022432712838053703
1772905684927737000,9.222737060546875,9.26291561126709,-0.37896329164505005,0.022432712838053703
1772905684937722600,9.23272265625,9.26291561126709,-0.37896329164505005,0.020039889961481094
1772905684947702000,9.242701904296876,9.26291561126709,-0.37896329164505005,0.020039889961481094
1772905684957687000,9.25268701171875,9.26291561126709,-0.3813561201095581,0.017647067084908485
1772905684967507200,9.262507080078125,9.26291561126709,-0.3813561201095581,0.017647067084908485
1772905684977338000,9.272338134765626,9.26291561126709,-0.3813561201095581,0.020039889961481094
1772905684987518200,9.282518310546875,9.265308380126953,-0.3813561201095581,0.024825535714626312
1772905684997544200,9.292544189453125,9.265308380126953,-0.37896329164505005,0.027218356728553772
1772905685007550500,9.302550537109376,9.265308380126953,-0.37896329164505005,0.027218356728553772
1772905685017536500,9.31253662109375,9.265308380126953,-0.37896329164505005,0.024825535714626312
1772905685027530200,9.3225302734375,9.27009391784668,-0.37896329164505005,0.022432712838053703
1772905685037517000,9.33251708984375,9.272486686706543,-0.3813561201095581,0.022432712838053703
1772905685047510800,9.3425107421875,9.274879455566406,-0.3813561201095581,0.022432712838053703
1772905685057498000,9.352498046875,9.274879455566406,-0.37896329164505005,0.022432712838053703
1772905685067318000,9.362318115234375,9.272486686706543,-0.376570463180542,0.022432712838053703
1772905685077168400,9.37216845703125,9.27009391784668,-0.37417763471603394,0.020039889961481094
1772905685087204400,9.382204345703125,9.267701148986816,-0.376570463180542,0.020039889961481094
1772905685097171700,9.392171630859375,9.265308380126953,-0.376570463180542,0.017647067084908485
1772905685107255300,9.40225537109375,9.265308380126953,-0.37896329164505005,0.017647067084908485
1772905685117234700,9.412234619140625,9.267701148986816,-0.37896329164505005,0.020039889961481094
1772905685127242000,9.422241943359374,9.27009391784668,-0.376570463180542,0.022432712838053703
1772905685137224200,9.43222412109375,9.267701148986816,-0.376570463180542,0.024825535714626312
1772905685147230700,9.442230712890625,9.267701148986816,-0.37896329164505005,0.027218356728553772
1772905685157215200,9.45221533203125,9.267701148986816,-0.3813561201095581,0.027218356728553772
1772905685167249700,9.462249755859375,9.267701148986816,-0.3813561201095581,0.024825535714626312
1772905685177239300,9.4722392578125,9.267701148986816,-0.37896329164505005,0.020039889961481094
1772905685187239700,9.48223974609375,9.267701148986816,-0.376570463180542,0.017647067084908485
1772905685197230300,9.492230224609376,9.265308380126953,-0.376570463180542,0.015254244208335876
1772905685207050500,9.502050537109374,9.265308380126953,-0.37896329164505005,0.015254244208335876
1772905685216914700,9.511914794921875,9.265308380126953,-0.37896329164505005,0.017647067084908485
1772905685226946000,9.521946044921876,9.265308380126953,-0.37896329164505005,0.020039889961481094
1772905685236916500,9.53191650390625,9.265308380126953,-0.37896329164505005,0.020039889961481094
1772905685247072800,9.54207275390625,9.265308380126953,-0.37896329164505005,0.020039889961481094
1772905685257063000,9.55206298828125,9.267701148986816,-0.37896329164505005,0.017647067084908485
1772905685266889200,9.56188916015625,9.27009391784668,-0.3813561201095581,0.020039889961481094
1772905685276863200,9.57186328125,9.272486686706543,-0.3813561201095581,0.020039889961481094
1772905685287021000,9.58202099609375,9.272486686706543,-0.3813561201095581,0.020039889961481094
1772905685297014300,9.59201416015625,9.272486686706543,-0.3837489187717438,0.020039889961481094
1772905685306854100,9.601854248046875,9.27009391784668,-0.3813561201095581,0.020039889961481094
1772905685316832300,9.611832275390626,9.267701148986816,-0.37896329164505005,0.020039889961481094
1772905685326711000,9.6217109375,9.265308380126953,-0.37896329164505005,0.020039889961481094
1772905685336678700,9.6316787109375,9.265308380126953,-0.3813561201095581,0.020039889961481094
1772905685346828000,9.641828125,9.267701148986816,-0.3837489187717438,0.015254244208335876
1772905685356814000,9.65181396484375,9.267701148986816,-0.38614174723625183,0.012861421331763268
1772905685366866200,9.6618662109375,9.265308380126953,-0.38614174723625183,0.012861421331763268
1772905685376859000,9.67185888671875,9.265308380126953,-0.38614174723625183,0.012861421331763268
1772905685386865200,9.681865234375,9.265308380126953,-0.3813561201095581,0.017647067084908485
1772905685396859100,9.691859130859376,9.26291561126709,-0.37896329164505005,0.020039889961481094
1772905685406720000,9.701719970703126,9.26291561126709,-0.376570463180542,0.020039889961481094
1772905685416700400,9.711700439453125,9.26291561126709,-0.37896329164505005,0.017647067084908485
1772905685426746000,9.72174609375,9.26291561126709,-0.3813561201095581,0.015254244208335876
1772905685436733200,9.731733154296874,9.265308380126953,-0.3837489187717438,0.015254244208335876
1772905685446702300,9.741702392578125,9.267701148986816,-0.3837489187717438,0.017647067084908485
1772905685456687400,9.751687255859375,9.267701148986816,-0.3837489187717438,0.020039889961481094
1772905685466507500,9.761507568359375,9.27009391784668,-0.3813561201095581,0.022432712838053703
1772905685476376800,9.771376953125,9.27009391784668,-0.37896329164505005,0.020039889961481094
1772905685486384600,9.781384521484375,9.267701148986816,-0.37417763471603394,0.020039889961481094
1772905685496348700,9.7913486328125,9.267701148986816,-0.376570463180542,0.017647067084908485
1772905685506407000,9.801406982421875,9.265308380126953,-0.37896329164505005,0.020039889961481094
1772905685516381000,9.811380859375,9.26291561126709,-0.3813561201095581,0.022432712838053703
1772905685526375200,9.821375244140626,9.26291561126709,-0.3837489187717438,0.024825535714626312
1772905685536351200,9.831351318359374,9.26291561126709,-0.3837489187717438,0.022432712838053703
1772905685546315800,9.841315673828126,9.26291561126709,-0.3837489187717438,0.022432712838053703
1772905685556290600,9.85129052734375,9.26291561126709,-0.3837489187717438,0.022432712838053703
1772905685566280700,9.86128076171875,9.265308380126953,-0.3837489187717438,0.022432712838053703
1772905685576257000,9.871257080078125,9.265308380126953,-0.3837489187717438,0.022432712838053703
1772905685586250000,9.88125,9.265308380126953,-0.3813561201095581,0.020039889961481094
1772905685596228000,9.89122802734375,9.267701148986816,-0.37896329164505005,0.017647067084908485
1772905685606185700,9.901185791015624,9.267701148986816,-0.37896329164505005,0.020039889961481094
1772905685616161800,9.911161865234375,9.265308380126953,-0.37896329164505005,0.020039889961481094
1772905685626107600,9.921107666015626,9.265308380126953,-0.37896329164505005,0.020039889961481094
1772905685636080600,9.93108056640625,9.265308380126953,-0.3813561201095581,0.020039889961481094
1772905685646052600,9.941052490234375,9.265308380126953,-0.3813561201095581,0.020039889961481094
1772905685656025300,9.951025390625,9.265308380126953,-0.37896329164505005,0.020039889961481094
1772905685666006500,9.961006591796876,9.265308380126953,-0.37896329164505005,0.022432712838053703
1772905685675980300,9.970980224609375,9.265308380126953,-0.3813561201095581,0.022432712838053703
1772905685685936600,9.9809365234375,9.265308380126953,-0.3837489187717438,0.022432712838053703
1772905685695908600,9.99090869140625,9.265308380126953,-0.3837489187717438,0.022432712838053703
1772905685705893400,10.000893310546875,9.26291561126709,-0.3837489187717438,0.020039889961481094
1772905685715866600,10.01086669921875,9.26291561126709,-0.3813561201095581,0.020039889961481094
1772905685725838000,10.020838134765626,9.26291561126709,-0.37896329164505005,0.020039889961481094
1772905685735811000,10.03081103515625,9.265308380126953,-0.37896329164505005,0.017647067084908485
1772905685745779500,10.040779541015626,9.267701148986816,-0.3813561201095581,0.015254244208335876
1772905685755752000,10.050751953125,9.265308380126953,-0.3813561201095581,0.015254244208335876
1772905685765728800,10.060728759765626,9.265308380126953,-0.3813561201095581,0.017647067084908485
1772905685775701800,10.07070166015625,9.26291561126709,-0.3813561201095581,0.020039889961481094
1772905685785675500,10.080675537109375,9.26291561126709,-0.3813561201095581,0.022432712838053703
1772905685795648800,10.090648681640625,9.265308380126953,-0.3813561201095581,0.024825535714626312
1772905685805626400,10.10062646484375,9.27009391784668,-0.37896329164505005,0.024825535714626312
1772905685815599900,10.110599853515625,9.272486686706543,-0.376570463180542,0.022432712838053703
1772905685825591600,10.120591552734375,9.272486686706543,-0.376570463180542,0.020039889961481094
1772905685835567000,10.130567138671875,9.27009391784668,-0.37896329164505005,0.015254244208335876
1772905685845600500,10.1406005859375,9.267701148986816,-0.37896329164505005,0.012861421331763268
1772905685855582000,10.15058203125,9.267701148986816,-0.3813561201095581,0.012861421331763268
1772905685865518600,10.1605185546875,9.267701148986816,-0.3813561201095581,0.012861421331763268
1772905685875495400,10.170495361328125,9.267701148986816,-0.3813561201095581,0.015254244208335876
1772905685885448400,10.180448486328125,9.267701148986816,-0.37896329164505005,0.017647067084908485
1772905685895423000,10.190423095703125,9.267701148986816,-0.37896329164505005,0.017647067084908485
1772905685905402000,10.200402099609375,9.267701148986816,-0.3813561201095581,0.017647067084908485
1772905685915377200,10.210377197265625,9.27009391784668,-0.3813561201095581,0.017647067084908485
1772905685925345500,10.220345458984376,9.272486686706543,-0.3813561201095581,0.020039889961481094
1772905685935319800,10.23031982421875,9.272486686706543,-0.3837489187717438,0.022432712838053703
1772905685945294000,10.240294189453126,9.272486686706543,-0.38614174723625183,0.024825535714626312
1772905685955268400,10.250268310546875,9.272486686706543,-0.3837489187717438,0.024825535714626312
1772905685965239800,10.26023974609375,9.27009391784668,-0.3837489187717438,0.024825535714626312
1772905685975213800,10.2702138671875,9.267701148986816,-0.3813561201095581,0.022432712838053703
1772905685985183200,10.280183349609375,9.265308380126953,-0.3837489187717438,0.020039889961481094
1772905685995156500,10.290156494140625,9.26291561126709,-0.3837489187717438,0.017647067084908485
1772905686005124400,10.300124267578125,9.265308380126953,-0.38614174723625183,0.020039889961481094
1772905686015097000,10.31009716796875,9.267701148986816,-0.3885345757007599,0.022432712838053703
1772905686025068800,10.32006884765625,9.27009391784668,-0.3885345757007599,0.027218356728553772
1772905686035041500,10.33004150390625,9.267701148986816,-0.3837489187717438,0.027218356728553772
1772905686045023200,10.340023193359375,9.265308380126953,-0.3813561201095581,0.02961117960512638
1772905686054996700,10.349996826171875,9.26291561126709,-0.37896329164505005,0.02961117960512638
1772905686065000700,10.360000732421875,9.26291561126709,-0.376570463180542,0.027218356728553772
1772905686074977500,10.3699775390625,9.265308380126953,-0.37417763471603394,0.024825535714626312
1772905686084941000,10.379941162109375,9.265308380126953,-0.37417763471603394,0.020039889961481094
1772905686094916400,10.389916259765625,9.267701148986816,-0.376570463180542,0.020039889961481094
1772905686104913400,10.399913330078125,9.267701148986816,-0.376570463180542,0.022432712838053703
1772905686114891000,10.40989111328125,9.267701148986816,-0.37896329164505005,0.022432712838053703
1772905686124875500,10.41987548828125,9.267701148986816,-0.37896329164505005,0.022432712838053703
1772905686134854000,10.42985400390625,9.267701148986816,-0.37896329164505005,0.022432712838053703
1772905686144847000,10.43984716796875,9.265308380126953,-0.37896329164505005,0.022432712838053703
1772905686154827000,10.449826904296875,9.265308380126953,-0.3813561201095581,0.022432712838053703
1772905686164800300,10.45980029296875,9.265308380126953,-0.3813561201095581,0.024825535714626312
1772905686174779400,10.469779296875,9.267701148986816,-0.3813561201095581,0.024825535714626312
1772905686184756000,10.479755859375,9.267701148986816,-0.3813561201095581,0.022432712838053703
1772905686194734800,10.48973486328125,9.267701148986816,-0.3813561201095581,0.020039889961481094
1772905686204715500,10.499715576171875,9.265308380126953,-0.3813561201095581,0.020039889961481094
1772905686214694700,10.509694580078126,9.265308380126953,-0.3813561201095581,0.020039889961481094
1772905686224684500,10.5196845703125,9.265308380126953,-0.37896329164505005,0.022432712838053703
1772905686234664700,10.529664794921874,9.267701148986816,-0.37896329164505005,0.022432712838053703
1772905686244671200,10.539671142578126,9.27009391784668,-0.37896329164505005,0.022432712838053703
1772905686254654000,10.549654052734375,9.27009391784668,-0.37896329164505005,0.020039889961481094
1772905686264610000,10.559610107421875,9.27009391784668,-0.37896329164505005,0.017647067084908485
1772905686274590200,10.569590087890624,9.272486686706543,-0.376570463180542,0.017647067084908485
1772905686284569000,10.579569091796875,9.272486686706543,-0.376570463180542,0.020039889961481094
1772905686294549000,10.589549072265624,9.272486686706543,-0.37896329164505005,0.022432712838053703
1772905686304519200,10.599519287109375,9.27009391784668,-0.37896329164505005,0.024825535714626312
1772905686314498000,10.609498046875,9.27009391784668,-0.37896329164505005,0.024825535714626312
1772905686324475400,10.619475341796875,9.27009391784668,-0.37417763471603394,0.022432712838053703
1772905686334454300,10.629454345703126,9.267701148986816,-0.3717848062515259,0.020039889961481094
1772905686344425000,10.639425048828125,9.267701148986816,-0.3717848062515259,0.020039889961481094
1772905686354402800,10.64940283203125,9.265308380126953,-0.37417763471603394,0.020039889961481094
1772905686364396500,10.659396484375,9.265308380126953,-0.376570463180542,0.017647067084908485
1772905686374376000,10.6693759765625,9.267701148986816,-0.37896329164505005,0.017647067084908485
1772905686384326100,10.679326171875,9.27009391784668,-0.3813561201095581,0.020039889961481094
1772905686394302700,10.689302734375,9.27009391784668,-0.3837489187717438,0.020039889961481094
1772905686404287200,10.699287353515626,9.267701148986816,-0.38614174723625183,0.020039889961481094
1772905686414264600,10.7092646484375,9.267701148986816,-0.3837489187717438,0.020039889961481094
1772905686424228600,10.719228515625,9.267701148986816,-0.37896329164505005,0.022432712838053703
1772905686434204700,10.72920458984375,9.265308380126953,-0.37417763471603394,0.027218356728553772
1772905686444179200,10.73917919921875,9.26291561126709,-0.3717848062515259,0.027218356728553772
1772905686454155000,10.749155029296874,9.26291561126709,-0.3717848062515259,0.027218356728553772
1772905686464137200,10.75913720703125,9.265308380126953,-0.3717848062515259,0.022432712838053703
1772905686474113800,10.76911376953125,9.267701148986816,-0.37417763471603394,0.020039889961481094
1772905686484104000,10.77910400390625,9.267701148986816,-0.37896329164505005,0.017647067084908485
1772905686494081800,10.789081787109374,9.267701148986816,-0.3813561201095581,0.017647067084908485
1772905686504087000,10.799087158203125,9.265308380126953,-0.3837489187717438,0.017647067084908485
1772905686514067700,10.809067626953125,9.26291561126709,-0.38614174723625183,0.022432712838053703
1772905686524031200,10.81903125,9.260522842407227,-0.3837489187717438,0.024825535714626312
1772905686534010000,10.829010009765625,9.260522842407227,-0.3813561201095581,0.024825535714626312
1772905686543982300,10.838982421875,9.260522842407227,-0.37896329164505005,0.024825535714626312
1772905686553960400,10.84896044921875,9.260522842407227,-0.376570463180542,0.022432712838053703
1772905686563930000,10.85893017578125,9.260522842407227,-0.376570463180542,0.020039889961481094
1772905686573907500,10.868907470703125,9.260522842407227,-0.37896329164505005,0.020039889961481094
1772905686583889700,10.8788896484375,9.26291561126709,-0.3813561201095581,0.017647067084908485
1772905686593867500,10.888867431640625,9.26291561126709,-0.3813561201095581,0.017647067084908485
1772905686603839200,10.898839111328124,9.265308380126953,-0.3837489187717438,0.020039889961481094
1772905686613816600,10.908816650390625,9.267701148986816,-0.38614174723625183,0.017647067084908485
1772905686623799000,10.918799072265625,9.267701148986816,-0.38614174723625183,0.015254244208335876
1772905686633776600,10.928776611328125,9.27009391784668,-0.3837489187717438,0.015254244208335876
1772905686643739000,10.93873876953125,9.27009391784668,-0.38614174723625183,0.020039889961481094
1772905686653715000,10.94871484375,9.267701148986816,-0.38614174723625183,0.027218356728553772
1772905686663700500,10.958700439453125,9.265308380126953,-0.38614174723625183,0.02961117960512638
1772905686673677600,10.968677490234375,9.265308380126953,-0.38614174723625183,0.027218356728553772
1772905686683666700,10.978666748046875,9.26291561126709,-0.3885345757007599,0.022432712838053703
1772905686693645000,10.98864501953125,9.26291561126709,-0.38614174723625183,0.020039889961481094
1772905686703619000,10.998619140625,9.26291561126709,-0.3837489187717438,0.017647067084908485
1772905686713597000,11.008596923828126,9.26291561126709,-0.3813561201095581,0.017647067084908485
1772905686723603000,11.01860302734375,9.26291561126709,-0.3837489187717438,0.022432712838053703
1772905686733583600,11.02858349609375,9.265308380126953,-0.38614174723625183,0.022432712838053703
1772905686743519700,11.038519775390625,9.265308380126953,-0.38614174723625183,0.022432712838053703
1772905686753495800,11.048495849609376,9.265308380126953,-0.3837489187717438,0.022432712838053703
1772905686763483100,11.058483154296875,9.265308380126953,-0.3813561201095581,0.024825535714626312
1772905686773460500,11.06846044921875,9.265308380126953,-0.3813561201095581,0.024825535714626312
1772905686783640600,11.078640625,9.265308380126953,-0.37896329164505005,0.022432712838053703
1772905686793748000,11.088748046875,9.265308380126953,-0.37896329164505005,0.020039889961481094
1772905686803568000,11.098568115234375,9.265308380126953,-0.3813561201095581,0.015254244208335876
1772905686813375700,11.108375732421875,9.267701148986816,-0.3813561201095581,0.015254244208335876
1772905686823363300,11.11836328125,9.27009391784668,-0.3813561201095581,0.017647067084908485
1772905686833337900,11.128337890625,9.27009391784668,-0.3813561201095581,0.022432712838053703
1772905686843307800,11.138307861328125,9.27009391784668,-0.3813561201095581,0.024825535714626312
1772905686853281800,11.14828173828125,9.27009391784668,-0.3813561201095581,0.024825535714626312
1772905686863266000,11.15826611328125,9.267701148986816,-0.3813561201095581,0.024825535714626312
1772905686873241000,11.168240966796875,9.267701148986816,-0.3813561201095581,0.024825535714626312
1772905686883220000,11.178219970703125,9.267701148986816,-0.3837489187717438,0.022432712838053703
1772905686893195500,11.188195556640625,9.265308380126953,-0.38614174723625183,0.022432712838053703
1772905686903189000,11.19818896484375,9.265308380126953,-0.38614174723625183,0.022432712838053703
1772905686913166300,11.208166259765624,9.265308380126953,-0.3837489187717438,0.020039889961481094
1772905686923181300,11.218181396484376,9.265308380126953,-0.3813561201095581,0.017647067084908485
1772905686933162500,11.22816259765625,9.267701148986816,-0.376570463180542,0.017647067084908485
1772905686943342300,11.23834228515625,9.267701148986816,-0.37896329164505005,0.015254244208335876
1772905686953386200,11.24838623046875,9.267701148986816,-0.37896329164505005,0.017647067084908485
1772905686963206400,11.258206298828124,9.267701148986816,-0.3813561201095581,0.020039889961481094
1772905686973015300,11.268015380859374,9.265308380126953,-0.3813561201095581,0.020039889961481094
1772905686983007000,11.278007080078124,9.26291561126709,-0.3813561201095581,0.020039889961481094
1772905686992980000,11.28797998046875,9.260522842407227,-0.3813561201095581,0.020039889961481094
1772905687002972200,11.29797216796875,9.26291561126709,-0.3813561201095581,0.020039889961481094
1772905687012947000,11.307947021484376,9.267701148986816,-0.37896329164505005,0.020039889961481094
1772905687022925800,11.31792578125,9.27009391784668,-0.37896329164505005,0.017647067084908485
1772905687032901000,11.327901123046875,9.27009391784668,-0.3813561201095581,0.020039889961481094
1772905687042882300,11.33788232421875,9.267701148986816,-0.3837489187717438,0.020039889961481094
1772905687052858000,11.347858154296874,9.265308380126953,-0.3837489187717438,0.022432712838053703
1772905687062840300,11.35784033203125,9.26291561126709,-0.3837489187717438,0.024825535714626312
1772905687072817000,11.36781689453125,9.260522842407227,-0.3813561201095581,0.024825535714626312
1772905687082795800,11.377795654296875,9.26291561126709,-0.37896329164505005,0.027218356728553772
1772905687092772600,11.387772705078126,9.26291561126709,-0.376570463180542,0.027218356728553772
1772905687102757400,11.39775732421875,9.265308380126953,-0.376570463180542,0.027218356728553772
1772905687112734700,11.407734619140625,9.26291561126709,-0.376570463180542,0.022432712838053703
1772905687122699300,11.41769921875,9.26291561126709,-0.376570463180542,0.022432712838053703
1772905687132675600,11.427675537109375,9.26291561126709,-0.37896329164505005,0.022432712838053703
1772905687142660000,11.43766015625,9.26291561126709,-0.3813561201095581,0.022432712838053703
1772905687152637200,11.44763720703125,9.26291561126709,-0.3837489187717438,0.020039889961481094
1772905687162618400,11.457618408203125,9.265308380126953,-0.3837489187717438,0.020039889961481094
1772905687172596000,11.467595947265625,9.267701148986816,-0.3813561201095581,0.022432712838053703
1772905687182575600,11.47757568359375,9.267701148986816,-0.3813561201095581,0.022432712838053703
1772905687192553200,11.48755322265625,9.265308380126953,-0.3813561201095581,0.020039889961481094
1772905687202531300,11.49753125,9.265308380126953,-0.3837489187717438,0.017647067084908485
1772905687212509200,11.50750927734375,9.26291561126709,-0.3837489187717438,0.017647067084908485
1772905687222484000,11.51748388671875,9.265308380126953,-0.3837489187717438,0.020039889961481094
1772905687232461600,11.527461669921875,9.265308380126953,-0.3837489187717438,0.024825535714626312
1772905687242508500,11.537508544921875,9.265308380126953,-0.3837489187717438,0.02961117960512638
1772905687252493000,11.5474931640625,9.26291561126709,-0.3837489187717438,0.02961117960512638
1772905687262440200,11.557440185546875,9.265308380126953,-0.3813561201095581,0.027218356728553772
1772905687272420900,11.5674208984375,9.267701148986816,-0.37896329164505005,0.024825535714626312
1772905687282385400,11.577385498046874,9.27009391784668,-0.37896329164505005,0.022432712838053703
1772905687292364500,11.587364501953125,9.27009391784668,-0.37896329164505005,0.020039889961481094
1772905687302345000,11.597344970703125,9.267701148986816,-0.376570463180542,0.020039889961481094
1772905687312324400,11.607324462890626,9.267701148986816,-0.37896329164505005,0.020039889961481094
1772905687332280000,11.627280029296875,9.265308380126953,-0.3813561201095581,0.020039889961481094
1772905687342257000,11.6372568359375,9.265308380126953,-0.3813561201095581,0.020039889961481094
1772905687352235800,11.64723583984375,9.26291561126709,-0.37896329164505005,0.022432712838053703
1772905687362228500,11.657228515625,9.265308380126953,-0.376570463180542,0.022432712838053703
1772905687372208600,11.667208740234376,9.265308380126953,-0.376570463180542,0.022432712838053703
1772905687382206500,11.67720654296875,9.267701148986816,-0.37896329164505005,0.020039889961481094
1772905687392188400,11.6871884765625,9.267701148986816,-0.3813561201095581,0.020039889961481094
1772905687402172700,11.697172607421875,9.27009391784668,-0.3837489187717438,0.022432712838053703
1772905687412155000,11.70715478515625,9.27009391784668,-0.3837489187717438,0.022432712838053703
1772905687422128400,11.71712841796875,9.27009391784668,-0.3837489187717438,0.022432712838053703
1772905687432109600,11.727109619140625,9.272486686706543,-0.3837489187717438,0.022432712838053703
1772905687442084400,11.73708447265625,9.272486686706543,-0.3837489187717438,0.024825535714626312
1772905687452065000,11.74706494140625,9.272486686706543,-0.38614174723625183,0.027218356728553772
1772905687462050300,11.75705029296875,9.272486686706543,-0.38614174723625183,0.027218356728553772
1772905687472031500,11.767031494140625,9.27009391784668,-0.3837489187717438,0.022432712838053703
1772905687482211300,11.77721142578125,9.27009391784668,-0.3813561201095581,0.017647067084908485
1772905687492297200,11.787297119140625,9.267701148986816,-0.3813561201095581,0.017647067084908485
1772905687502117400,11.797117431640626,9.267701148986816,-0.37896329164505005,0.020039889961481094
1772905687511927000,11.806927001953126,9.27009391784668,-0.37896329164505005,0.022432712838053703
1772905687521904400,11.816904296875,9.272486686706543,-0.37896329164505005,0.022432712838053703
1772905687531879000,11.82687890625,9.272486686706543,-0.376570463180542,0.022432712838053703
1772905687541883000,11.8368828125,9.272486686706543,-0.37896329164505005,0.022432712838053703
1772905687551860500,11.846860595703125,9.27009391784668,-0.3813561201095581,0.024825535714626312
1772905687561836000,11.8568359375,9.27009391784668,-0.3837489187717438,0.027218356728553772
1772905687571813400,11.8668134765625,9.27009391784668,-0.3837489187717438,0.027218356728553772
1772905687581798700,11.876798583984375,9.27009391784668,-0.3837489187717438,0.02961117960512638
1772905687591776800,11.88677685546875,9.27009391784668,-0.3837489187717438,0.027218356728553772
1772905687601956600,11.89695654296875,9.267701148986816,-0.3813561201095581,0.027218356728553772
1772905687612064300,11.907064208984375,9.265308380126953,-0.37896329164505005,0.027218356728553772
1772905687621884400,11.916884521484375,9.265308380126953,-0.37896329164505005,0.027218356728553772
1772905687631696400,11.9266962890625,9.267701148986816,-0.37896329164505005,0.024825535714626312
1772905687641675000,11.936675048828125,9.27009391784668,-0.37896329164505005,0.022432712838053703
1772905687651649300,11.946649169921875,9.27009391784668,-0.37896329164505005,0.020039889961481094
1772905687661829400,11.956829345703126,9.27009391784668,-0.37896329164505005,0.020039889961481094
1772905687671947800,11.96694775390625,9.27009391784668,-0.37896329164505005,0.022432712838053703
1772905687681894700,11.976894775390624,9.27009391784668,-0.37896329164505005,0.027218356728553772
1772905687691895800,11.986895751953124,9.27009391784668,-0.376570463180542,0.02961117960512638
1772905687701715700,11.9967158203125,9.27009391784668,-0.376570463180542,0.02961117960512638
1772905687711523000,12.006523193359374,9.272486686706543,-0.37896329164505005,0.027218356728553772
1772905687721493500,12.016493408203125,9.272486686706543,-0.37896329164505005,0.022432712838053703
1772905687731460600,12.026460693359375,9.27009391784668,-0.37896329164505005,0.020039889961481094
1772905687741499000,12.036498779296876,9.27009391784668,-0.37896329164505005,0.022432712838053703
1772905687751473400,12.046473388671876,9.267701148986816,-0.376570463180542,0.022432712838053703
1772905687761443300,12.056443359375,9.267701148986816,-0.37417763471603394,0.020039889961481094
1772905687771417300,12.066417236328125,9.267701148986816,-0.37417763471603394,0.020039889961481094
1772905687781397000,12.07639697265625,9.267701148986816,-0.376570463180542,0.017647067084908485
1772905687791371500,12.08637158203125,9.27009391784668,-0.37896329164505005,0.020039889961481094
1772905687801352000,12.09635205078125,9.27009391784668,-0.3813561201095581,0.020039889961481094
1772905687811327200,12.1063271484375,9.27009391784668,-0.3813561201095581,0.022432712838053703
1772905687821301500,12.116301513671875,9.267701148986816,-0.37896329164505005,0.024825535714626312
1772905687831276500,12.126276611328125,9.265308380126953,-0.37896329164505005,0.024825535714626312
1772905687841290000,12.1362900390625,9.265308380126953,-0.37896329164505005,0.027218356728553772
1772905687851268900,12.146268798828125,9.265308380126953,-0.37896329164505005,0.027218356728553772
1772905687861235000,12.15623486328125,9.265308380126953,-0.3813561201095581,0.027218356728553772
1772905687871212500,12.166212646484375,9.267701148986816,-0.38614174723625183,0.027218356728553772
1772905687881185800,12.176185791015625,9.27009391784668,-0.3885345757007599,0.024825535714626312
1772905687891163000,12.186162841796875,9.27009391784668,-0.39122650027275085,0.027218356728553772
1772905687901154800,12.19615478515625,9.27009391784668,-0.3885345757007599,0.024825535714626312
1772905687911133700,12.2061337890625,9.267701148986816,-0.3837489187717438,0.024825535714626312
1772905687921104000,12.216103759765625,9.267701148986816,-0.3813561201095581,0.022432712838053703
1772905687931081700,12.226081787109376,9.265308380126953,-0.3813561201095581,0.022432712838053703
1772905687941048800,12.236048828125,9.265308380126953,-0.3813561201095581,0.022432712838053703
1772905687951025400,12.246025390625,9.26291561126709,-0.3813561201095581,0.022432712838053703
1772905687961026800,12.25602685546875,9.26291561126709,-0.37896329164505005,0.024825535714626312
1772905687980980000,12.27597998046875,9.26291561126709,-0.3813561201095581,0.03200400248169899
1772905687990958800,12.285958740234374,9.26291561126709,-0.38614174723625183,0.03439682722091675
1772905688000954000,12.2959541015625,9.26291561126709,-0.3885345757007599,0.03200400248169899
1772905688010934500,12.3059345703125,9.26291561126709,-0.38614174723625183,0.02961117960512638
1772905688020907800,12.31590771484375,9.265308380126953,-0.38614174723625183,0.024825535714626312
1772905688030887400,12.325887451171875,9.267701148986816,-0.38614174723625183,0.022432712838053703
1772905688040863200,12.33586328125,9.27009391784668,-0.38614174723625183,0.020039889961481094
1772905688050842600,12.345842529296876,9.27009391784668,-0.3837489187717438,0.017647067084908485
1772905688060828400,12.355828369140625,9.272486686706543,-0.3837489187717438,0.017647067084908485
1772905688070808600,12.36580859375,9.27009391784668,-0.3813561201095581,0.020039889961481094
1772905688080790500,12.37579052734375,9.27009391784668,-0.37896329164505005,0.020039889961481094
1772905688090770700,12.385770751953125,9.27009391784668,-0.376570463180542,0.022432712838053703
1772905688100750300,12.395750244140626,9.27009391784668,-0.376570463180542,0.024825535714626312
1772905688110730500,12.40573046875,9.27009391784668,-0.376570463180542,0.027218356728553772
1772905688120710100,12.415710205078126,9.272486686706543,-0.376570463180542,0.027218356728553772
1772905688130690300,12.425690185546875,9.272486686706543,-0.37896329164505005,0.024825535714626312
1772905688140665600,12.43566552734375,9.274879455566406,-0.3813561201095581,0.022432712838053703
1772905688150645200,12.445645263671874,9.274879455566406,-0.38614174723625183,0.022432712838053703
1772905688160625000,12.455625,9.274879455566406,-0.39122650027275085,0.022432712838053703
1772905688170604500,12.4656044921875,9.272486686706543,-0.39122650027275085,0.022432712838053703
1772905688180573000,12.475572998046875,9.272486686706543,-0.3885345757007599,0.024825535714626312
1772905688190551300,12.48555126953125,9.267701148986816,-0.38614174723625183,0.027218356728553772
1772905688200541200,12.495541259765625,9.265308380126953,-0.3837489187717438,0.027218356728553772
1772905688210520800,12.505520751953124,9.265308380126953,-0.3837489187717438,0.024825535714626312
1772905688220487400,12.5154873046875,9.265308380126953,-0.3837489187717438,0.024825535714626312
1772905688230465800,12.5254658203125,9.265308380126953,-0.3813561201095581,0.024825535714626312
1772905688240446500,12.535446533203125,9.267701148986816,-0.3813561201095581,0.022432712838053703
1772905688250425000,12.545425048828125,9.27009391784668,-0.3837489187717438,0.020039889961481094
1772905688260406800,12.55540673828125,9.272486686706543,-0.3837489187717438,0.020039889961481094
1772905688270385700,12.5653857421875,9.272486686706543,-0.3837489187717438,0.020039889961481094
1772905688280366600,12.57536669921875,9.272486686706543,-0.3837489187717438,0.017647067084908485
1772905688290345700,12.585345703125,9.27009391784668,-0.3837489187717438,0.017647067084908485
1772905688300337200,12.595337158203124,9.267701148986816,-0.3837489187717438,0.017647067084908485
1772905688310317600,12.605317626953125,9.265308380126953,-0.3837489187717438,0.017647067084908485
1772905688320296200,12.615296142578124,9.267701148986816,-0.3813561201095581,0.017647067084908485
1772905688330276400,12.6252763671875,9.267701148986816,-0.37896329164505005,0.017647067084908485
1772905688340260400,12.63526025390625,9.267701148986816,-0.37896329164505005,0.020039889961481094
1772905688350241000,12.645240966796875,9.27009391784668,-0.37896329164505005,0.022432712838053703
1772905688360213200,12.655213134765624,9.267701148986816,-0.3813561201095581,0.022432712838053703
1772905688370193000,12.66519287109375,9.265308380126953,-0.37896329164505005,0.022432712838053703
1772905688380167700,12.675167724609375,9.265308380126953,-0.37896329164505005,0.024825535714626312
1772905688390147000,12.68514697265625,9.267701148986816,-0.3813561201095581,0.024825535714626312
1772905688400121600,12.69512158203125,9.267701148986816,-0.3813561201095581,0.024825535714626312
1772905688410100500,12.7051005859375,9.267701148986816,-0.3813561201095581,0.024825535714626312
1772905688420081200,12.7150810546875,9.27009391784668,-0.3813561201095581,0.024825535714626312
1772905688430060000,12.72506005859375,9.27009391784668,-0.3813561201095581,0.022432712838053703
1772905688440041200,12.735041259765625,9.27009391784668,-0.3813561201095581,0.022432712838053703
1772905688450020400,12.745020263671876,9.267701148986816,-0.3837489187717438,0.020039889961481094
1772905688459978200,12.754978271484376,9.267701148986816,-0.3837489187717438,0.017647067084908485
1772905688469955300,12.764955322265624,9.265308380126953,-0.3837489187717438,0.015254244208335876
1772905688479936300,12.774936279296876,9.26291561126709,-0.3837489187717438,0.015254244208335876
1772905688489913900,12.784913818359374,9.26291561126709,-0.3813561201095581,0.017647067084908485
1772905688499906600,12.794906494140625,9.265308380126953,-0.37896329164505005,0.020039889961481094
1772905688509885700,12.8048857421875,9.267701148986816,-0.37896329164505005,0.022432712838053703
1772905688519858400,12.8148583984375,9.265308380126953,-0.37896329164505005,0.024825535714626312
