time,seconds_elapsed,z,y,x
1772905676031377400,0.32637744140625,-0.002748847473412752,-0.005467885639518499,0.005397620610892773
1772905676041377500,0.33637744140625,0.0026870996225625277,0.005315645132213831,0.005322032608091831
1772905676051377400,0.34637744140625,-0.0025359236169606447,0.0050792996771633625,0.005177244544029236
1772905676061377500,0.35637744140625,-0.0027275551110506058,-0.005048425402492285,0.00504310242831707
1772905676071377400,0.36637744140625,-0.0025242127012461424,0.0050047761760652065,0.00526454346254468
1772905676081377500,0.37637744140625,-0.002587025286629796,0.005456174723803997,-0.005174050573259592
1772905676091377400,0.38637744140625,-0.0026147053577005863,0.005389103665947914,-0.00527093093842268
1772905676101377500,0.39637744140625,0.002529535908252001,-0.0050420379266142845,0.005448722280561924
1772905676111377400,0.40637744140625,-0.0027190381661057472,0.0052400571294128895,0.005479596555233002
1772905676121377500,0.41637744140625,-0.0025412465911358595,-0.005080364178866148,-0.005164469126611948
1772905676131377400,0.42637744140625,-0.002552957506850362,0.005070782732218504,-0.005472144111990929
1772905676141377500,0.43637744140625,0.0025891545228660107,-0.005462562665343285,0.005144241265952587
1772905676151377400,0.44637744140625,0.0026029946748167276,0.005449787247925997,-0.005009034648537636
1772905676161377500,0.45637744140625,-0.0026700657326728106,-0.005233669187873602,0.00524644460529089
1772905676171377400,0.46637744140625,-0.0025444405619055033,0.005485984031111002,0.005153822712600231
1772905676181377500,0.47637744140625,-0.0026455793995410204,-0.005237927660346031,-0.0051559521816670895
1772905676191377400,0.48637744140625,0.0026029946748167276,0.005038843955844641,0.005167663097381592
1772905676201377500,0.49637744140625,-0.002611511619761586,-0.005227281711995602,0.005231540184468031
1772905676211377400,0.50637744140625,-0.0025306004099547863,0.005446593277156353,0.005241121631115675
1772905676221377500,0.51637744140625,0.00259341299533844,-0.0050516193732619286,-0.005093139596283436
1772905676231377400,0.52637744140625,0.0027296843472868204,-0.0052027953788638115,-0.005130401346832514
1772905676241377500,0.53637744140625,-0.0026423856616020203,-0.0054529812186956406,0.005197472404688597
1772905676251377400,0.54637744140625,0.0025146312545984983,0.005237927660346031,-0.00510272104293108
1772905676261377500,0.55637744140625,-0.0026402564253658056,-0.005185761488974094,0.0051655336283147335
1772905676271377400,0.56637744140625,0.002731813583523035,0.0051165614277124405,-0.005205989349633455
1772905676281377500,0.57637744140625,0.002577443839982152,0.004813144449144602,-0.004891926422715187
1772905676291377400,0.58637744140625,0.0024230738636106253,0.00450334046036005,-0.004894055891782045
1772905676301377500,0.59637744140625,0.0022665748838335276,0.004194600973278284,-0.004901507869362831
1772905676311377400,0.60637744140625,0.0021079466678202152,0.0038858610205352306,-0.004900443367660046
1772905676321377500,0.61637744140625,0.0019525120733305812,0.0035835092421621084,-0.00489937886595726
1772905676331377400,0.62637744140625,0,0.0030714271124452353,-0.004199923947453499
1772905676341377500,0.63637744140625,-0.00007771722448524088,-0.00015969292144291103,-0.00011178504792042077
1772905676351377400,0.64637744140625,-0.0001575636852066964,-0.0003023519238922745,-0.0002714779693633318
1772905676361377500,0.65637744140625,-0.00023421629157382995,-0.0004609802272170782,-0.00042797703645192087
1772905676371377400,0.66637744140625,-0.0003098042798228562,-0.0006206731777638197,-0.0005866053397767246
1772905676381377500,0.67637744140625,-0.0003896507259923965,-0.0007739783613942564,-0.0007452336139976978
1772905676391377400,0.68637744140625,-0.0003119335160590708,-0.0009230250725522637,-0.0008932157652452588
1772905676401377500,0.69637744140625,-0.00023528090969193727,-0.001075265696272254,-0.0007335228146985173
1772905676411377400,0.70637744140625,-0.0003119335160590708,-0.0012253769673407078,-0.0005748945404775441
1772905676421377500,0.71637744140625,-0.0003896507259923965,-0.0010763303143903613,-0.0007313935784623027
1772905676431377400,0.72637744140625,-0.00046630334691144526,-0.0009208958363160491,-0.0008793756715022027
1772905676441377500,0.73637744140625,-0.0003864568716380745,-0.0007697198889218271,-0.001034810091368854
1772905676451377400,0.74637744140625,-0.0003108688979409635,-0.0009230250725522637,-0.0010529087157920003
1772905676461377500,0.75637744140625,-0.00023102242266759276,-0.001075265696272254,-0.0008942803833633661
1772905676471377400,0.76637744140625,-0.00015649906708858907,-0.0012275063199922442,-0.0007441689958795905
1772905676481377500,0.77637744140625,-0.00008091107883956283,-0.0013818760635331273,-0.00090066809207201
1772905676491377400,0.78637744140625,-0.0000010646194823493715,-0.0015341166872531176,-0.0010561025701463223
1772905676501377500,0.79637744140625,0.00007345874473685399,-0.0016959388740360737,-0.0008996034739539027
1772905676511377400,0.80637744140625,-0.000006387716894096229,-0.0015383751597255468,-0.0007494920864701271
1772905676521377500,0.81637744140625,-0.00008516955858794972,-0.0013903930084779859,-0.0008985388558357954
1772905676531377400,0.82637744140625,-0.00015969292144291103,-0.0015500859590247273,-0.0010465210070833564
1772905676541377500,0.83637744140625,-0.00007984646072145551,-0.0017087142914533615,-0.0012040846049785614
1772905676551377400,0.84637744140625,-0.0000010646194823493715,-0.0018598901806399226,-0.001360583701170981
1772905676561377500,0.85637744140625,0.0000745233628549613,-0.002019583247601986,-0.0012115369318053126
1772905676571377400,0.86637744140625,0.00015117596194613725,-0.002177146729081869,-0.0013648421736434102
1772905676581377500,0.87637744140625,0.00022569933207705617,-0.002329387469217181,-0.001215795404277742
1772905676591377400,0.88637744140625,0.00014478825323749334,-0.002181405434384942,-0.0010571671882644296
1772905676601377500,0.89637744140625,0.00006494178524008021,-0.0020270354580134153,-0.0012136661680415273
1772905676611377400,0.90637744140625,0.0001043327065417543,-0.0018726657144725323,-0.0013648421736434102
1772905676621377500,0.91637744140625,0.00002874472556868568,-0.00171723123639822,-0.0012136661680415273
1772905676631377400,0.92637744140625,-0.000046843255404382944,-0.0015575382858514786,-0.0010656841332092881
1772905676641377500,0.93637744140625,-0.00012668971612583846,-0.0014095562510192394,-0.0012221831129863858
1772905676651377400,0.94637744140625,-0.00005216635327087715,-0.0015681844670325518,-0.0013733591185882688
1772905676661377500,0.95637744140625,0.00002661548751348164,-0.0014191378140822053,-0.0012243123492226005
1772905676671377400,0.96637744140625,0.00010326808842364699,-0.0012658325722441077,-0.001374423736706376
1772905676681377500,0.97637744140625,0.0001043327065417543,-0.0009581575286574662,-0.0011072042398154736
1772905676691377400,0.98637744140625,0.00010752656817203388,-0.0006547409575432539,-0.000796335400082171
1772905676701377500,0.99637744140625,0.00010646195005392656,-0.0003396136162336916,-0.0004865310911554843
1772905676711377400,1.00637744140625,0.00010539733193581924,-0.000018098531654686667,-0.00017246835341211408
1772905676721377500,1.01637744140625,0.00010646195005392656,0.0002970288333017379,-0.0001735329715302214
1772905676731377400,1.02637744140625,-0.000045778637286275625,0.0005983161390759051,-0.0001777914585545659
1772905676741377500,1.03637744140625,-0.00020014846813865006,0.0009113142732530832,-0.00018950227240566164
1772905676751377400,1.04637744140625,-0.00019908385002054274,0.0012179246405139565,-0.00020014846813865006
1772905676761377500,1.05637744140625,-0.00020121308625675738,0.0012211184948682785,0.00011178504792042077
1772905676771377400,1.06637744140625,-0.0001980192173505202,0.001215795404277742,0.00010539733193581924
1772905676781377500,1.07637744140625,-0.0003545182989910245,0.0012232477311044931,0.00010113885218743235
1772905676791377400,1.08637744140625,-0.0005046296282671392,0.0015373105416074395,0.00026828411500900984
1772905676801377500,1.09637744140625,-0.0006664518150500953,0.0018396624363958836,-0.000046843255404382944
1772905676811377400,1.10637744140625,-0.0008144339080899954,0.001837533200159669,-0.00003832630318356678
1772905676821377500,1.11637744140625,-0.0009666744736023247,0.0018354039639234543,-0.00003300320531707257
1772905676831377400,1.12637744140625,-0.0009688037098385394,0.001831145491451025,-0.000027680107450578362
1772905676841377500,1.13637744140625,-0.0009688037098385394,0.0018322101095691323,-0.00002661548751348164
1772905676851377400,1.14637744140625,-0.0008123046718537807,0.0015181474154815078,-0.00033748437999747694
1772905676861377500,1.15637744140625,-0.0006547409575432539,0.0012221831129863858,-0.00019163150864187628
1772905676871377400,1.16637744140625,-0.0004993065376766026,0.0012328294105827808,0.00010752656817203388
1772905676881377500,1.17637744140625,-0.0005025003920309246,0.0012392171192914248,0.0004120077355764806
1772905676891377400,1.18637744140625,-0.0005046296282671392,0.0015415690140798688,0.00041839544428512454
1772905676901377500,1.19637744140625,-0.0006579348118975759,0.0017395882168784738,0.00041946006240323186
1772905676911377400,1.20637744140625,-0.0008091108174994588,0.002049392554908991,0.0007335228146985173
1772905676921377500,1.21637744140625,-0.0009613513830117881,0.0023496150970458984,0.00043755859951488674
1772905676931377400,1.22637744140625,-0.0009570929105393589,0.0023602612782269716,0.00011923738202312961
1772905676941377500,1.23637744140625,-0.0009570929105393589,0.00236239074729383,0.00012030200014123693
1772905676951377400,1.24637744140625,-0.0009177019819617271,0.002358132041990757,0.00041946006240323186
1772905676961377500,1.25637744140625,-0.0009198312181979418,0.0023496150970458984,0.00042052470962516963
1772905676971377400,1.26637744140625,-0.0009177019819617271,0.0023432273883372545,0.0004301062726881355
1772905676981377500,1.27637744140625,-0.0009166373638436198,0.002348550595343113,0.00042584780021570623
1772905676991377400,1.28637744140625,-0.001072071841917932,0.002655161079019308,0.0007335228146985173
1772905677001377500,1.29637744140625,-0.0012296355562284589,0.0026658072602003813,0.0004364939813967794
1772905677011377400,1.30637744140625,-0.001387199154123664,0.002358132041990757,0.00043755859951488674
1772905677021377500,1.31637744140625,-0.0012328294105827808,0.0020579094998538494,0.0001288189523620531
1772905677031377400,1.32637744140625,-0.001081653404980898,0.0017449113074690104,0.00013414205750450492
1772905677041377500,1.33637744140625,-0.0009262189269065857,0.0014319132314994931,-0.0001767268404364586
1772905677051377400,1.34637744140625,-0.0007750429795123637,0.0011167858028784394,-0.000493983447086066
1772905677061377500,1.35637744140625,-0.0006196085596457124,0.0008069815812632442,-0.00018524378538131714
1772905677071377400,1.36637744140625,-0.0004684325831476599,0.0008091108174994588,-0.00018204993102699518
1772905677081377500,1.37637744140625,-0.0003172566066496074,0.000796335400082171,-0.00017992069479078054
1772905677091377400,1.38637744140625,-0.0003215150791220367,0.0007942061056382954,-0.00017885607667267323
1772905677101377500,1.39637744140625,-0.0003161919885315001,0.0007910122512839735,-0.00018098531290888786
1772905677111377400,1.40637744140625,-0.000322579697240144,0.0007878183969296515,0.00012243124365340918
1772905677121377500,1.41637744140625,-0.00032470893347635865,0.0007856891606934369,0.00024166861840058118
1772905677131377400,1.42637744140625,-0.00017459758964832872,0.0007803660701029003,0.00024912095977924764
1772905677141377500,1.43637744140625,-0.000017033911717589945,0.0007803660701029003,0.0005631836829707026
1772905677151377400,1.44637744140625,0.00013627129374071956,0.001092299586161971,0.0005536021199077368
1772905677161377500,1.45637744140625,0.0001394651480950415,0.001408491632901132,0.0008623417816124856
1772905677171377400,1.46637744140625,-0.000013840053725289181,0.0017119081458076835,0.0008591479272581637
1772905677181377500,1.47637744140625,-0.0001639513939153403,0.0020312939304858446,0.0008538248366676271
1772905677191377400,1.48637744140625,-0.00031938584288582206,0.002335775177925825,0.0011700168251991272
1772905677201377500,1.49637744140625,-0.0004737556737381965,0.0026328039821237326,0.001020970055833459
1772905677211377400,1.50637744140625,-0.0006323839770630002,0.0026221578009426594,0.0008091108174994588
1772905677221377500,1.51637744140625,-0.0007888830150477588,0.002823370974510908,0.0005046296282671392
1772905677231377400,1.52637744140625,-0.0009453821112401783,0.002519954228773713,0.000493983447086066
1772905677241377500,1.53637744140625,-0.0009453821112401783,0.002325128996744752,0.0004929188289679587
1772905677251377400,1.54637744140625,-0.000947511347476393,0.002012130804359913,0.00048333723680116236
1772905677261377500,1.55637744140625,-0.0009464467293582857,0.0017044558189809322,0.0007782368338666856
1772905677271377400,1.56637744140625,-0.0009507052018307149,0.0013946514809504151,0.0007878183969296515
1772905677281377500,1.57637744140625,-0.0009496405837126076,0.001397845335304737,0.0007931414875201881
1772905677291377400,1.58637744140625,-0.001105075003579259,0.0014063622802495956,0.0007942061056382954
1772905677301377500,1.59637744140625,-0.0011029457673430443,0.001407426898367703,0.0004844018549192697
1772905677311377400,1.60637744140625,-0.0011029457673430443,0.001101881149224937,0.00047801414621062577
1772905677321377500,1.61637744140625,-0.0011040103854611516,0.0011072042398154736,0.000490789592731744
1772905677331377400,1.62637744140625,0,0.0009496405837126076,0.00042052470962516963
1772905677341377500,1.63637744140625,0.00007984646072145551,-0.00016075753956101835,-0.0001586283033248037
1772905677351377400,1.64637744140625,0.00015436983085237443,-0.000322579697240144,-0.00030873966170474887
1772905677361377500,1.65637744140625,0.00022995780454948545,-0.00048227261868305504,-0.00015649906708858907
1772905677371377400,1.66637744140625,0.00030448116012848914,-0.000334290525643155,-0.00030448116012848914
1772905677381377500,1.67637744140625,0.00038326301728375256,-0.00048333723680116236,-0.0001490467257099226
1772905677391377400,1.68637744140625,0.00046204484533518553,-0.00032896740594878793,0.0000031938584470481146
1772905677401377500,1.69637744140625,0.0004109431174583733,-0.00017992069479078054,0.00016288677579723299
1772905677411377400,1.70637744140625,0.0004897249746136367,-0.000018098531654686667,0.000005323097411746858
1772905677421377500,1.71637744140625,0.00056424830108881,0.0001330774393863976,0.00015436983085237443
1772905677431377400,1.72637744140625,0.000485466473037377,0.0002853180340025574,-0.0000031938584470481146
1772905677441377500,1.73637744140625,0.0004056200268678367,0.000441817071987316,0.0001490467257099226
1772905677451377400,1.74637744140625,0.0003279027878306806,0.0005961869028396904,0.00030767504358664155
1772905677461377500,1.75637744140625,0.00025444405036978424,0.0007452336139976978,0.0004684325831476599
1772905677471377400,1.76637744140625,0.00017566220776643604,0.0008932157652452588,0.0006228024140000343
1772905677481377500,1.77637744140625,0.00009794499055715278,0.00104439165443182,0.0007835599244572222
1772905677491377400,1.78637744140625,0.000018098531654686667,0.0012040846049785614,0.0009368651662953198
1772905677501377500,1.79637744140625,-0.00006174793088575825,0.0013648421736434102,0.0010859118774533272
1772905677511377400,1.80637744140625,-0.0001394651480950415,0.001519212033599615,0.0012381525011733174
1772905677521377500,1.81637744140625,-0.00021292390010785311,0.001679969485849142,0.0013893283903598785
1772905677531377400,1.82637744140625,-0.00028744727023877203,0.001837533200159669,0.0015468921046704054
1772905677541377500,1.83637744140625,-0.0003609060076996684,0.001998290652409196,0.0013882637722417712
1772905677551377400,1.84637744140625,-0.0004396878357511014,0.0018385978182777762,0.001545827486552298
1772905677561377500,1.85637744140625,-0.0005152758094482124,0.0019950969144701958,0.0013861345360055566
1772905677571377400,1.86637744140625,-0.0005929930484853685,0.0018428562907502055,0.0015468921046704054
1772905677581377500,1.87637744140625,-0.00066858105128631,0.0020036138594150543,0.0013893283903598785
1772905677591377400,1.88637744140625,-0.0007473628502339125,0.0018492439994588494,0.0015468921046704054
1772905677601377500,1.89637744140625,-0.0008229508530348539,0.0020014846231788397,0.001397845335304737
1772905677611377400,1.90637744140625,-0.0008996034739539027,0.0018449855269864202,0.001552215195260942
1772905677621377500,1.91637744140625,-0.0009773207129910588,0.0020014846231788397,0.0013967807171866298
1772905677631377400,1.92637744140625,-0.001051844097673893,0.0018439209088683128,0.0015468921046704054
1772905677641377500,1.93637744140625,-0.00112849660217762,0.001992967678233981,0.0013914576265960932
1772905677651377400,1.94637744140625,-0.0012040846049785614,0.0018322101095691323,0.0015394397778436542
1772905677661377500,1.95637744140625,-0.0012818018440157175,0.0019865799695253372,0.0016959388740360737
1772905677671377400,1.96637744140625,-0.0013595190830528736,0.002136691240593791,0.0015468921046704054
1772905677681377500,1.97637744140625,-0.0013637775555253029,0.0024475601967424154,0.0018620194168761373
1772905677691377400,1.98637744140625,-0.0015160181792452931,0.0024518186692148447,0.002160112839192152
1772905677701377500,1.99637744140625,-0.0016671940684318542,0.0027669460978358984,0.0018535024719312787
1772905677711377400,2.00637744140625,-0.0018173054559156299,0.0027775922790169716,0.0018396624363958836
1772905677721377500,2.01637744140625,-0.0019716753158718348,0.0030863317660987377,0.0017481051618233323
1772905677731377400,2.02637744140625,-0.0021292390301823616,0.0027701398357748985,0.0017576867248862982
1772905677741377500,2.03637744140625,-0.0021558543667197227,0.0027712045703083277,0.0014361717039719224
1772905677751377400,2.04637744140625,-0.0023102243430912495,0.0024614003486931324,0.0014436240307986736
1772905677761377500,2.05637744140625,-0.002462464850395918,0.0021590483374893665,0.0014436240307986736
1772905677771377400,2.06637744140625,-0.0024592711124569178,0.002167565282434225,0.0014489471213892102
1772905677781377500,2.07637744140625,-0.0024539479054510593,0.0018503086175769567,0.0014510763576254249
1772905677791377400,2.08637744140625,-0.002457141876220703,0.0015394397778436542,0.0014436240307986736
1772905677801377500,2.09637744140625,-0.002462464850395918,0.0012370878830552101,0.0011263673659414053
1772905677811377400,2.10637744140625,-0.0023070303723216057,0.0009368651662953198,0.001125302747823298
1772905677821377500,2.11637744140625,-0.00230596587061882,0.0006355778314173222,0.0008101754356175661
1772905677831377400,2.12637744140625,-0.0023038366343826056,0.0003215150791220367,0.0004950480652041733
1772905677841377500,2.13637744140625,-0.0021462729200720787,0,0.000497177301440388
1772905677851377400,2.14637744140625,-0.0019950969144701958,-0.0003151273704133928,0.0004961126833222806
1772905677861377500,2.15637744140625,-0.001998290652409196,-0.0006270608864724636,0.00019482536299619824
1772905677871377400,2.16637744140625,-0.0018439209088683128,-0.0006281255045905709,-0.00012030200014123693
1772905677881377500,2.17637744140625,-0.0018236931646242738,-0.000944317493122071,0.00019908385002054274
1772905677891377400,2.18637744140625,-0.001824757782742381,-0.000624931650236249,-0.00011923738202312961
1772905677901377500,2.19637744140625,-0.0018268870189785957,-0.0009315420757047832,0.0001980192173505202
1772905677911377400,2.20637744140625,-0.001827951637096703,-0.0009368651662953198,0.00019482536299619824
1772905677921377500,2.21637744140625,-0.0018268870189785957,-0.0009421882568858564,0.00019056689052376896
1772905677931377400,2.22637744140625,-0.0018226285465061665,-0.0006302547408267856,0.00019163150864187628
1772905677941377500,2.23637744140625,-0.0018258224008604884,-0.0006281255045905709,0.00019056689052376896
1772905677951377400,2.24637744140625,-0.0018300808733329177,-0.0003215150791220367,-0.00011604352039285004
1772905677961377500,2.25637744140625,-0.0018268870189785957,-0.0003268381697125733,0.000050037117034662515
1772905677971377400,2.26637744140625,-0.0018290162552148104,-0.00002022776970989071,-0.00026083175907842815
1772905677981377500,2.27637744140625,-0.0018268870189785957,-0.00002022776970989071,-0.0002533794322516769
1772905677991377400,2.28637744140625,-0.0018258224008604884,0.0003023519238922745,-0.000561054446734488
1772905678001377500,2.29637744140625,-0.001824757782742381,-0.000010646194823493715,-0.0005695714498870075
1772905678011377400,2.30637744140625,-0.001827951637096703,-0.0003151273704133928,-0.00026934873312711716
1772905678021377500,2.31637744140625,-0.0019769982900470495,-0.0003034165420103818,-0.0005823468673042953
1772905678031377400,2.32637744140625,-0.0019738045521080494,-0.0003034165420103818,-0.0008889572927728295
1772905678041377500,2.33637744140625,-0.0019716753158718348,-0.0006132208509370685,-0.000578088394831866
1772905678051377400,2.34637744140625,-0.0019738045521080494,-0.000621737795881927,-0.0005727653042413294
1772905678061377500,2.35637744140625,-0.0019780630245804787,-0.0009421882568858564,-0.0007974000182002783
1772905678071377400,2.36637744140625,-0.001979127526283264,-0.0006291901227086782,-0.0011103980941697955
1772905678081377500,2.37637744140625,-0.001979127526283264,-0.0009283481631428003,-0.0007920768694020808
1772905678091377400,2.38637744140625,-0.001982321497052908,-0.0009379297844134271,-0.0008005938725546002
1772905678101377500,2.39637744140625,-0.001982321497052908,-0.0009421882568858564,-0.0008005938725546002
1772905678111377400,2.40637744140625,-0.0019865799695253372,-0.0012509279185906053,-0.0004929188289679587
1772905678121377500,2.41637744140625,-0.0019897737074643373,-0.001246669446118176,-0.0007995292544364929
1772905678131377400,2.42637744140625,-0.0019844507332891226,-0.0012445402098819613,-0.0008037877269089222
1772905678141377500,2.43637744140625,-0.001985515234991908,-0.0012413463555276394,-0.0007228766335174441
1772905678151377400,2.44637744140625,-0.0021356267388910055,-0.0009336713119409978,-0.0010252285283058882
1772905678161377500,2.45637744140625,-0.0019844507332891226,-0.0007835599244572222,-0.0010294870007783175
1772905678171377400,2.46637744140625,-0.0018268870189785957,-0.0007878183969296515,-0.0007132950704544783
1772905678181377500,2.47637744140625,-0.0018258224008604884,-0.0004726910556200892,-0.0010188408195972443
1772905678191377400,2.48637744140625,-0.0018236931646242738,-0.00015224058006424457,-0.0013222574489191175
1772905678201377500,2.49637744140625,-0.0016714525409042835,-0.0001575636852066964,-0.001330774393863976
1772905678211377400,2.50637744140625,-0.0016725171590223908,-0.0004726910556200892,-0.0013254513032734394
1772905678231377400,2.52637744140625,-0.0013850699178874493,-0.00017246835341211408,-0.0013222574489191175
1772905678241377500,2.53637744140625,-0.0012275063199922442,0.0001394651480950415,-0.0013254513032734394
1772905678251377400,2.54637744140625,-0.0010710072237998247,0.0004545925185084343,-0.0016288678161799908
1772905678261377500,2.55637744140625,-0.0009155727457255125,0.000453527900390327,-0.0013084172969684005
1772905678271377400,2.56637744140625,-0.0007612029439769685,0.0001394651480950415,-0.0016246093437075615
1772905678281377500,2.57637744140625,-0.000607897702138871,0.00014691748947370797,-0.0016278031980618834
1772905678291377400,2.58637744140625,-0.000453527900390327,-0.00016288677579723299,-0.001528793596662581
1772905678301377500,2.59637744140625,-0.0003023519238922745,-0.0001639513939153403,-0.0016991327283903956
1772905678311377400,2.60637744140625,-0.00015224058006424457,-0.00016608064470347017,-0.0016895511653274298
1772905678321377500,2.61637744140625,0,-0.00016288677579723299,-0.0013861345360055566
1772905678331377400,2.62637744140625,0,-0.0001394651480950415,-0.0011881153332069516
1772905678341377500,2.63637744140625,0.0000787818426033482,0.00016075753956101835,0.0001479821075918153
1772905678351377400,2.64637744140625,0.00015969292144291103,0.0003119335160590708,0.0003023519238922745
1772905678361377500,2.65637744140625,0.00023528090969193727,0.0004652386996895075,0.0004545925185084343
1772905678371377400,2.66637744140625,0.0001575636852066964,0.0003161919885315001,0.00030661042546853423
1772905678381377500,2.67637744140625,0.00007984646072145551,0.00046417408157140017,0.00015224058006424457
1772905678391377400,2.68637744140625,0.00015330521273426712,0.0006142854690551758,0.0002650902606546879
1772905678401377500,2.69637744140625,0.00022889318643137813,0.00045885099098086357,0.0004237185639794916
1772905678411377400,2.70637744140625,0.00015436983085237443,0.00030767504358664155,0.0002704133512452245
1772905678421377500,2.71637744140625,0.00023208704078570008,0.0002427332365186885,0.00011497890227474272
1772905678431377400,2.72637744140625,0.00030873966170474887,0.00015436983085237443,0.0002661548787727952
1772905678441377500,2.73637744140625,0.00038858610787428916,0.000002129238964698743,0.0004237185639794916
1772905678451377400,2.74637744140625,0.0004694972012657672,0.00015224058006424457,0.00026296102441847324
1772905678461377500,2.75637744140625,0.0005461497930809855,0.00030554577824659646,0.00042052470962516963
1772905678471377400,2.76637744140625,0.0006270608864724636,0.0004599156090989709,0.0005717006861232221
1772905678481377500,2.77637744140625,0.0007015842129476368,0.00030661042546853423,0.0004152015899308026
1772905678491377400,2.78637744140625,0.000776107597630471,0.0004162662080489099,0.00026296102441847324
1772905678501377500,2.79637744140625,0.0008527602185495198,0.00026296102441847324,0.0004120077355764806
1772905678511377400,2.80637744140625,0.0007750429795123637,0.00010326808842364699,0.0002512501960154623
1772905678531377400,2.82637744140625,0.0006164147052913904,0.00009262189269065857,0.0005546667380258441
1772905678541377500,2.83637744140625,0.0005365682300180197,0.0002512501960154623,0.00040136155439540744
1772905678551377400,2.84637744140625,0.0006100269383750856,0.00040668464498594403,0.0005536021199077368
1772905678561377500,2.85637744140625,0.0005355036118999124,0.0004737556737381965,0.0007079719798639417
1772905678571377400,2.86637744140625,0.0004609802272170782,0.0006259962683543563,0.0005536021199077368
1772905678581377500,2.87637744140625,0.0003864568716380745,0.0007856891606934369,0.000705842743627727
1772905678591377400,2.88637744140625,0.00030873966170474887,0.0009368651662953198,0.0008548894547857344
1772905678601377500,2.89637744140625,0.0002278285683132708,0.0007867537788115442,0.0006951965042389929
1772905678611377400,2.90637744140625,0.00015330521273426712,0.0009400590206496418,0.0005429559387266636
1772905678621377500,2.91637744140625,0.00007239412661874667,0.0007920768694020808,0.0006994549767114222
1772905678631377400,2.92637744140625,-0.0000010646194823493715,0.0006366424495354295,0.0008527602185495198
1772905678641377500,2.93637744140625,-0.00008091107883956283,0.0007910122512839735,0.0007047781255096197
1772905678651377400,2.94637744140625,-0.000004258477929397486,0.0006440947763621807,0.0008591479272581637
1772905678661377500,2.95637744140625,-0.00008197569695767015,0.0004918542108498514,0.001014582347124815
1772905678671377400,2.96637744140625,-0.00016288677579723299,0.0006398363038897514,0.0008623417816124856
1772905678681377500,2.97637744140625,-0.00031938584288582206,0.00033216128940694034,0.0008719233446754515
1772905678691377400,2.98637744140625,-0.0004790787643287331,0.00003406782343517989,0.0008697941084392369
1772905678701377500,2.99637744140625,-0.0006334485951811075,-0.00027360720559954643,0.0005621190648525953
1772905678711377400,3.00637744140625,-0.0006355778314173222,-0.0002778656780719757,0.0005493436474353075
1772905678721377500,3.01637744140625,-0.0006313193589448929,-0.000581282249186188,0.0005557313561439514
1772905678731377400,3.02637744140625,-0.0007814306882210076,-0.0008878926746547222,0.0005972515209577978
1772905678741377500,3.03637744140625,-0.0009326066938228905,-0.0008878926746547222,0.00028105953242629766
1772905678751377400,3.04637744140625,-0.0009326066938228905,-0.0008974742377176881,0.0005908638122491539
1772905678761377500,3.05637744140625,-0.0010901703499257565,-0.0009890315122902393,0.0005972515209577978
1772905678771377400,3.06637744140625,-0.001243475591763854,-0.0010497148614376783,0.0005951222847215831
1772905678781377500,3.07637744140625,-0.001397845335304737,-0.001055037952028215,0.0002768010599538684
1772905678791377400,3.08637744140625,-0.0015564736677333713,-0.0013637775555253029,0.000282124150544405
1772905678801377500,3.09637744140625,-0.001714037382043898,-0.0016703879227861762,-0.000029809345505782403
1772905678811377400,3.10637744140625,-0.0018737303325906396,-0.001985515234991908,-0.000024486247639288194
1772905678821377500,3.11637744140625,-0.002023841720074415,-0.001991902943700552,-0.00002874472556868568
1772905678831377400,3.12637744140625,-0.002173952991142869,-0.0019503828370943666,0.0002831887686625123
1772905678841377500,3.13637744140625,-0.0023272582329809666,-0.001955705927684903,-0.000024486247639288194
1772905678851377400,3.14637744140625,-0.0023261934984475374,-0.0016341909067705274,0.00028744727023877203
1772905678861377500,3.15637744140625,-0.0023261934984475374,-0.0019376074196770787,-0.000014904672752891202
1772905678871377400,3.16637744140625,-0.002325128996744752,-0.0016246093437075615,-0.00032364431535825133
1772905678881377500,3.17637744140625,-0.0023208705242723227,-0.0019376074196770787,-0.00032470893347635865
1772905678891377400,3.18637744140625,-0.0024720465298742056,-0.0022537994664162397,-0.0006313193589448929
1772905678901377500,3.19637744140625,-0.0024784342385828495,-0.0024784342385828495,-0.000947511347476393
1772905678911377400,3.20637744140625,-0.0024784342385828495,-0.002781850751489401,-0.0009485759655945003
1772905678921377500,3.21637744140625,-0.0024773695040494204,-0.0030937842093408108,-0.00125305715482682
1772905678931377400,3.22637744140625,-0.002476305002346635,-0.0033918777480721474,-0.0012722202809527516
1772905678941377500,3.23637744140625,-0.0023155473172664642,-0.003084202529862523,-0.0012615740997716784
1772905678951377400,3.24637744140625,-0.0021654360461980104,-0.003077814821153879,-0.0009560282924212515
1772905678961377500,3.25637744140625,-0.0020078723318874836,-0.002768010599538684,-0.0009613513830117881
1772905678971377400,3.26637744140625,-0.001854567090049386,-0.0024603356141597033,-0.0012754141353070736
1772905678981377500,3.27637744140625,-0.0017012619646266103,-0.002462464850395918,-0.0009794499492272735
1772905678991377400,3.28637744140625,-0.0016991327283903956,-0.002161177573725581,-0.0009794499492272735
1772905679001377500,3.29637744140625,-0.0015468921046704054,-0.0018620194168761373,-0.0009751914185471833
1772905679011377400,3.30637744140625,-0.0013861345360055566,-0.002161177573725581,-0.0006611287244595587
1772905679021377500,3.31637744140625,-0.0012317647924646735,-0.00186095479875803,-0.0006717749056406319
1772905679031377400,3.32637744140625,-0.0010742010781541467,-0.0015596675220876932,-0.0009751914185471833
1772905679041377500,3.33637744140625,-0.0009155727457255125,-0.0012487986823543906,-0.0006696456694044173
1772905679051377400,3.34637744140625,-0.0007590737077407539,-0.0009453821112401783,-0.0003555829171091318
1772905679061377500,3.35637744140625,-0.0006110915564931929,-0.0006355778314173222,-0.000050037117034662515
1772905679071377400,3.36637744140625,-0.00045778637286275625,-0.0003268381697125733,-0.00036409986205399036
1772905679081377500,3.37637744140625,-0.00030767504358664155,-0.000008516955858794972,-0.00005642483301926404
1772905679091377400,3.38637744140625,-0.0003108688979409635,0,-0.00036942295264452696
1772905679101377500,3.39637744140625,-0.00030661042546853423,0.0003119335160590708,-0.00006707102875225246
1772905679111377400,3.40637744140625,-0.0003034165420103818,0.00030661042546853423,-0.00005855407289345749
1772905679121377500,3.41637744140625,-0.00030661042546853423,0.0003119335160590708,0.0002618964063003659
1772905679131377400,3.42637744140625,-0.00030767504358664155,0.0003215150791220367,0.00026828411500900984
1772905679141377500,3.43637744140625,-0.0003023519238922745,0.00032577355159446597,0.000578088394831866
1772905679151377400,3.44637744140625,-0.0002980934514198452,0.00032577355159446597,0.0005802176310680807
1772905679161377500,3.45637744140625,-0.0003034165420103818,0.0003279027878306806,0.0005929930484853685
1772905679171377400,3.46637744140625,-0.00030554577824659646,0.00002022776970989071,0.0002704133512452245
1772905679181377500,3.47637744140625,-0.00030767504358664155,0.000024486247639288194,0.00027467182371765375
1772905679191377400,3.48637744140625,-0.0003108688979409635,-0.00029383497894741595,-0.00003513244155328721
1772905679201377500,3.49637744140625,-0.00030661042546853423,-0.00028744727023877203,-0.00003513244155328721
1772905679211377400,3.50637744140625,-0.0003108688979409635,-0.0005961869028396904,-0.00003300320531707257
1772905679221377500,3.51637744140625,-0.0003108688979409635,-0.0005908638122491539,-0.00003513244155328721
1772905679231377400,3.52637744140625,-0.00031299813417717814,-0.0005919284303672612,-0.00002661548751348164
1772905679241377500,3.53637744140625,-0.00030661042546853423,-0.0005834114854224026,-0.000023421627702191472
1772905679251377400,3.54637744140625,-0.0003108688979409635,-0.0005844761035405099,-0.000018098531654686667
1772905679261377500,3.55637744140625,-0.00031299813417717814,-0.0005876699578948319,-0.00002022776970989071
1772905679271377400,3.56637744140625,-0.0003119335160590708,-0.0005940576666034758,0.000006387716894096229
1772905679281377500,3.57637744140625,-0.0004673679650295526,-0.0009134435094892979,-0.0000010646194823493715
1772905679291377400,3.58637744140625,-0.0006174793234094977,-0.0012221831129863858,-0.00030448116012848914
1772905679301377500,3.59637744140625,-0.0007686552708037198,-0.0015383751597255468,-0.0006142854690551758
1772905679311377400,3.60637744140625,-0.0009240896906703711,-0.0018481793813407421,-0.0006025746115483344
1772905679321377500,3.61637744140625,-0.0010742010781541467,-0.0021526606287807226,-0.000903861946426332
1772905679331377400,3.62637744140625,0,-0.0018449855269864202,-0.0007750429795123637
1772905679341377500,3.63637744140625,-0.0000787818426033482,-0.00015436983085237443,-0.00015117596194613725
1772905679351377400,3.64637744140625,-0.00015543444897048175,-0.0003098042798228562,-0.0003098042798228562
1772905679361377500,3.65637744140625,-0.00022995780454948545,-0.00046417408157140017,-0.00045778637286275625
1772905679371377400,3.66637744140625,-0.00030767504358664155,-0.0006228024140000343,-0.0006142854690551758
1772905679381377500,3.67637744140625,-0.0003864568716380745,-0.0007750429795123637,-0.0007739783613942564
1772905679391377400,3.68637744140625,-0.00046204484533518553,-0.0009230250725522637,-0.000930477399379015
1772905679401377500,3.69637744140625,-0.0005397620843723416,-0.0010827180230990052,-0.0010805887868627906
1772905679411377400,3.70637744140625,-0.0006164147052913904,-0.001243475591763854,-0.0012328294105827808
1772905679421377500,3.71637744140625,-0.0006962611223571002,-0.0013999745715409517,-0.00138081144541502
1772905679431377400,3.72637744140625,-0.0007739783613942564,-0.0015479567227885127,-0.0015362459234893322
1772905679441377500,3.73637744140625,-0.0008485017460770905,-0.0017012619646266103,-0.001690615783445537
1772905679451377400,3.74637744140625,-0.0009283481631428003,-0.0018620194168761373,-0.001531987451016903
1772905679461377500,3.75637744140625,-0.0010039361659437418,-0.0020206477493047714,-0.00138081144541502
1772905679471377400,3.76637744140625,-0.001081653404980898,-0.0018598901806399226,-0.0015415690140798688
1772905679481377500,3.77637744140625,-0.0011551121715456247,-0.0017055204370990396,-0.0016980681102722883
1772905679491377400,3.78637744140625,-0.0012307001743465662,-0.0018588255625218153,-0.0015405043959617615
1772905679501377500,3.79637744140625,-0.00115298293530941,-0.0020089370664209127,-0.0013818760635331273
1772905679511377400,3.80637744140625,-0.0010795241687446833,-0.002163306809961796,-0.0012307001743465662
1772905679521377500,3.81637744140625,-0.0009986130753532052,-0.0020046785939484835,-0.001078459550626576
1772905679531377400,3.82637744140625,-0.0010731364600360394,-0.0018439209088683128,-0.000930477399379015
1772905679541377500,3.83637744140625,-0.0009986130753532052,-0.0016842280747368932,-0.0007771722157485783
1772905679551377400,3.84637744140625,-0.0009208958363160491,-0.0015277289785444736,-0.0006270608864724636
1772905679561377500,3.85637744140625,-0.0008421140373684466,-0.0016831634566187859,-0.0004726910556200892
1772905679571377400,3.86637744140625,-0.0007675906526856124,-0.001834339345805347,-0.00032470893347635865
1772905679581377500,3.87637744140625,-0.0008474371279589832,-0.0019833859987556934,-0.00016927449905779213
1772905679591377400,3.88637744140625,-0.000927283545024693,-0.0021388204768300056,-0.00032577355159446597
1772905679601377500,3.89637744140625,-0.0010018069297075272,-0.002298513427376747,-0.0004726910556200892
1772905679611377400,3.90637744140625,-0.0010763303143903613,-0.002452883403748274,-0.0006313193589448929
1772905679621377500,3.91637744140625,-0.0011572414077818394,-0.0026029946748167276,-0.000779301451984793
1772905679631377400,3.92637744140625,-0.0012360232649371028,-0.0027541706804186106,-0.0009400590206496418
1772905679641377500,3.93637744140625,-0.001313740387558937,-0.0029106696601957083,-0.0010891057318076491
1772905679651377400,3.94637744140625,-0.0013935868628323078,-0.002756299916654825,-0.0012392171192914248
1772905679661377500,3.95637744140625,-0.0013158696237951517,-0.0026051239110529423,-0.0013999745715409517
1772905679671377400,3.96637744140625,-0.0012370878830552101,-0.0027669460978358984,-0.0012392171192914248
1772905679681377500,3.97637744140625,-0.0010848472593352199,-0.002762687625363469,-0.0009336713119409978
1772905679691377400,3.98637744140625,-0.0010827180230990052,-0.0027541706804186106,-0.0009294127812609076
1772905679701377500,3.99637744140625,-0.0010859118774533272,-0.002756299916654825,-0.0009379297844134271
1772905679711377400,4.00637744140625,-0.0010880411136895418,-0.002750976709648967,-0.0009315420757047832
1772905679721377500,4.01637744140625,-0.0010827180230990052,-0.0027594936545938253,-0.0009262189269065857
1772905679731377400,4.02637744140625,-0.0010805887868627906,-0.0027669460978358984,-0.0009240896906703711
1772905679741377500,4.03637744140625,-0.0009283481631428003,-0.0027594936545938253,-0.0009230250725522637
1772905679751377400,4.04637744140625,-0.000930477399379015,-0.0027531059458851814,-0.0009283481631428003
1772905679761377500,4.05637744140625,-0.0009315420757047832,-0.002752041444182396,-0.0009358005481772125
1772905679771377400,4.06637744140625,-0.0007750429795123637,-0.0026817764155566692,-0.0009389944025315344
1772905679781377500,4.07637744140625,-0.0006270608864724636,-0.0026807119138538837,-0.0009336713119409978
1772905679791377400,4.08637744140625,-0.0006228024140000343,-0.002672194968909025,-0.0012424109736457467
1772905679801377500,4.09637744140625,-0.0006238670321181417,-0.002660484053194523,-0.001545827486552298
1772905679811377400,4.10637744140625,-0.0006206731777638197,-0.0029756114818155766,-0.0015394397778436542
1772905679821377500,4.11637744140625,-0.0006238670321181417,-0.0032843512017279863,-0.0015373105416074395
1772905679831377400,4.12637744140625,-0.0004737556737381965,-0.003292868146672845,-0.0018471147632226348
1772905679841377500,4.13637744140625,-0.00047056181938387454,-0.003296061884611845,-0.0018556317081674933
1772905679851377400,4.14637744140625,-0.000624931650236249,-0.0029883868992328644,-0.002166500547900796
1772905679861377500,4.15637744140625,-0.0007814306882210076,-0.002996903844177723,-0.0024784342385828495
1772905679871377400,4.16637744140625,-0.0006302547408267856,-0.0033152250107377768,-0.0027797215152531862
1772905679881377500,4.17637744140625,-0.0007824953063391149,-0.0036346109118312597,-0.0027839799877256155
1772905679891377400,4.18637744140625,-0.0007846245425753295,-0.003947609104216099,-0.0030852672643959522
1772905679901377500,4.19637744140625,-0.0007899476331658661,-0.003951867576688528,-0.0033886837773025036
1772905679911377400,4.20637744140625,-0.0009389944025315344,-0.003959320019930601,-0.00368677731603384
1772905679921377500,4.21637744140625,-0.0009379297844134271,-0.003956126049160957,-0.003994452301412821
1772905679931377400,4.22637744140625,-0.0009347359300591052,-0.003950803074985743,-0.003985935356467962
1772905679941377500,4.23637744140625,-0.0009400590206496418,-0.003938027657568455,-0.003993387799710035
1772905679951377400,4.24637744140625,-0.0009400590206496418,-0.0039337691850960255,-0.0039901938289403915
1772905679961377500,4.25637744140625,-0.0009358005481772125,-0.003941221162676811,-0.004001904744654894
1772905679971377400,4.26637744140625,-0.0009315420757047832,-0.003950803074985743,-0.003988064359873533
1772905679981377500,4.27637744140625,-0.0009294127812609076,-0.003942286130040884,-0.003995516803115606
1772905679991377400,4.28637744140625,-0.0009251543087884784,-0.004248896148055792,-0.004004033748060465
1772905680001377500,4.29637744140625,-0.0010795241687446833,-0.0045544421300292015,-0.004004033748060465
1772905680021377500,4.31637744140625,-0.0013829406816512346,-0.004545925185084343,-0.0046289656311273575
1772905680031377400,4.32637744140625,-0.0013829406816512346,-0.004548054654151201,-0.004627900663763285
1772905680041377500,4.33637744140625,-0.001384005299769342,-0.0045448606833815575,-0.004627900663763285
1772905680051377400,4.34637744140625,-0.00138081144541502,-0.004543796181678772,-0.004627900663763285
1772905680061377500,4.35637744140625,-0.0012275063199922442,-0.0042350562289357185,-0.004633224103599787
1772905680071377400,4.36637744140625,-0.0010773949325084686,-0.004228668753057718,-0.0043191611766815186
1772905680081377500,4.37637744140625,-0.0010742010781541467,-0.004233991727232933,-0.004014680162072182
1772905680091377400,4.38637744140625,-0.0009177019819617271,-0.003926316741853952,-0.004006163217127323
1772905680101377500,4.39637744140625,-0.0007569444715045393,-0.0036207707598805428,-0.004012550693005323
1772905680111377400,4.40637744140625,-0.0007558798533864319,-0.0036942295264452696,-0.0037048757076263428
1772905680121377500,4.41637744140625,-0.0007516213809140027,-0.0036963587626814842,-0.0034057176671922207
1772905680131377400,4.42637744140625,-0.0005983161390759051,-0.003698487998917699,-0.00309804268181324
1772905680141377500,4.43637744140625,-0.00044607557356357574,-0.003702746471390128,-0.0027839799877256155
1772905680151377400,4.44637744140625,-0.0002980934514198452,-0.0037048757076263428,-0.002480563474819064
1772905680161377500,4.45637744140625,-0.0001426590170012787,-0.003712328150868416,-0.002173952991142869
1772905680171377400,4.46637744140625,-0.00013733591185882688,-0.003702746471390128,-0.001865213387645781
1772905680181377500,4.47637744140625,-0.00013733591185882688,-0.003705940442159772,-0.0018662780057638884
1772905680191377400,4.48637744140625,0.000018098531654686667,-0.004014680162072182,-0.0015511505771428347
1772905680201377500,4.49637744140625,0.00017033911717589945,-0.0043191611766815186,-0.0012392171192914248
1772905680211377400,4.50637744140625,0.0001682098809396848,-0.004314902704209089,-0.0012349586468189955
1772905680221377500,4.51637744140625,0.00032470893347635865,-0.004315967205911875,-0.0012317647924646735
1772905680231377400,4.52637744140625,0.00032364431535825133,-0.004318096674978733,-0.0009294127812609076
1772905680241377500,4.53637744140625,0.00032364431535825133,-0.004306385759264231,-0.0006302547408267856
1772905680251377400,4.54637744140625,0.00032470893347635865,-0.0043021272867918015,-0.00032470893347635865
1772905680261377500,4.55637744140625,0.0004790787643287331,-0.004005098715424538,-0.00001916315159178339
1772905680271377400,4.56637744140625,0.00047694952809251845,-0.0037048757076263428,0.00028105953242629766
1772905680281377500,4.57637744140625,0.0012711556628346443,-0.003397200722247362,0.0005983161390759051
1772905680291377400,4.58637744140625,0.0008154985262081027,-0.0034089116379618645,0.0000010646194823493715
1772905680301377500,4.59637744140625,0.0008218862349167466,-0.0031395629048347473,0.0002587025228422135
1772905680311377400,4.60637744140625,0.0010795241687446833,-0.0028734079096466303,0.0005237928126007318
1772905680321377500,4.61637744140625,0.001081653404980898,-0.0026221578009426594,0.0007803660701029003
1772905680331377400,4.62637744140625,0,-0.002247411757707596,0.00066858105128631
1772905680341377500,4.63637744140625,-0.00013414205750450492,0.00013094820315018296,-0.00013627129374071956
1772905680351377400,4.64637744140625,-0.00026828411500900984,0.00026296102441847324,-0.000009581575795891695
1772905680361377500,4.65637744140625,-0.0004045554087497294,0.0004002969362773001,0.00011710814578691497
1772905680371377400,4.66637744140625,-0.00027467182371765375,0.0005355036118999124,-0.00001916315159178339
1772905680381377500,4.67637744140625,-0.00040881388122215867,0.00066858105128631,-0.00015330521273426712
1772905680391377400,4.68637744140625,-0.0005397620843723416,0.0008005938725546002,-0.000282124150544405
1772905680401377500,4.69637744140625,-0.0006760333781130612,0.0009262189269065857,-0.00015649906708858907
1772905680411377400,4.70637744140625,-0.0005493436474353075,0.0010539733339101076,-0.00028744727023877203
1772905680421377500,4.71637744140625,-0.0006770979962311685,0.0011913091875612736,-0.00042052470962516963
1772905680431377400,4.72637744140625,-0.0008037877269089222,0.0013286451576277614,-0.0005557313561439514
1772905680441377500,4.73637744140625,-0.0009389944025315344,0.0014574640663340688,-0.0006834857049398124
1772905680451377400,4.74637744140625,-0.0008112400537356734,0.0015905415639281273,-0.0005525375017896295
1772905680461377500,4.75637744140625,-0.0006802918505854905,0.0017257481813430786,-0.00042584780021570623
1772905680471377400,4.76637744140625,-0.0005472144111990929,0.0018556317081674933,-0.00029489959706552327
1772905680481377500,4.77637744140625,-0.00041307235369458795,0.0019897737074643373,-0.0001639513939153403
1772905680491377400,4.78637744140625,-0.0005429559387266636,0.002120722085237503,-0.000031938583560986444
1772905680501377500,4.79637744140625,-0.0006675164331682026,0.00225699320435524,0.00009475113620283082
1772905680511377400,4.80637744140625,-0.0008048523450270295,0.0023911353200674057,0.0002267639501951635
1772905680521377500,4.81637744140625,-0.0009421882568858564,0.0025178249925374985,0.0003609060076996684
1772905680531377400,4.82637744140625,-0.0010742010781541467,0.002650902606546879,0.0004897249746136367
1772905680541377500,4.83637744140625,-0.0012040846049785614,0.0027807860169559717,0.0006142854690551758
1772905680551377400,4.84637744140625,-0.0010731364600360394,0.0029096051584929228,0.0007473628502339125
1772905680561377500,4.85637744140625,-0.0009464467293582857,0.0030458762776106596,0.0008761818171478808
1772905680571377400,4.86637744140625,-0.0008112400537356734,0.0031725659500807524,0.0010060654021799564
1772905680581377500,4.87637744140625,-0.0009421882568858564,0.0033045788295567036,0.0011412721360102296
1772905680591377400,4.88637744140625,-0.0008059169631451368,0.003174695186316967,0.0012690264265984297
1772905680601377500,4.89637744140625,-0.0006760333781130612,0.003306708065792918,0.0013957160990685225
1772905680611377400,4.90637744140625,-0.000540826702490449,0.003433397738263011,0.001522405887953937
1772905680621377500,4.91637744140625,-0.00040668464498594403,0.003562216879799962,0.0016480309423059225
1772905680631377400,4.92637744140625,-0.00027360720559954643,0.0036952942609786987,0.0017832376761361957
1772905680641377500,4.93637744140625,-0.000409878499340266,0.003831565612927079,0.001915250439196825
1772905680651377400,4.94637744140625,-0.0002831887686625123,0.0036963587626814842,0.0018939580768346786
1772905680661377500,4.95637744140625,-0.00015011134382802993,0.003820919431746006,0.002030229428783059
1772905680671377400,4.96637744140625,-0.0002863826521206647,0.0036878418177366257,0.001898216549307108
1772905680681377500,4.97637744140625,-0.0004237185639794916,0.0035568936727941036,0.0017736561130732298
1772905680701377500,4.99637744140625,-0.0006760333781130612,0.003565410617738962,0.0017736561130732298
1772905680711377400,5.00637744140625,-0.0008048523450270295,0.003439785446971655,0.0016373847611248493
1772905680721377500,5.01637744140625,-0.0009326066938228905,0.0033077728003263474,0.0015096304705366492
1772905680731377400,5.02637744140625,-0.0010699426056817174,0.0034365917090326548,0.0013754883548244834
1772905680741377500,5.03637744140625,-0.0010646195150911808,0.0034323332365602255,0.0013861345360055566
1772905680751377400,5.04637744140625,-0.0010571671882644296,0.003171501448377967,0.001122108893468976
1772905680761377500,5.05637744140625,-0.0010507794795557857,0.0029021527152508497,0.0008687294903211296
1772905680771377400,5.06637744140625,-0.0013084172969684005,0.0026317392475903034,0.0008719233446754515
1772905680781377500,5.07637744140625,-0.0013041588244959712,0.0023613260127604008,0.0008761818171478808
1772905680791377400,5.08637744140625,-0.0013020295882597566,0.0020919772796332836,0.0008772464352659881
1772905680801377500,5.09637744140625,-0.0010678133694455028,0.0018290162552148104,0.0006238670321181417
1772905680811377400,5.10637744140625,-0.0013297097757458687,0.001831145491451025,0.0007952707819640636
1772905680821377500,5.11637744140625,-0.0010763303143903613,0.0018194346921518445,0.0010582318063825369
1772905680831377400,5.12637744140625,-0.0008144339080899954,0.0018183700740337372,0.0010592964245006442
1772905680841377500,5.13637744140625,-0.0005482790293172002,0.001824757782742381,0.0013148050056770444
1772905680851377400,5.14637744140625,-0.0005397620843723416,0.0018290162552148104,0.0013116111513227224
1772905680861377500,5.15637744140625,-0.0005418913206085563,0.001827951637096703,0.0010507794795557857
1772905680871377400,5.16637744140625,-0.0005440205568447709,0.0018322101095691323,0.001051844097673893
1772905680881377500,5.17637744140625,-0.000540826702490449,0.0018290162552148104,0.0010582318063825369
1772905680891377400,5.18637744140625,-0.0002842534158844501,0.0018300808733329177,0.0010561025701463223
1772905680901377500,5.19637744140625,-0.000024486247639288194,0.0018226285465061665,0.0010667487513273954
1772905680911377400,5.20637744140625,0.00024060400028247386,0.0018162408377975225,0.0010635548969730735
1772905680921377500,5.21637744140625,0.0005056942463852465,0.0018183700740337372,0.0010592964245006442
1772905680931377400,5.22637744140625,0.0007739783613942564,0.001814111601561308,0.0010603610426187515
1772905680941377500,5.23637744140625,0.0010358747094869614,0.0018119823653250933,0.0010678133694455028
1772905680951377400,5.24637744140625,0.0010326808551326394,0.0018173054559156299,0.0010656841332092881
1772905680961377500,5.25637744140625,0.0010401331819593906,0.0018066592747345567,0.0010742010781541467
1772905680971377400,5.26637744140625,0.0010401331819593906,0.0018183700740337372,0.0010699426056817174
1772905680981377500,5.27637744140625,0.0013030942063778639,0.0018204993102699518,0.0010635548969730735
1772905680991377400,5.28637744140625,0.0013041588244959712,0.0018173054559156299,0.0010678133694455028
1772905681001377500,5.29637744140625,0.0013084172969684005,0.0018183700740337372,0.00106887798756361
1772905681011377400,5.30637744140625,0.001038003945723176,0.0018258224008604884,0.0010731364600360394
1772905681021377500,5.31637744140625,0.0007739783613942564,0.0018290162552148104,0.0010071300202980638
1772905681031377400,5.32637744140625,0.0007739783613942564,0.0018258224008604884,0.0007420397596433759
1772905681041377500,5.33637744140625,0.0010422624181956053,0.001824757782742381,0.0007441689958795905
1772905681051377400,5.34637744140625,0.0010465210070833564,0.002090912777930498,0.0006345132132992148
1772905681061377500,5.35637744140625,0.0007846245425753295,0.0018354039639234543,0.0006291901227086782
1772905681071377400,5.36637744140625,0.0007920768694020808,0.001837533200159669,0.0008921511471271515
1772905681081377500,5.37637744140625,0.0008027231087908149,0.0018428562907502055,0.001105075003579259
1772905681091377400,5.38637744140625,0.0007974000182002783,0.0015745721757411957,0.001105075003579259
1772905681101377500,5.39637744140625,0.0007888830150477588,0.0015649906126782298,0.0008538248366676271
1772905681111377400,5.40637744140625,0.0007888830150477588,0.0015596675220876932,0.0008591479272581637
1772905681121377500,5.41637744140625,0.0007888830150477588,0.0015543444314971566,0.0008591479272581637
1772905681131377400,5.42637744140625,0.0007931414875201881,0.00129670649766922,0.0008612771634943783
1772905681141377500,5.43637744140625,0.0007888830150477588,0.00104439165443182,0.0008623417816124856
1772905681151377400,5.44637744140625,0.0007867537788115442,0.0013009649701416492,0.0008666002540849149
1772905681161377500,5.45637744140625,0.0007856891606934369,0.0015681844670325518,0.0008623417816124856
1772905681171377400,5.46637744140625,0.001045456388965249,0.0015767014119774103,0.0010220346739515662
1772905681181377500,5.47637744140625,0.0013084172969684005,0.0015884122112765908,0.001287124934606254
1772905681191377400,5.48637744140625,0.0013084172969684005,0.0015990585088729858,0.001552215195260942
1772905681201377500,5.49637744140625,0.0013414205750450492,0.0016043815994635224,0.001552215195260942
1772905681211377400,5.50637744140625,0.0016043815994635224,0.0013456790475174785,0.0013765529729425907
1772905681221377500,5.51637744140625,0.0016043815994635224,0.0010880411136895418,0.0011167858028784394
1772905681231377400,5.52637744140625,0.0015958646545186639,0.0008240154711529613,0.001122108893468976
1772905681241377500,5.53637744140625,0.0015990585088729858,0.0005599898286163807,0.0011263673659414053
1772905681261377500,5.55637744140625,0.0015916061820462346,0.0002863826521206647,0.0013935868628323078
1772905681271377400,5.56637744140625,0.0015873475931584835,0.000017033911717589945,0.0013882637722417712
1772905681281377500,5.57637744140625,0.0013179989764466882,-0.0002480563416611403,0.001125302747823298
1772905681291377400,5.58637744140625,0.0013201282126829028,-0.0005088881007395685,0.0008644710178487003
1772905681301377500,5.59637744140625,0.0010497148614376783,-0.0007675906526856124,0.0005940576666034758
1772905681311377400,5.60637744140625,0.0007888830150477588,-0.0010305516188964248,0.00033854899811558425
1772905681321377500,5.61637744140625,0.0005259220488369465,-0.0012892541708424687,0.00008091107883956283
1772905681331377400,5.62637744140625,0,-0.001105075003579259,0.0000692002649884671
1772905681341377500,5.63637744140625,-0.00013520667562261224,-0.00013733591185882688,-0.0001330774393863976
1772905681351377400,5.64637744140625,-0.0002618964063003659,-0.0002725425874814391,-0.0002618964063003659
1772905681361377500,5.65637744140625,-0.00038858610787428916,-0.0003981677000410855,-0.00039284458034671843
1772905681371377400,5.66637744140625,-0.0005195342819206417,-0.00026296102441847324,-0.0005237928126007318
1772905681381377500,5.67637744140625,-0.0006526117213070393,-0.0003992323181591928,-0.0006558055756613612
1772905681391377400,5.68637744140625,-0.0007878183969296515,-0.000534438993781805,-0.0007931414875201881
1772905681401377500,5.69637744140625,-0.0009240896906703711,-0.0006611287244595587,-0.000927283545024693
1772905681411377400,5.70637744140625,-0.0010603610426187515,-0.0005259220488369465,-0.0010529087157920003
1772905681421377500,5.71637744140625,-0.0009347359300591052,-0.0003992323181591928,-0.000927283545024693
1772905681431377400,5.72637744140625,-0.0008069815812632442,-0.0005291159031912684,-0.000796335400082171
1772905681441377500,5.73637744140625,-0.0009326066938228905,-0.0006589994882233441,-0.0009262189269065857
1772905681451377400,5.74637744140625,-0.0010582318063825369,-0.0005248574307188392,-0.0010529087157920003
1772905681461377500,5.75637744140625,-0.0011870507150888443,-0.0006536763394251466,-0.001189179951325059
1772905681471377400,5.76637744140625,-0.0010507794795557857,-0.0007835599244572222,-0.0010592964245006442
1772905681481377500,5.77637744140625,-0.0009177019819617271,-0.0009155727457255125,-0.0009283481631428003
1772905681491377400,5.78637744140625,-0.0007835599244572222,-0.0010497148614376783,-0.0010592964245006442
1772905681501377500,5.79637744140625,-0.0006536763394251466,-0.0011806630063802004,-0.0011870507150888443
1772905681511377400,5.80637744140625,-0.0005259220488369465,-0.001313740387558937,-0.001316934241913259
1772905681521377500,5.81637744140625,-0.0006515471031889319,-0.0014436240307986736,-0.0014468178851529956
1772905681531377400,5.82637744140625,-0.000779301451984793,-0.0015735075576230884,-0.0015745721757411957
1772905681541377500,5.83637744140625,-0.0006440947763621807,-0.001700197346508503,-0.0017087142914533615
1772905681551377400,5.84637744140625,-0.0005120819550938904,-0.001831145491451025,-0.0018364685820415616
1772905681561377500,5.85637744140625,-0.00064835324883461,-0.0019610291346907616,-0.001700197346508503
1772905681571377400,5.86637744140625,-0.000779301451984793,-0.0020877188071608543,-0.0018354039639234543
1772905681581377500,5.87637744140625,-0.0006504824850708246,-0.002214408479630947,-0.0019610291346907616
1772905681591377400,5.88637744140625,-0.0005184696638025343,-0.002348550595343113,-0.002097300486639142
1772905681601377500,5.89637744140625,-0.0003907153441105038,-0.0024773695040494204,-0.002227183897048235
1772905681611377400,5.90637744140625,-0.00026083175907842815,-0.002351744333282113,-0.002359196776524186
1772905681621377500,5.91637744140625,-0.00013094820315018296,-0.002217602450400591,-0.002233571605756879
1772905681631377400,5.92637744140625,0.000002129238964698743,-0.0023464213591068983,-0.002103688195347786
1772905681641377500,5.93637744140625,0.00013627129374071956,-0.0024752402678132057,-0.0019716753158718348
1772905681651377400,5.94637744140625,0.000009581575795891695,-0.0023442921228706837,-0.0018460501451045275
1772905681661377500,5.95637744140625,-0.00012136661825934425,-0.002210150007158518,-0.0017087142914533615
1772905681671377400,5.96637744140625,0.000013840053725289181,-0.002335775177925825,-0.0015735075576230884
1772905681681377500,5.97637744140625,0.00014691748947370797,-0.002466723322868347,-0.001703391200862825
1772905681691377400,5.98637744140625,0.000018098531654686667,-0.0025923484936356544,-0.001831145491451025
1772905681701377500,5.99637744140625,0.00015224058006424457,-0.0027307490818202496,-0.0019663521088659763
1772905681711377400,6.00637744140625,0.0002842534158844501,-0.0028574387542903423,-0.001837533200159669
1772905681721377500,6.01637744140625,0.000409878499340266,-0.002993709873408079,-0.001703391200862825
1772905681731377400,6.02637744140625,0.000537632848136127,-0.003128916723653674,-0.0015777660300955176
1772905681741377500,6.03637744140625,0.0008069815812632442,-0.003124658251181245,-0.0013105465332046151
1772905681751377400,6.04637744140625,0.0010656841332092881,-0.0031235935166478157,-0.001048650243319571
1772905681761377500,6.05637744140625,0.0013179989764466882,-0.0031235935166478157,-0.001048650243319571
1772905681771377400,6.06637744140625,0.0015798952663317323,-0.003386554541066289,-0.0010497148614376783
1772905681781377500,6.07637744140625,0.0018396624363958836,-0.003387619275599718,-0.0007846245425753295
1772905681791377400,6.08637744140625,0.0021079466678202152,-0.0033780375961214304,-0.000517405045684427
1772905681801377500,6.09637744140625,0.002371972193941474,-0.003383360803127289,-0.000517405045684427
1772905681811377400,6.10637744140625,0.0026391916908323765,-0.0033886837773025036,-0.0003907153441105038
1772905681821377500,6.11637744140625,0.0026391916908323765,-0.003386554541066289,-0.0003800691629294306
1772905681831377400,6.12637744140625,0.0026466441340744495,-0.0033886837773025036,-0.00038326301728375256
1772905681841377500,6.13637744140625,0.002907475922256708,-0.003128916723653674,-0.00012136661825934425
1772905681851377400,6.14637744140625,0.0031704367138445377,-0.0034014591947197914,0.00013414205750450492
1772905681861377500,6.15637744140625,0.0031672429759055376,-0.003397200722247362,0.00014372363511938602
1772905681871377400,6.16637744140625,0.0028968295082449913,-0.003394006984308362,-0.00011497890227474272
1772905681881377500,6.17637744140625,0.0026359979528933764,-0.003386554541066289,-0.0003726168069988489
1772905681891377400,6.18637744140625,0.0023751661647111177,-0.00312252901494503,-0.0003715521888807416
1772905681901377500,6.19637744140625,0.0021111404057592154,-0.0031193350441753864,-0.00037474604323506355
1772905681911377400,6.20637744140625,0.0018535024719312787,-0.0031161413062363863,-0.0003726168069988489
1772905681921377500,6.21637744140625,0.001851373235695064,-0.0031129473354667425,-0.00037793992669321597
1772905681931377400,6.22637744140625,0.002106881933286786,-0.003118270542472601,-0.0003811337810475379
1772905681941377500,6.23637744140625,0.0020983649883419275,-0.0031193350441753864,-0.00037368142511695623
1772905681951377400,6.24637744140625,0.001831145491451025,-0.003115076571702957,-0.0003726168069988489
1772905681961377500,6.25637744140625,0.0018417916726320982,-0.003117205807939172,-0.0006366424495354295
1772905681971377400,6.26637744140625,0.0021047526970505714,-0.0031203997787088156,-0.0006398363038897514
1772905681981377500,6.27637744140625,0.002106881933286786,-0.0031267874874174595,-0.0006409009220078588
1772905681991377400,6.28637744140625,0.0018481793813407421,-0.003121464280411601,-0.0006419655401259661
1772905682001377500,6.29637744140625,0.0018449855269864202,-0.003127851989120245,-0.00064835324883461
1772905682011377400,6.30637744140625,0.0018460501451045275,-0.00312252901494503,-0.00038752148975618184
1772905682021377500,6.31637744140625,0.0018417916726320982,-0.0031257227528840303,-0.00037793992669321597
1772905682031377400,6.32637744140625,0.0018428562907502055,-0.0031310459598898888,-0.00037793992669321597
1772905682041377500,6.33637744140625,0.001837533200159669,-0.0031299812253564596,-0.00037368142511695623
1772905682051377400,6.34637744140625,0.0020941065158694983,-0.003397200722247362,-0.00036942295264452696
1772905682061377500,6.35637744140625,0.0023538735695183277,-0.00365909724496305,-0.00037368142511695623
1772905682071377400,6.36637744140625,0.002264445647597313,-0.00340678240172565,-0.00037368142511695623
1772905682081377500,6.37637744140625,0.002002549357712269,-0.0031470151152461767,-0.00011497890227474272
1772905682091377400,6.38637744140625,0.002267639385536313,-0.0031555320601910353,0.00014585287135560066
1772905682101377500,6.39637744140625,0.0022665748838335276,-0.0031544675584882498,0.00014691748947370797
1772905682111377400,6.40637744140625,0.0020089370664209127,-0.0029021527152508497,-0.0001139142841566354
1772905682121377500,6.41637744140625,0.0020089370664209127,-0.002633868483826518,-0.0003800691629294306
1772905682131377400,6.42637744140625,0.0020089370664209127,-0.00236239074729383,-0.0003790045448113233
1772905682141377500,6.43637744140625,0.0017481051618233323,-0.0020919772796332836,-0.0003864568716380745
1772905682151377400,6.44637744140625,0.001753428252413869,-0.002086654072627425,-0.0003853922535199672
1772905682161377500,6.45637744140625,0.0017544928705319762,-0.0020983649883419275,-0.0002842534158844501
1772905682171377400,6.46637744140625,0.001494725700467825,-0.0018439209088683128,-0.000017033911717589945
1772905682181377500,6.47637744140625,0.001494725700467825,-0.0015809598844498396,-0.000025550867576384917
1772905682191377400,6.48637744140625,0.0014862087555229664,-0.001324386685155332,-0.0002831887686625123
1772905682201377500,6.49637744140625,0.0014862087555229664,-0.0010603610426187515,-0.0002778656780719757
1772905682211377400,6.50637744140625,0.001485144137404859,-0.0010635548969730735,-0.0004152015899308026
1772905682221377500,6.51637744140625,0.0014872733736410737,-0.0013190635945647955,-0.00042265394586138427
1772905682231377400,6.52637744140625,0.001485144137404859,-0.0013190635945647955,-0.0004247831820975989
1772905682241377500,6.53637744140625,0.0014840795192867517,-0.001575636793859303,-0.0004237185639794916
1772905682251377400,6.54637744140625,0.0014808856649324298,-0.0015660552307963371,-0.0004237185639794916
1772905682261377500,6.55637744140625,0.001740652834996581,-0.001575636793859303,-0.00016288677579723299
1772905682271377400,6.56637744140625,0.0020046785939484835,-0.0015809598844498396,0.00009155727457255125
1772905682281377500,6.57637744140625,0.0022655101493000984,-0.0015905415639281273,0.00008516955858794972
1772905682291377400,6.58637744140625,0.0025178249925374985,-0.0018460501451045275,0.00008091107883956283
1772905682301377500,6.59637744140625,0.002778656780719757,-0.0018524378538131714,0.00034387208870612085
1772905682311377400,6.60637744140625,0.0030352300964295864,-0.001857760944403708,0.000601509993430227
1772905682321377500,6.61637744140625,0.0032981911208480597,-0.0015990585088729858,0.0008729879627935588
1772905682331377400,6.62637744140625,0,-0.0013701652642339468,0.0007484274683520198
1772905682341377500,6.63637744140625,-0.0001288189523620531,-0.00012988357048016042,0.00012562509800773114
1772905682351377400,6.64637744140625,-0.00026083175907842815,-0.00025550866848789155,-0.0000031938584470481146
1772905682361377500,6.65637744140625,-0.00039284458034671843,-0.00012136661825934425,-0.00013733591185882688
1772905682371377400,6.66637744140625,-0.0005216635181568563,0.000010646194823493715,-0.00026934873312711716
1772905682381377500,6.67637744140625,-0.0006589994882233441,0.00014478825323749334,-0.0003960384347010404
1772905682391377400,6.68637744140625,-0.0007931414875201881,0.00001916315159178339,-0.0005323097575455904
1772905682401377500,6.69637744140625,-0.0009294127812609076,-0.00011072042980231345,-0.0006579348118975759
1772905682411377400,6.70637744140625,-0.0010582318063825369,-0.00024486248730681837,-0.0007867537788115442
1772905682421377500,6.71637744140625,-0.0011934384237974882,-0.00011923738202312961,-0.0009166373638436198
1772905682431377400,6.72637744140625,-0.001330774393863976,0.000015969291780493222,-0.001048650243319571
1772905682441377500,6.73637744140625,-0.0014627871569246054,0.00014159438433125615,-0.001185986096970737
1772905682451377400,6.74637744140625,-0.001592670800164342,0.0002768010599538684,-0.0013211928308010101
1772905682461377500,6.75637744140625,-0.0017193604726344347,0.00014159438433125615,-0.0014553348300978541
1772905682471377400,6.76637744140625,-0.0018503086175769567,0.0002768010599538684,-0.0015809598844498396
1772905682481377500,6.77637744140625,-0.001975933788344264,0.0004045554087497294,-0.0017129727639257908
1772905682491377400,6.78637744140625,-0.0021015589591115713,0.0005365682300180197,-0.0018439209088683128
1772905682501377500,6.79637744140625,-0.0022357008419930935,0.0004109431174583733,-0.001981256762519479
1772905682511377400,6.80637744140625,-0.0021090111695230007,0.00027360720559954643,-0.0019141858210787177
1772905682521377500,6.81637744140625,-0.001982321497052908,0.0001384005299769342,-0.0020408756099641323
1772905682531377400,6.82637744140625,-0.00211007590405643,0.0002650902606546879,-0.0019131212029606104
1772905682541377500,6.83637744140625,-0.0019738045521080494,0.0003971030528191477,-0.0017821730580180883
1772905682551377400,6.84637744140625,-0.0018460501451045275,0.0005248574307188392,-0.0016459017060697079
1772905682561377500,6.85637744140625,-0.0017161666182801127,0.00039390919846482575,-0.0017789792036637664
1772905682571377400,6.86637744140625,-0.0015830891206860542,0.0005259220488369465,-0.0019163150573149323
1772905682581377500,6.87637744140625,-0.0014563994482159615,0.000662193342577666,-0.0017864315304905176
1772905682591377400,6.88637744140625,-0.0013254513032734394,0.0005301805213093758,-0.0016586771234869957
1772905682601377500,6.89637744140625,-0.0011998261325061321,0.0006632579606957734,-0.0015245351241901517
1772905682611377400,6.90637744140625,-0.0010646195150911808,0.0007899476331658661,-0.0013893283903598785
1772905682621377500,6.91637744140625,-0.0011987615143880248,0.0006589994882233441,-0.0012626387178897858
1772905682631377400,6.92637744140625,-0.0013265159213915467,0.0005333743756636977,-0.0011274319840595126
1772905682641377500,6.93637744140625,-0.0014542702119797468,0.000665387196931988,-0.0012573156272992492
1772905682651377400,6.94637744140625,-0.0015905415639281273,0.0007910122512839735,-0.001387199154123664
1772905682661377500,6.95637744140625,-0.001726812799461186,0.0006632579606957734,-0.0015202766517177224
1772905682671377400,6.96637744140625,-0.0018566963262856007,0.0005312451394274831,-0.0016544186510145664
1772905682681377500,6.97637744140625,-0.001982321497052908,0.0003971030528191477,-0.0017821730580180883
1772905682691377400,6.98637744140625,-0.00211326964199543,0.0005227281944826245,-0.0019195089116692543
1772905682701377500,6.99637744140625,-0.002245282521471381,0.00038858610787428916,-0.0017821730580180883
1772905682711377400,7.00637744140625,-0.0021185928490012884,0.00025444405036978424,-0.0016554832691326737
1772905682721377500,7.01637744140625,-0.0019908384419977665,0.00012030200014123693,-0.0017789792036637664
1772905682731377400,7.02637744140625,-0.001857760944403708,-0.000006387716894096229,-0.0019077981123700738
1772905682741377500,7.03637744140625,-0.0015990585088729858,-0.000002129238964698743,-0.0019088627304881811
1772905682751377400,7.04637744140625,-0.0013329036301001906,-0.0000031938584470481146,-0.0016459017060697079
1772905682761377500,7.05637744140625,-0.0010646195150911808,-0.0002650902606546879,-0.0013850699178874493
1772905682771377400,7.06637744140625,-0.0008005938725546002,-0.0005312451394274831,-0.0011210442753508687
1772905682781377500,7.07637744140625,-0.0005355036118999124,-0.000796335400082171,-0.000863406399730593
1772905682791377400,7.08637744140625,-0.0002661548787727952,-0.0008059169631451368,-0.0005951222847215831
1772905682801377500,7.09637744140625,0.0000031938584470481146,-0.0008101754356175661,-0.0003353551437612623
1772905682811377400,7.10637744140625,0.0002587025228422135,-0.0008101754356175661,-0.00007558798097306862
1772905682821377500,7.11637744140625,0.0005291159031912684,-0.0008027231087908149,0.00017992069479078054
1772905682831377400,7.12637744140625,0.0007931414875201881,-0.001075265696272254,0.0004407524538692087
1772905682841377500,7.13637744140625,0.0010529087157920003,-0.00106887798756361,0.0007069073617458344
1772905682851377400,7.14637744140625,0.0013158696237951517,-0.001072071841917932,0.0009751914185471833
1772905682861377500,7.15637744140625,0.001572442939504981,-0.0008037877269089222,0.001243475591763854
1772905682871377400,7.16637744140625,0.0018364685820415616,-0.001075265696272254,0.001494725700467825
1772905682881377500,7.17637744140625,0.0020994297228753567,-0.0013360974844545126,0.0014957903185859323
1772905682891377400,7.18637744140625,0.0023506798315793276,-0.0013392913388088346,0.0017576867248862982
1772905682901377500,7.19637744140625,0.002610446885228157,-0.0010848472593352199,0.002019583247601986
1772905682911377400,7.20637744140625,0.0026189638301730156,-0.0010827180230990052,0.002086654072627425
1772905682921377500,7.21637744140625,0.0026264162734150887,-0.000819756998680532,0.002345356624573469
1772905682931377400,7.22637744140625,0.002881924854591489,-0.0008123046718537807,0.002348550595343113
1772905682941377500,7.23637744140625,0.002879795618355274,-0.0008091108174994588,0.002089848043397069
1772905682951377400,7.24637744140625,0.0028787311166524887,-0.0008069815812632442,0.0018236931646242738
1772905682961377500,7.25637744140625,0.002613640855997801,-0.0008069815812632442,0.0020919772796332836
1772905682971377400,7.26637744140625,0.0026061884127557278,-0.0010656841332092881,0.00236239074729383
1772905682981377500,7.27637744140625,0.0026051239110529423,-0.0013382267206907272,0.0023613260127604008
1772905682991377400,7.28637744140625,0.0023464213591068983,-0.0013329036301001906,0.0020994297228753567
1772905683001377500,7.29637744140625,0.0023528090678155422,-0.0013360974844545126,0.0018322101095691323
1772905683011377400,7.30637744140625,0.0020855895709246397,-0.0013350328663364053,0.0018322101095691323
1772905683021377500,7.31637744140625,0.002083460334688425,-0.0010678133694455028,0.001834339345805347
1772905683031377400,7.32637744140625,0.0023442921228706837,-0.00081656314432621,0.0018300808733329177
1772905683041377500,7.33637744140625,0.002599800704047084,-0.0008208216167986393,0.0020845248363912106
1772905683051377400,7.34637744140625,0.0028638264629989862,-0.0008144339080899954,0.00234109815210104
1772905683061377500,7.35637744140625,0.002865955699235201,-0.0008208216167986393,0.002345356624573469
1772905683071377400,7.36637744140625,0.00312252901494503,-0.0005621190648525953,0.0023506798315793276
1772905683081377500,7.37637744140625,0.0033780375961214304,-0.0005621190648525953,0.002389006083831191
1772905683091377400,7.38637744140625,0.0036431278567761183,-0.0008154985262081027,0.002660484053194523
1772905683101377500,7.39637744140625,0.0036473863292485476,-0.0008176277624443173,0.002660484053194523
1772905683111377400,7.40637744140625,0.003386554541066289,-0.0008112400537356734,0.0026636780239641666
1772905683121377500,7.41637744140625,0.003392942249774933,-0.0005504082655534148,0.002655161079019308
1772905683151377400,7.44637744140625,0.00287021417170763,-0.0002980934514198452,0.0021292390301823616
1772905683161377500,7.45637744140625,0.002599800704047084,-0.00030873966170474887,0.0018662780057638884
1772905683171377400,7.46637744140625,0.002334710443392396,-0.0003034165420103818,0.001606510835699737
1772905683181377500,7.47637744140625,0.002069620182737708,-0.0003012873057741672,0.0013403559569269419
1772905683191377400,7.48637744140625,0.0018055946566164494,-0.000030873965442879125,0.0010763303143903613
1772905683201377500,7.49637744140625,0.0015405043959617615,0.00023421629157382995,0.0008069815812632442
1772905683211377400,7.50637744140625,0.0012839310802519321,0.000497177301440388,0.0008123046718537807
1772905683221377500,7.51637744140625,0.0010156469652429223,0.0004982419195584953,0.0008176277624443173
1772905683231377400,7.52637744140625,0.0007622675620950758,0.0005088881007395685,0.0005557313561439514
1772905683241377500,7.53637744140625,0.0005067588645033538,0.0005056942463852465,0.0002917057427112013
1772905683251377400,7.54637744140625,0.000246991723543033,0.0005056942463852465,0.00002661548751348164
1772905683261377500,7.55637744140625,-0.000017033911717589945,0.0002459271054249257,-0.00023421629157382995
1772905683281377500,7.57637744140625,-0.0005557313561439514,0.0007888830150477588,-0.0002363455278100446
1772905683291377400,7.58637744140625,-0.0008144339080899954,0.0007888830150477588,-0.0002363455278100446
1772905683301377500,7.59637744140625,-0.0010656841332092881,0.0007952707819640636,-0.00023421629157382995
1772905683311377400,7.60637744140625,-0.001327580539509654,0.0010656841332092881,-0.0002427332365186885
1772905683321377500,7.61637744140625,-0.0015979938907548785,0.0010656841332092881,-0.00024379785463679582
1772905683331377400,7.62637744140625,0,0.0009134435094892979,-0.0002086654130835086
1772905683341377500,7.63637744140625,-0.00012668971612583846,-0.00012668971612583846,-0.00013627129374071956
1772905683351377400,7.64637744140625,-0.00025444405036978424,0.000004258477929397486,-0.00026828411500900984
1772905683361377500,7.65637744140625,-0.0003896507259923965,0.0001330774393863976,-0.00039497381658293307
1772905683371377400,7.66637744140625,-0.0005184696638025343,0.0002618964063003659,-0.0005301805213093758
1772905683381377500,7.67637744140625,-0.0006462240125983953,0.00039390919846482575,-0.0006632579606957734
1772905683391377400,7.68637744140625,-0.000776107597630471,0.0005280512850731611,-0.0007910122512839735
1772905683401377500,7.69637744140625,-0.0009049265645444393,0.0006600641063414514,-0.000662193342577666
1772905683411377400,7.70637744140625,-0.000776107597630471,0.0007920768694020808,-0.0005259220488369465
1772905683421377500,7.71637744140625,-0.0009049265645444393,0.0009262189269065857,-0.00039390919846482575
1772905683431377400,7.72637744140625,-0.0010326808551326394,0.0007984646363183856,-0.0005269866669550538
1772905683441377500,7.73637744140625,-0.0011668229708448052,0.0009283481631428003,-0.0006600641063414514
1772905683451377400,7.74637744140625,-0.0012945772614330053,0.0010539733339101076,-0.000796335400082171
1772905683461377500,7.75637744140625,-0.0014276547590270638,0.0009198312181979418,-0.0009283481631428003
1772905683471377400,7.76637744140625,-0.001558602903969586,0.0010475856252014637,-0.0010592964245006442
1772905683481377500,7.77637744140625,-0.001690615783445537,0.0011785337701439857,-0.0009560282924212515
1772905683491377400,7.78637744140625,-0.0018183700740337372,0.0013073526788502932,-0.0010805887868627906
1772905683501377500,7.79637744140625,-0.0019535766914486885,0.0011732106795534492,-0.0012072784593328834
1772905683511377400,7.80637744140625,-0.001827951637096703,0.0010369393276050687,-0.0013446144293993711
1772905683521377500,7.81637744140625,-0.001700197346508503,0.0011689522070810199,-0.0014734333381056786
1772905683531377400,7.82637744140625,-0.0015639259945601225,0.001041197800077498,-0.001347808283753693
1772905683541377500,7.83637744140625,-0.0016916804015636444,0.0009049265645444393,-0.0012136661680415273
1772905683551377400,7.84637744140625,-0.001824757782742381,0.0007782368338666856,-0.0013403559569269419
1772905683561377500,7.85637744140625,-0.0019503828370943666,0.0006515471031889319,-0.0014734333381056786
1772905683571377400,7.86637744140625,-0.002083460334688425,0.0007878183969296515,-0.001609704690054059
1772905683581377500,7.87637744140625,-0.001955705927684903,0.0009155727457255125,-0.0014808856649324298
1772905683591377400,7.88637744140625,-0.0018300808733329177,0.0007899476331658661,-0.0013552606105804443
1772905683601377500,7.89637744140625,-0.0017023265827447176,0.0006536763394251466,-0.0012253769673407078
1772905683611377400,7.90637744140625,-0.0018300808733329177,0.0005216635181568563,-0.001095493440516293
1772905683621377500,7.91637744140625,-0.0016948742559179664,0.00064835324883461,-0.0012285709381103516
1772905683631377400,7.92637744140625,-0.0015671198489144444,0.0007835599244572222,-0.0013648421736434102
1772905683641377500,7.93637744140625,-0.0015298582147806883,0.0009134435094892979,-0.0012381525011733174
1772905683651377400,7.94637744140625,-0.0013999745715409517,0.0010422624181956053,-0.001101881149224937
1772905683661377500,7.95637744140625,-0.0015309228328987956,0.0011764045339077711,-0.0009762560366652906
1772905683671377400,7.96637744140625,-0.0016618709778413177,0.0013116111513227224,-0.0011114627122879028
1772905683681377500,7.97637744140625,-0.0015341166872531176,0.0014468178851529956,-0.0009858376579359174
1772905683691377400,7.98637744140625,-0.001407426898367703,0.001575636793859303,-0.0008580833091400564
1772905683701377500,7.99637744140625,-0.0015362459234893322,0.0017055204370990396,-0.0007260704878717661
1772905683711377400,8.00637744140625,-0.0014052976621314883,0.0015735075576230884,-0.0008516956004314125
1772905683721377500,8.01637744140625,-0.0012775433715432882,0.0016703879227861762,-0.000981579185463488
1772905683731377400,8.02637744140625,-0.0014063622802495956,0.0018024008022621274,-0.0008463725098408759
1772905683741377500,8.03637744140625,-0.0011508536990731955,0.00205365102738142,-0.0005748945404775441
1772905683751377400,8.04637744140625,-0.0008921511471271515,0.0020568447653204203,-0.0003119335160590708
1772905683761377500,8.05637744140625,-0.0008878926746547222,0.002060038736090064,-0.000059618691011564806
1772905683771377400,8.06637744140625,-0.0006302547408267856,0.0018034654203802347,0.00020653617684729397
1772905683781377500,8.07637744140625,-0.0006313193589448929,0.0015394397778436542,0.00020334232249297202
1772905683791377400,8.08637744140625,-0.0006281255045905709,0.0015341166872531176,0.00020440694061107934
1772905683801377500,8.09637744140625,-0.0006334485951811075,0.001531987451016903,-0.000060683309129672125
1772905683811377400,8.10637744140625,-0.0008932157652452588,0.0012711556628346443,-0.00032364431535825133
1772905683821377500,8.11637744140625,-0.0008964096195995808,0.001008194638416171,-0.0005855407216586173
1772905683831377400,8.12637744140625,-0.0009017327101901174,0.0012615740997716784,-0.0005866053397767246
1772905683841377500,8.13637744140625,-0.0008932157652452588,0.0012605094816535711,-0.0005876699578948319
1772905683851377400,8.14637744140625,-0.0006387716857716441,0.0012658325722441077,-0.0003172566066496074
1772905683861377500,8.15637744140625,-0.0006430301582440734,0.0012679618084803224,-0.0003204504610039294
1772905683871377400,8.16637744140625,-0.0006377070676535368,0.001270091044716537,-0.00031832122476771474
1772905683881377500,8.17637744140625,-0.0006419655401259661,0.0012690264265984297,-0.0005482790293172002
1772905683891377400,8.18637744140625,-0.0006430301582440734,0.0010135177290067077,-0.0005589252104982734
1772905683911377400,8.20637744140625,-0.0008985388558357954,0.0012913834070786834,-0.0003023519238922745
1772905683931377400,8.22637744140625,-0.0011614998802542686,0.001287124934606254,-0.00023315167345572263
1772905683941377500,8.23637744140625,-0.0008974742377176881,0.0012913834070786834,-0.00023953938216436654
1772905683951377400,8.24637744140625,-0.0006302547408267856,0.0012881895527243614,0.000015969291780493222
1772905683961377500,8.25637744140625,-0.0003715521888807416,0.0012796726077795029,0.0002768010599538684
1772905683971377400,8.26637744140625,-0.0001085911862901412,0.0010124531108886003,0.0002863826521206647
1772905683981377500,8.27637744140625,-0.0001043327065417543,0.00075268599903211,0.0002863826521206647
1772905683991377400,8.28637744140625,-0.0003619706258177757,0.0007431043777614832,0.00028744727023877203
1772905684001377500,8.29637744140625,-0.0003619706258177757,0.0010135177290067077,0.0002842534158844501
1772905684011377400,8.30637744140625,-0.00010539733193581924,0.0010167115833610296,0.0002831887686625123
1772905684021377500,8.31637744140625,-0.00010646195005392656,0.0007643967983312905,0.0005450851749628782
1772905684031377400,8.32637744140625,-0.000366229098290205,0.0004950480652041733,0.0008080461993813515
1772905684041377500,8.33637744140625,-0.0005397620843723416,0.00022889318643137813,0.0005450851749628782
1772905684051377400,8.34637744140625,-0.0008005938725546002,0.0001735329715302214,0.00027999491430819035
1772905684061377500,8.35637744140625,-0.0008059169631451368,-0.00009155727457255125,0.000018098531654686667
1772905684071377400,8.36637744140625,-0.0008133692899718881,-0.00008942803833633661,0.000027680107450578362
1772905684081377500,8.37637744140625,-0.0010710072237998247,-0.00008942803833633661,-0.0002278285683132708
1772905684091377400,8.38637744140625,-0.0010710072237998247,-0.00035025979741476476,-0.0004844018549192697
1772905684101377500,8.39637744140625,-0.0010795241687446833,-0.0006142854690551758,-0.0007494920864701271
1772905684111377400,8.40637744140625,-0.0013435498112812638,-0.0006089623202569783,-0.0007590737077407539
1772905684121377500,8.41637744140625,-0.0013392913388088346,-0.0008325324160978198,-0.0007665260345675051
1772905684131377400,8.42637744140625,-0.001081653404980898,-0.0010965580586344004,-0.0010326808551326394
1772905684141377500,8.43637744140625,-0.0013403559569269419,-0.0013499375199899077,-0.0012988357339054346
1772905684151377400,8.44637744140625,-0.0016033169813454151,-0.0016107693081721663,-0.0015660552307963371
1772905684161377500,8.45637744140625,-0.0013403559569269419,-0.0018801180412992835,-0.0018226285465061665
1772905684171377400,8.46637744140625,-0.0013414205750450492,-0.0018843765137717128,-0.002086654072627425
1772905684181377500,8.47637744140625,-0.001081653404980898,-0.00188544113188982,-0.0018194346921518445
1772905684191377400,8.48637744140625,-0.0008304031798616052,-0.002150531392544508,-0.001558602903969586
1772905684201377500,8.49637744140625,-0.0005621190648525953,-0.002406039973720908,-0.00129670649766922
1772905684211377400,8.50637744140625,-0.0002970288333017379,-0.0024071047082543373,-0.0010337454732507467
1772905684221377500,8.51637744140625,-0.00004045553941978142,-0.002408169209957123,-0.0007718491251580417
1772905684231377400,8.52637744140625,0.0002214408596046269,-0.0026668717619031668,-0.0005046296282671392
1772905684241377500,8.53637744140625,0.0004790787643287331,-0.0026658072602003813,-0.00023953938216436654
1772905684251377400,8.54637744140625,0.0004886603564955294,-0.0029277035500854254,-0.0002363455278100446
1772905684261377500,8.55637744140625,0.0004929188289679587,-0.0026690009981393814,0.000029809345505782403
1772905684271377400,8.56637744140625,0.000485466473037377,-0.00292663904838264,0.00028957650647498667
1772905684281377500,8.57637744140625,0.0007484274683520198,-0.0029287682846188545,0.0005440205568447709
1772905684291377400,8.58637744140625,0.0010103238746523857,-0.002672194968909025,0.00081656314432621
1772905684301377500,8.59637744140625,0.0010124531108886003,-0.0026732594706118107,0.000561054446734488
1772905684311377400,8.60637744140625,0.001017776201479137,-0.0026828411500900984,0.0008229508530348539
1772905684321377500,8.61637744140625,0.0010124531108886003,-0.002678582677617669,0.0010305516188964248
1772905684331377400,8.62637744140625,0,-0.0022963841911405325,0.000883634143974632
1772905684341377500,8.63637744140625,0.0001330774393863976,0.00012562509800773114,0.00013094820315018296
1772905684351377400,8.64637744140625,0.00025976714096032083,-0.000009581575795891695,0.0002661548787727952
1772905684361377500,8.65637744140625,0.00039390919846482575,0.0001181727639050223,0.00040136155439540744
1772905684371377400,8.66637744140625,0.00026828411500900984,0.0002512501960154623,0.0005355036118999124
1772905684381377500,8.67637744140625,0.00013733591185882688,0.00012562509800773114,0.0006632579606957734
1772905684391377400,8.68637744140625,0,-0.000008516955858794972,0.0005269866669550538
1772905684411377400,8.70637744140625,-0.000002129238964698743,0.00025018557789735496,0.0005269866669550538
1772905684421377500,8.71637744140625,-0.00012988357048016042,0.0003800691629294306,0.00039390919846482575
1772905684431377400,8.72637744140625,-0.0002650902606546879,0.0005099527188576758,0.00026083175907842815
1772905684441377500,8.73637744140625,-0.0003981677000410855,0.0006419655401259661,0.00039390919846482575
1772905684451377400,8.74637744140625,-0.00026828411500900984,0.0005078234826214612,0.0005291159031912684
1772905684461377500,8.75637744140625,-0.00013733591185882688,0.0003800691629294306,0.0003992323181591928
1772905684471377400,8.76637744140625,-0.000007452336376445601,0.0005067588645033538,0.0002725425874814391
1772905684481377500,8.77637744140625,0.00011923738202312961,0.0003811337810475379,0.00014585287135560066
1772905684491377400,8.78637744140625,0.0002480563416611403,0.00024379785463679582,0.000017033911717589945
1772905684501377500,8.79637744140625,0.00037581069045700133,0.00010965580440824851,-0.00011178504792042077
1772905684511377400,8.80637744140625,0.0005120819550938904,0.00024060400028247386,0.000017033911717589945
1772905684521377500,8.81637744140625,0.0006462240125983953,0.00037687530857510865,0.00015117596194613725
1772905684531377400,8.82637744140625,0.000776107597630471,0.00024379785463679582,0.0002768010599538684
1772905684541377500,8.83637744140625,0.000907055800780654,0.00011497890227474272,0.00040774926310405135
1772905684551377400,8.84637744140625,0.001031616237014532,-0.000017033911717589945,0.0005355036118999124
1772905684561377500,8.85637744140625,0.001159370644018054,-0.00015224058006424457,0.000662193342577666
1772905684571377400,8.86637744140625,0.0012924480251967907,-0.0002842534158844501,0.000796335400082171
1772905684581377500,8.87637744140625,0.0014202024322003126,-0.0004109431174583733,0.0009251543087884784
1772905684591377400,8.88637744140625,0.001555409049615264,-0.000540826702490449,0.001055037952028215
1772905684601377500,8.89637744140625,0.0016820988385006785,-0.00041307235369458795,0.0011838568607345223
1772905684611377400,8.90637744140625,0.0015479567227885127,-0.0005397620843723416,0.0013211928308010101
1772905684621377500,8.91637744140625,0.0014202024322003126,-0.0004120077355764806,0.0011934384237974882
1772905684631377400,8.92637744140625,0.001287124934606254,-0.00027573644183576107,0.0010571671882644296
1772905684641377500,8.93637744140625,0.00115298293530941,-0.0001384005299769342,0.000930477399379015
1772905684651377400,8.94637744140625,0.0010199054377153516,-0.0002672194968909025,0.0008037877269089222
1772905684661377500,8.95637744140625,0.0008857634384185076,-0.00013733591185882688,0.0006739041418768466
1772905684671377400,8.96637744140625,0.0007537506171502173,-0.0000031938584470481146,0.0005418913206085563
1772905684681377500,8.97637744140625,0.000624931650236249,0.00012243124365340918,0.0004045554087497294
1772905684691377400,8.98637744140625,0.000497177301440388,0.0002427332365186885,0.0002778656780719757
1772905684701377500,8.99637744140625,0.0003651644801720977,0.00037581069045700133,0.0001490467257099226
1772905684711377400,9.00637744140625,0.00022995780454948545,0.0005025003920309246,0.00002129238964698743
1772905684721377500,9.01637744140625,0.00009794499055715278,0.0006291901227086782,-0.00011178504792042077
1772905684731377400,9.02637744140625,-0.00003832630318356678,0.0007580090896226466,-0.0002480563416611403
1772905684741377500,9.03637744140625,-0.00030661042546853423,0.0007654614164493978,-0.0005088881007395685
1772905684751377400,9.04637744140625,-0.0005621190648525953,0.0010262931464239955,-0.0007782368338666856
1772905684761377500,9.05637744140625,-0.0008304031798616052,0.0010358747094869614,-0.0007867537788115442
1772905684771377400,9.06637744140625,-0.0005791530129499733,0.0010305516188964248,-0.0007888830150477588
1772905684781377500,9.07637744140625,-0.0003215150791220367,0.0010284223826602101,-0.001045456388965249
1772905684791377400,9.08637744140625,-0.00005748945113737136,0.0012892541708424687,-0.0010422624181956053
1772905684801377500,9.09637744140625,-0.0003161919885315001,0.0012860603164881468,-0.0010465210070833564
1772905684811377400,9.10637744140625,-0.0003151273704133928,0.0012828664621338248,-0.0013105465332046151
1772905684821377500,9.11637744140625,-0.00005216635327087715,0.0010188408195972443,-0.0013073526788502932
1772905684831377400,9.12637744140625,0.00021611775446217507,0.0010241639101877809,-0.0013030942063778639
1772905684841377500,9.13637744140625,0.0002225054777227342,0.0010284223826602101,-0.001299900352023542
1772905684851377400,9.14637744140625,-0.00003832630318356678,0.0010592964245006442,-0.001299900352023542
1772905684861377500,9.15637744140625,-0.00004045553941978142,0.001051844097673893,-0.0010369393276050687
1772905684871377400,9.16637744140625,-0.00003406782343517989,0.0007878183969296515,-0.000779301451984793
1772905684881377500,9.17637744140625,-0.00002661548751348164,0.0007867537788115442,-0.0005259220488369465
1772905684891377400,9.18637744140625,-0.000022357009584084153,0.0007899476331658661,-0.00026296102441847324
1772905684901377500,9.19637744140625,-0.00028105953242629766,0.0007931414875201881,-0.000004258477929397486
1772905684911377400,9.20637744140625,-0.0005450851749628782,0.0007878183969296515,-0.0002661548787727952
1772905684921377500,9.21637744140625,-0.0008048523450270295,0.0007846245425753295,-0.0005323097575455904
1772905684931377400,9.22637744140625,-0.0010614256607368588,0.0010507794795557857,-0.0005237928126007318
1772905684941377500,9.23637744140625,-0.0013286451576277614,0.0013062880607321858,-0.0005195342819206417
1772905684951377400,9.24637744140625,-0.0015905415639281273,0.0015639259945601225,-0.0005099527188576758
1772905684961377500,9.25637744140625,-0.0018460501451045275,0.0018258224008604884,-0.0005014357739128172
1772905684971377400,9.26637744140625,-0.0021058174315840006,0.0020941065158694983,-0.0005099527188576758
1772905684981377500,9.27637744140625,-0.002366649219766259,0.0023506798315793276,-0.0005088881007395685
1772905684991377400,9.28637744140625,-0.002634933218359947,0.002607253147289157,-0.0007686552708037198
1772905685001377500,9.29637744140625,-0.0028883125633001328,0.0026061884127557278,-0.0007654614164493978
1772905685011377400,9.30637744140625,-0.002879795618355274,0.0028616972267627716,-0.000776107597630471
1772905685021377500,9.31637744140625,-0.0028776663821190596,0.0028648909647017717,-0.000779301451984793
1772905685031377400,9.32637744140625,-0.0026083176489919424,0.0028638264629989862,-0.000779301451984793
1772905685041377500,9.33637744140625,-0.0023400336503982544,0.002859567990526557,-0.0005195342819206417
1772905685051377400,9.34637744140625,-0.0020717494189739227,0.003118270542472601,-0.0002650902606546879
1772905685061377500,9.35637744140625,-0.0020717494189739227,0.003124658251181245,-0.000004258477929397486
1772905685071377400,9.36637744140625,-0.0018119823653250933,0.002859567990526557,0
1772905685081377500,9.37637744140625,-0.0015532798133790493,0.002599800704047084,0.000011710813851095736
1772905685091377400,9.38637744140625,-0.00129670649766922,0.0023432273883372545,0.000005323097411746858
1772905685101377500,9.39637744140625,-0.0012924480251967907,0.0020749433897435665,-0.0000010646194823493715
1772905685111377400,9.40637744140625,-0.0012913834070786834,0.0018173054559156299,-0.000005323097411746858
1772905685121377500,9.41637744140625,-0.0010326808551326394,0.0015649906126782298,-0.000005323097411746858
1772905685131377400,9.42637744140625,-0.0010326808551326394,0.0013041588244959712,0.000002129238964698743
1772905685141377500,9.43637744140625,-0.0010337454732507467,0.0013062880607321858,-0.000002129238964698743
1772905685151377400,9.44637744140625,-0.001038003945723176,0.001313740387558937,0
1772905685161377500,9.45637744140625,-0.0010305516188964248,0.0013126757694408298,-0.00024379785463679582
1772905685171377400,9.46637744140625,-0.0010273577645421028,0.0013126757694408298,-0.0005025003920309246
1772905685181377500,9.47637744140625,-0.0012807372258976102,0.001313740387558937,-0.0005056942463852465
1772905685191377400,9.48637744140625,-0.0015373105416074395,0.0011902445694431663,-0.0005025003920309246
1772905685201377500,9.49637744140625,-0.0015426336321979761,0.0009379297844134271,-0.0004982419195584953
1772905685211377400,9.50637744140625,-0.0012786079896613955,0.0006781626143492758,-0.00023421629157382995
1772905685221377500,9.51637744140625,-0.001287124934606254,0.0006802918505854905,-0.00023528090969193727
1772905685231377400,9.52637744140625,-0.0012945772614330053,0.0006824210868217051,-0.00023208704078570008
1772905685241377500,9.53637744140625,-0.0010401331819593906,0.00041946006240323186,-0.00023847476404625922
1772905685251377400,9.54637744140625,-0.0007814306882210076,0.0006536763394251466,-0.0002374101459281519
1772905685261377500,9.55637744140625,-0.0007814306882210076,0.0006579348118975759,-0.00024166861840058118
1772905685271377400,9.56637744140625,-0.0007824953063391149,0.0006600641063414514,-0.0002480563416611403
1772905685281377500,9.57637744140625,-0.0007856891606934369,0.0006536763394251466,-0.00024379785463679582
1772905685291377400,9.58637744140625,-0.0007867537788115442,0.0006526117213070393,-0.00024486248730681837
1772905685301377500,9.59637744140625,-0.0005291159031912684,0.0006536763394251466,-0.00024060400028247386
1772905685311377400,9.60637744140625,-0.00026828411500900984,0.00039390919846482575,0.000027680107450578362
1772905685321377500,9.61637744140625,-0.000012775433788192458,0.00012775433424394578,0.0002853180340025574
1772905685331377400,9.62637744140625,0,0.00010965580440824851,0.00024379785463679582
1772905685341377500,9.63637744140625,0.00013201282126829028,-0.00013201282126829028,0.00013414205750450492
1772905685351377400,9.64637744140625,0.0002587025228422135,-0.00026083175907842815,0.0002672194968909025
1772905685361377500,9.65637744140625,0.0003864568716380745,-0.0001288189523620531,0.0004002969362773001
1772905685371377400,9.66637744140625,0.0005131465732119977,-0.00025976714096032083,0.000537632848136127
1772905685381377500,9.67637744140625,0.0006409009220078588,-0.00012456047988962382,0.0006632579606957734
1772905685391377400,9.68637744140625,0.0005152758094482124,-0.0002512501960154623,0.0007910122512839735
1772905685401377500,9.69637744140625,0.0006302547408267856,-0.00012456047988962382,0.0009219604544341564
1772905685411377400,9.70637744140625,0.0005035650101490319,0.000011710813851095736,0.0010497148614376783
1772905685421377500,9.71637744140625,0.00036942295264452696,0.00013627129374071956,0.0009145081276074052
1772905685431377400,9.72637744140625,0.0002374101459281519,0.0002618964063003659,0.0007824953063391149
1772905685441377500,9.73637744140625,0.00010220347030553967,0.00039497381658293307,0.0006536763394251466
1772905685451377400,9.74637744140625,-0.00002661548751348164,0.000520598900038749,0.0007899476331658661
1772905685461377500,9.75637744140625,-0.00015224058006424457,0.0006579348118975759,0.0009208958363160491
1772905685481377500,9.77637744140625,-0.0004152015899308026,0.0006600641063414514,0.0006600641063414514
1772905685491377400,9.78637744140625,-0.0005482790293172002,0.0007942061056382954,0.0005323097575455904
1772905685501377500,9.79637744140625,-0.0006728395237587392,0.0006568701937794685,0.00040242617251351476
1772905685511377400,9.80637744140625,-0.0008059169631451368,0.0007920768694020808,0.0002714779693633318
1772905685521377500,9.81637744140625,-0.0006792272324673831,0.0006632579606957734,0.00014585287135560066
1772905685531377400,9.82637744140625,-0.0005450851749628782,0.0005259220488369465,0.000014904672752891202
1772905685541377500,9.83637744140625,-0.00041413697181269526,0.0003907153441105038,-0.0001181727639050223
1772905685551377400,9.84637744140625,-0.0005450851749628782,0.000517405045684427,-0.00025444405036978424
1772905685561377500,9.85637744140625,-0.0006739041418768466,0.0006536763394251466,-0.0003864568716380745
1772905685571377400,9.86637744140625,-0.0005418913206085563,0.0007835599244572222,-0.00025444405036978424
1772905685581377500,9.87637744140625,-0.00066858105128631,0.0006579348118975759,-0.00011710814578691497
1772905685591377400,9.88637744140625,-0.000796335400082171,0.0005227281944826245,0.00001916315159178339
1772905685601377500,9.89637744140625,-0.000927283545024693,0.00039284458034671843,-0.00010752656817203388
1772905685611377400,9.90637744140625,-0.0010571671882644296,0.0002661548787727952,-0.00023953938216436654
1772905685621377500,9.91637744140625,-0.0009240896906703711,0.00013733591185882688,-0.00037474604323506355
1772905685631377400,9.92637744140625,-0.0007931414875201881,0.0002661548787727952,-0.0005099527188576758
1772905685641377500,9.93637744140625,-0.0009187666000798345,0.00030022268765605986,-0.0003790045448113233
1772905685651377400,9.94637744140625,-0.0007920768694020808,0.0001682098809396848,-0.00024486248730681837
1772905685661377500,9.95637744140625,-0.0006664518150500953,0.00003300320531707257,-0.00011710814578691497
1772905685671377400,9.96637744140625,-0.0007974000182002783,0.00016075753956101835,0.000012775433788192458
1772905685691377400,9.98637744140625,-0.0007995292544364929,0.00016288677579723299,0.0002704133512452245
1772905685701377500,9.99637744140625,-0.0009326066938228905,0.000031938583560986444,0.0001384005299769342
1772905685711377400,10.00637744140625,-0.0010646195150911808,-0.00009368651080876589,0.0000031938584470481146
1772905685721377500,10.01637744140625,-0.0009347359300591052,-0.00022995780454948545,-0.00013201282126829028
1772905685731377400,10.02637744140625,-0.0008091108174994588,-0.00036409986205399036,-0.00026402564253658056
1772905685741377500,10.03637744140625,-0.0008037877269089222,-0.0003619706258177757,-0.0005355036118999124
1772905685751377400,10.04637744140625,-0.0007984646363183856,-0.00009581575432093814,-0.0008016584906727076
1772905685761377500,10.05637744140625,-0.0007942061056382954,-0.00035664753522723913,-0.0008069815812632442
1772905685771377400,10.06637744140625,-0.001055037952028215,-0.0003545182989910245,-0.0008133692899718881
1772905685781377500,10.07637744140625,-0.0010582318063825369,-0.00035771215334534645,-0.0008037877269089222
1772905685791377400,10.08637744140625,-0.0008016584906727076,-0.00010220347030553967,-0.000796335400082171
1772905685801377500,10.09637744140625,-0.0007878183969296515,-0.0003545182989910245,-0.0010529087157920003
1772905685811377400,10.10637744140625,-0.0005237928126007318,-0.00036303524393588305,-0.0013126757694408298
1772905685821377500,10.11637744140625,-0.0002587025228422135,-0.0005237928126007318,-0.0010433270363137126
1772905685831377400,10.12637744140625,0.000004258477929397486,-0.000779301451984793,-0.0007782368338666856
1772905685841377500,10.13637744140625,0.00026934873312711716,-0.0010497148614376783,-0.0005184696638025343
1772905685851377400,10.14637744140625,0.0005301805213093758,-0.0013020295882597566,-0.0005280512850731611
1772905685861377500,10.15637744140625,0.0007920768694020808,-0.0013062880607321858,-0.0005291159031912684
1772905685871377400,10.16637744140625,0.001048650243319571,-0.0010465210070833564,-0.00026402564253658056
1772905685881377500,10.17637744140625,0.0013094819150865078,-0.001299900352023542,-0.00027467182371765375
1772905685891377400,10.18637744140625,0.001572442939504981,-0.0013062880607321858,-0.00027467182371765375
1772905685901377500,10.19637744140625,0.0018332747276872396,-0.0010358747094869614,-0.000013840053725289181
1772905685911377400,10.20637744140625,0.002097300486639142,-0.0013052234426140785,0.00024379785463679582
1772905685921377500,10.21637744140625,0.0021058174315840006,-0.0013052234426140785,0.0004982419195584953
1772905685931377400,10.22637744140625,0.0018417916726320982,-0.001038003945723176,0.0005003711557947099
1772905685941377500,10.23637744140625,0.001575636793859303,-0.0007771722157485783,0.0007654614164493978
1772905685951377400,10.24637744140625,0.001569249085150659,-0.001034810091368854,0.0007771722157485783
1772905685961377500,10.25637744140625,0.0015681844670325518,-0.0013020295882597566,0.0007846245425753295
1772905685971377400,10.26637744140625,0.0013009649701416492,-0.0015564736677333713,0.0005237928126007318
1772905685981377500,10.27637744140625,0.0013020295882597566,-0.0015596675220876932,0.0002587025228422135
1772905685991377400,10.28637744140625,0.00129670649766922,-0.0015532798133790493,-0.000009581575795891695
1772905686001377500,10.29637744140625,0.0015607321402058005,-0.0015596675220876932,-0.000010646194823493715
1772905686011377400,10.30637744140625,0.0015575382858514786,-0.0015649906126782298,-0.000011710813851095736
1772905686021377500,10.31637744140625,0.0012924480251967907,-0.0013084172969684005,0.0002576379047241062
1772905686031377400,10.32637744140625,0.0010262931464239955,-0.0013094819150865078,0.0005291159031912684
1772905686041377500,10.33637744140625,0.0010252285283058882,-0.00121260154992342,0.0002650902606546879
1772905686051377400,10.34637744140625,0.0007643967983312905,-0.0009538990561850369,-0.0000031938584470481146
1772905686061377500,10.35637744140625,0.0005120819550938904,-0.0006856149411760271,-0.00025976714096032083
1772905686071377400,10.36637744140625,0.0007803660701029003,-0.0006856149411760271,-0.0005152758094482124
1772905686081377500,10.37637744140625,0.0010497148614376783,-0.0009400590206496418,-0.0005056942463852465
1772905686091377400,10.38637744140625,0.0010497148614376783,-0.0009507052018307149,-0.0005035650101490319
1772905686101377500,10.39637744140625,0.0013179989764466882,-0.0009517698199488223,-0.00024166861840058118
1772905686111377400,10.40637744140625,0.0015777660300955176,-0.0009528344380669296,0.000025550867576384917
1772905686121377500,10.41637744140625,0.0013148050056770444,-0.000944317493122071,0.0002917057427112013
1772905686131377400,10.42637744140625,0.0010635548969730735,-0.0009453821112401783,0.0005536021199077368
1772905686141377500,10.43637744140625,0.0010539733339101076,-0.0006813564687035978,0.0008250800892710686
1772905686151377400,10.44637744140625,0.0010561025701463223,-0.0006866795592941344,0.0010848472593352199
1772905686161377500,10.45637744140625,0.0007910122512839735,-0.000692002649884671,0.0010848472593352199
1772905686171377400,10.46637744140625,0.0010571671882644296,-0.0006951965042389929,0.0010859118774533272
1772905686181377500,10.47637744140625,0.0010624902788549662,-0.0009613513830117881,0.0008250800892710686
1772905686191377400,10.48637744140625,0.0010592964245006442,-0.0012168600223958492,0.0008240154711529613
1772905686201377500,10.49637744140625,0.0010603610426187515,-0.001215795404277742,0.0010859118774533272
1772905686211377400,10.50637744140625,0.0010507794795557857,-0.0014702394837513566,0.001347808283753693
1772905686221377500,10.51637744140625,0.0010475856252014637,-0.0013084172969684005,0.0011476598447188735
1772905686231377400,10.52637744140625,0.0007846245425753295,-0.0010422624181956053,0.0008868280565366149
1772905686241377500,10.53637744140625,0.0005195342819206417,-0.000776107597630471,0.0008825695258565247
1772905686251377400,10.54637744140625,0.0005184696638025343,-0.0005184696638025343,0.0008900219108909369
1772905686261377500,10.55637744140625,0.0005142111913301051,-0.0005131465732119977,0.000624931650236249
1772905686271377400,10.56637744140625,0.0005152758094482124,-0.0005227281944826245,0.00036942295264452696
1772905686281377500,10.57637744140625,0.0002576379047241062,-0.0005237928126007318,0.0003726168069988489
1772905686291377400,10.58637744140625,-0.0000031938584470481146,-0.0007856891606934369,0.0003704875707626343
1772905686301377500,10.59637744140625,-0.000009581575795891695,-0.0010497148614376783,0.00010752656817203388
1772905686311377400,10.60637744140625,-0.0002661548787727952,-0.0007899476331658661,-0.00015436983085237443
1772905686321377500,10.61637744140625,-0.0005312451394274831,-0.0005291159031912684,-0.00015224058006424457
1772905686331377400,10.62637744140625,0,-0.000453527900390327,-0.00013094820315018296
1772905686341377500,10.63637744140625,-0.00013414205750450492,0.00013520667562261224,0.00013520667562261224
1772905686351377400,10.64637744140625,-0.000005323097411746858,0.000008516955858794972,0.0002618964063003659
1772905686361377500,10.65637744140625,-0.0001426590170012787,-0.0001181727639050223,0.00013627129374071956
1772905686371377400,10.66637744140625,-0.000007452336376445601,-0.00024912095977924764,-0.0000010646194823493715
1772905686381377500,10.67637744140625,0.00012562509800773114,-0.00037474604323506355,-0.00012668971612583846
1772905686391377400,10.68637744140625,-0.000005323097411746858,-0.0005099527188576758,-0.0002533794322516769
1772905686401377500,10.69637744140625,-0.00013201282126829028,-0.00037687530857510865,-0.00038858610787428916
1772905686411377400,10.70637744140625,-0.00026828411500900984,-0.00024486248730681837,-0.0005152758094482124
1772905686421377500,10.71637744140625,-0.00014159438433125615,-0.00011497890227474272,-0.0003800691629294306
1772905686431377400,10.72637744140625,-0.00026828411500900984,0.000015969291780493222,-0.00024379785463679582
1772905686441377500,10.73637744140625,-0.00040136155439540744,0.00014372363511938602,-0.00011604352039285004
1772905686451377400,10.74637744140625,-0.0005291159031912684,0.0002778656780719757,-0.0002480563416611403
1772905686461377500,10.75637744140625,-0.0006558055756613612,0.00040774926310405135,-0.00037793992669321597
1772905686471377400,10.76637744140625,-0.0007846245425753295,0.0005386974662542343,-0.0005152758094482124
1772905686481377500,10.77637744140625,-0.0009198312181979418,0.00040668464498594403,-0.0006472886307165027
1772905686491377400,10.78637744140625,-0.0010475856252014637,0.0005440205568447709,-0.0007750429795123637
1772905686501377500,10.79637744140625,-0.0011817276244983077,0.0006813564687035978,-0.0009081204188987613
1772905686511377400,10.80637744140625,-0.0013105465332046151,0.0008112400537356734,-0.000779301451984793
1772905686521377500,10.81637744140625,-0.001444688648916781,0.0009485759655945003,-0.0006526117213070393
1772905686531377400,10.82637744140625,-0.0013190635945647955,0.0010773949325084686,-0.0005259220488369465
1772905686541377500,10.83637744140625,-0.0014500117395073175,0.0009496405837126076,-0.00039390919846482575
1772905686551377400,10.84637744140625,-0.001582024502567947,0.0010837826412171125,-0.00026296102441847324
1772905686561377500,10.85637744140625,-0.0017161666182801127,0.000947511347476393,-0.00012988357048016042
1772905686571377400,10.86637744140625,-0.0018471147632226348,0.0008123046718537807,-0.00026402564253658056
1772905686581377500,10.87637744140625,-0.001975933788344264,0.0006856149411760271,-0.0003896507259923965
1772905686591377400,10.88637744140625,-0.0018492439994588494,0.0005504082655534148,-0.0005195342819206417
1772905686601377500,10.89637744140625,-0.0017225543269887567,0.0004152015899308026,-0.0006547409575432539
1772905686611377400,10.90637744140625,-0.0015905415639281273,0.00028957650647498667,-0.0005259220488369465
1772905686621377500,10.91637744140625,-0.0014595933025702834,0.00015117596194613725,-0.0003907153441105038
1772905686631377400,10.92637744140625,-0.0013329036301001906,0.000022357009584084153,-0.00026402564253658056
1772905686641377500,10.93637744140625,-0.0011966322781518102,-0.00010539733193581924,-0.00013733591185882688
1772905686651377400,10.94637744140625,-0.0010614256607368588,-0.00023953938216436654,-0.000010646194823493715
1772905686661377500,10.95637744140625,-0.0009347359300591052,-0.00037368142511695623,0.00012030200014123693
1772905686671377400,10.96637744140625,-0.0008059169631451368,-0.0005014357739128172,0.000246991723543033
1772905686681377500,10.97637744140625,-0.0006792272324673831,-0.0005365682300180197,0.00038326301728375256
1772905686691377400,10.98637744140625,-0.0005482790293172002,-0.0006611287244595587,0.0005163404275663197
1772905686701377500,10.99637744140625,-0.0004173308261670172,-0.000796335400082171,0.0006515471031889319
1772905686711377400,11.00637744140625,-0.00027999491430819035,-0.00066858105128631,0.0007814306882210076
1772905686721377500,11.01637744140625,-0.00014691748947370797,-0.0005355036118999124,0.0009102496551349759
1772905686731377400,11.02637744140625,-0.000017033911717589945,-0.0006664518150500953,0.001041197800077498
1772905686741377500,11.03637744140625,0.0002512501960154623,-0.0009347359300591052,0.001031616237014532
1772905686751377400,11.04637744140625,0.0002512501960154623,-0.0009358005481772125,0.001038003945723176
1772905686761377500,11.05637744140625,0.0005259220488369465,-0.0006813564687035978,0.0012988357339054346
1772905686771377400,11.06637744140625,0.000520598900038749,-0.0006856149411760271,0.0015681844670325518
1772905686781377500,11.07637744140625,0.0005142111913301051,-0.000688808795530349,0.0015852183569222689
1772905686791377400,11.08637744140625,0.0005088881007395685,-0.0004162662080489099,0.0018407270545139909
1772905686801377500,11.09637744140625,0.0007675906526856124,-0.00041946006240323186,0.0021015589591115713
1772905686811377400,11.10637744140625,0.001034810091368854,-0.00042158932774327695,0.0023560028057545424
1772905686821377500,11.11637744140625,0.00104439165443182,-0.00041946006240323186,0.002348550595343113
1772905686831377400,11.12637744140625,0.001034810091368854,-0.0006770979962311685,0.0023496150970458984
1772905686841377500,11.13637744140625,0.0010422624181956053,-0.0006717749056406319,0.002354938304051757
1772905686851377400,11.14637744140625,0.001034810091368854,-0.0006696456694044173,0.002616834593936801
1772905686861377500,11.15637744140625,0.0012881895527243614,-0.0006707102875225246,0.002613640855997801
1772905686871377400,11.16637744140625,0.001290318788960576,-0.0006760333781130612,0.0026189638301730156
1772905686881377500,11.17637744140625,0.00129670649766922,-0.00040881388122215867,0.0028776663821190596
1772905686891377400,11.18637744140625,0.001287124934606254,-0.0004152015899308026,0.0031331751961261034
1772905686901377500,11.19637744140625,0.0012849956983700395,-0.0004247831820975989,0.0031331751961261034
1772905686911377400,11.20637744140625,0.0012807372258976102,-0.0004237185639794916,0.0028787311166524887
1772905686921377500,11.21637744140625,0.0012828664621338248,-0.0004290416545700282,0.00261789932847023
1772905686931377400,11.22637744140625,0.0010305516188964248,-0.00042691241833381355,0.0023560028057545424
1772905686941377500,11.23637744140625,0.0010369393276050687,-0.0004311708908062428,0.002089848043397069
1772905686951377400,11.24637744140625,0.0010358747094869614,-0.0004343647451605648,0.0018258224008604884
1772905686961377500,11.25637744140625,0.00104439165443182,-0.0004290416545700282,0.0015617967583239079
1772905686981377500,11.27637744140625,0.0013052234426140785,-0.00043330012704245746,0.0015564736677333713
1772905686991377400,11.28637744140625,0.001316934241913259,-0.00016608064470347017,0.001558602903969586
1772905687001377500,11.29637744140625,0.0010592964245006442,-0.00015969292144291103,0.0018236931646242738
1772905687011377400,11.30637744140625,0.0007974000182002783,-0.0001586283033248037,0.001831145491451025
1772905687021377500,11.31637744140625,0.0007942061056382954,0.00010752656817203388,0.0015681844670325518
1772905687031377400,11.32637744140625,0.000537632848136127,0.0003555829171091318,0.0013041588244959712
1772905687041377500,11.33637744140625,0.00027467182371765375,0.0003481305611785501,0.001051844097673893
1772905687051377400,11.34637744140625,0.00026828411500900984,0.0003534536808729172,0.0007984646363183856
1772905687061377500,11.35637744140625,0.0002704133512452245,0.00035771215334534645,0.0005355036118999124
1772905687071377400,11.36637744140625,0.000006387716894096229,0.0006121561746113002,0.00027360720559954643
1772905687081377500,11.37637744140625,-0.0002523148141335696,0.0007569444715045393,0.000005323097411746858
1772905687091377400,11.38637744140625,-0.0005195342819206417,0.0007558798533864319,-0.000002129238964698743
1772905687101377500,11.39637744140625,-0.000520598900038749,0.0010284223826602101,-0.000005323097411746858
1772905687111377400,11.40637744140625,-0.0005312451394274831,0.0010337454732507467,-0.000002129238964698743
1772905687121377500,11.41637744140625,-0.000796335400082171,0.0007750429795123637,-0.0000031938584470481146
1772905687131377400,11.42637744140625,-0.0007995292544364929,0.0007782368338666856,-0.00026083175907842815
1772905687141377500,11.43637744140625,-0.0007995292544364929,0.0007771722157485783,-0.0005152758094482124
1772905687151377400,11.44637744140625,-0.0007952707819640636,0.000779301451984793,-0.0007803660701029003
1772905687161377500,11.45637744140625,-0.0008069815812632442,0.0005195342819206417,-0.0010422624181956053
1772905687171377400,11.46637744140625,-0.0008091108174994588,0.0005280512850731611,-0.0010465210070833564
1772905687181377500,11.47637744140625,-0.0008037877269089222,0.0005301805213093758,-0.0008080461993813515
1772905687191377400,11.48637744140625,-0.000534438993781805,0.0002576379047241062,-0.0008016584906727076
1772905687201377500,11.49637744140625,-0.0005301805213093758,0.0002576379047241062,-0.000796335400082171
1772905687211377400,11.50637744140625,-0.0005312451394274831,-0.000006387716894096229,-0.0007878183969296515
1772905687221377500,11.51637744140625,-0.000537632848136127,-0.0002714779693633318,-0.0007846245425753295
1772905687231377400,11.52637744140625,-0.0005259220488369465,-0.000012775433788192458,-0.0010497148614376783
1772905687241377500,11.53637744140625,-0.0005312451394274831,-0.000009581575795891695,-0.0013179989764466882
1772905687251377400,11.54637744140625,-0.0005237928126007318,-0.0002714779693633318,-0.0013126757694408298
1772905687261377500,11.55637744140625,-0.0007824953063391149,-0.0005323097575455904,-0.0010507794795557857
1772905687271377400,11.56637744140625,-0.0007920768694020808,-0.0007931414875201881,-0.00104439165443182
1772905687281377500,11.57637744140625,-0.0007952707819640636,-0.0007984646363183856,-0.0013073526788502932
1772905687291377400,11.58637744140625,-0.0007867537788115442,-0.0007931414875201881,-0.0015681844670325518
1772905687301377500,11.59637744140625,-0.0007750429795123637,-0.0007878183969296515,-0.0013062880607321858
1772905687311377400,11.60637744140625,-0.000776107597630471,-0.001055037952028215,-0.0013105465332046151
1772905687331377400,11.62637744140625,0,-0.00090066809207201,-0.0011199796572327614
1772905687341377500,11.63637744140625,-0.00013094820315018296,-0.00013520667562261224,-0.00012562509800773114
1772905687351377400,11.64637744140625,-0.00026296102441847324,-0.000006387716894096229,-0.0002565732866059989
1772905687361377500,11.65637744140625,-0.00039390919846482575,0.00012243124365340918,-0.0003864568716380745
1772905687371377400,11.66637744140625,-0.0005280512850731611,-0.0000031938584470481146,-0.0002587025228422135
1772905687381377500,11.67637744140625,-0.0004002969362773001,-0.00012988357048016042,-0.0003907153441105038
1772905687391377400,11.68637744140625,-0.000534438993781805,-0.000002129238964698743,-0.0005280512850731611
1772905687401377500,11.69637744140625,-0.0003981677000410855,0.00012562509800773114,-0.00040242617251351476
1772905687411377400,11.70637744140625,-0.0002672194968909025,0.00025550866848789155,-0.0002650902606546879
1772905687421377500,11.71637744140625,-0.00013520667562261224,0.0003843276354018599,-0.00014052976621314883
1772905687431377400,11.72637744140625,-0.000006387716894096229,0.0002533794322516769,-0.000012775433788192458
1772905687441377500,11.73637744140625,0.00012136661825934425,0.0001181727639050223,-0.0001394651480950415
1772905687451377400,11.74637744140625,0.00025444405036978424,0.00024486248730681837,-0.0002650902606546879
1772905687461377500,11.75637744140625,0.0003790045448113233,0.00037793992669321597,-0.00013414205750450492
1772905687471377400,11.76637744140625,0.0005152758094482124,0.00024912095977924764,0.000002129238964698743
1772905687481377500,11.77637744140625,0.0006526117213070393,0.00012456047988962382,0.00013520667562261224
1772905687491377400,11.78637744140625,0.000779301451984793,-0.000011710813851095736,0.0002704133512452245
1772905687501377500,11.79637744140625,0.0009091850370168686,-0.00013733591185882688,0.00040242617251351476
1772905687511377400,11.80637744140625,0.0010369393276050687,-0.0001394651480950415,0.0005291159031912684
1772905687521377500,11.81637744140625,0.0009027973283082247,-0.0002661548787727952,0.0006664518150500953
1772905687531377400,11.82637744140625,0.0007739783613942564,-0.0003971030528191477,0.0008016584906727076
1772905687541377500,11.83637744140625,0.0009091850370168686,-0.0005280512850731611,0.0006717749056406319
1772905687551377400,11.84637744140625,0.0009826438035815954,-0.000665387196931988,0.0005418913206085563
1772905687561377500,11.85637744140625,0.0011199796572327614,-0.0007995292544364929,0.00040774926310405135
1772905687571377400,11.86637744140625,0.0012509279185906053,-0.0009315420757047832,0.000534438993781805
1772905687581377500,11.87637744140625,0.0013882637722417712,-0.0008037877269089222,0.000662193342577666
1772905687591377400,11.88637744140625,0.0015170827973634005,-0.0009315420757047832,0.0007974000182002783
1772905687601377500,11.89637744140625,0.001642707851715386,-0.0010656841332092881,0.0009347359300591052
1772905687611377400,11.90637744140625,0.0017736561130732298,-0.0012008907506242394,0.0010603610426187515
1772905687631377400,11.92637744140625,0.002039810875430703,-0.0011987615143880248,0.0008027231087908149
1772905687641377500,11.93637744140625,0.0021750174928456545,-0.0013254513032734394,0.0009379297844134271
