time,seconds_elapsed,z,y,x
1772914219287127000,0.370126953125,1.0456056594848633,-0.033559322357177734,-0.32296741008758545
1772914219337127200,0.420127197265625,0.03081512451171875,-0.11030054092407227,0.05051317811012268
1772914219387127000,0.470126953125,-0.2951369285583496,0.10764956474304199,-0.2968781590461731
1772914219437127200,0.520127197265625,-0.11322641372680664,0.011941909790039062,-0.24217554926872253
1772914219487127000,0.570126953125,-0.5183811187744141,-0.03838849067687988,0.24881914258003235
1772914219537127200,0.620127197265625,0.6911087036132812,0.057462453842163086,-0.4625117778778076
1772914219587127000,0.670126953125,0.31822633743286133,0.22531485557556152,-0.6835904121398926
1772914219637127200,0.720127197265625,-0.11771297454833984,-0.04278826713562012,-0.0924537181854248
1772914219687127000,0.770126953125,-0.2447648048400879,-0.026124954223632812,-0.08297276496887207
1772914219737127200,0.820127197265625,-0.6403951644897461,-0.040540456771850586,0.18291687965393066
1772914219787127000,0.870126953125,-0.2505817413330078,-0.14122700691223145,0.08492171764373779
1772914219837127200,0.920127197265625,0.37464427947998047,-0.12218856811523438,-0.015696406364440918
1772914219887127000,0.970126953125,-0.2839670181274414,-0.20862340927124023,0.4923776388168335
1772914219937127200,1.020127197265625,0.19498157501220703,0.08828496932983398,0.097531259059906
1772914219987127000,1.070126953125,-0.20734786987304688,0.2273726463317871,0.04490429162979126
1772914220037127200,1.120127197265625,0.4633655548095703,0.16774201393127441,0.0018249154090881348
1772914220087127000,1.170126953125,0.3920912742614746,0.019345521926879883,0.035359978675842285
1772914220137127200,1.220127197265625,-0.3670992851257324,-0.09328269958496094,0.23908469080924988
1772914220187127000,1.270126953125,-0.3315086364746094,0.08636188507080078,0.26803767681121826
1772914220237127200,1.320127197265625,0.28165531158447266,-0.15316367149353027,0.3377473056316376
1772914220287127000,1.370126953125,0.3105449676513672,-0.016730070114135742,0.07450875639915466
1772914220337127200,1.420127197265625,0.5385594367980957,-0.05266427993774414,-0.2537451982498169
1772914220387127000,1.470126953125,-0.33805084228515625,-0.11021113395690918,0.055169977247714996
1772914220437127200,1.520127197265625,-0.031558990478515625,-0.1749858856201172,0.10069875419139862
1772914220487127000,1.570126953125,-0.7597222328186035,0.20156598091125488,-0.09984461963176727
1772914220537127200,1.620127197265625,-0.03036975860595703,-0.1097264289855957,0.1330440193414688
1772914220587127000,1.670126953125,-0.3817787170410156,-0.27784085273742676,0.241624116897583
1772914220637127200,1.720127197265625,-0.132781982421875,-0.43585801124572754,0.27848732471466064
1772914220687127000,1.770126953125,-0.5014886856079102,-0.38557982444763184,0.25076615810394287
1772914220737127200,1.820127197265625,-0.8749837875366211,-0.2922060489654541,0.12174896895885468
1772914220787127000,1.870126953125,0.1378765106201172,-0.37874698638916016,0.024539947509765625
1772914220837127200,1.920127197265625,0.6565923690795898,-0.49915456771850586,-0.06556632369756699
1772914220887127000,1.970126953125,-0.004038810729980469,-0.3944869041442871,-0.009846765547990799
1772914220937127200,2.020127197265625,-0.3791780471801758,-0.17757296562194824,-0.061925217509269714
1772914221037127200,2.120127197265625,0.5379400253295898,-0.564469575881958,0.12880241870880127
1772914221087127000,2.170126953125,0.4947385787963867,-0.5479938983917236,-0.3844987452030182
1772914221187127000,2.270126953125,0.5626230239868164,-0.5899348258972168,-1.1298120021820068
1772914221237127200,2.320127197265625,0.15497970581054688,-0.9670407772064209,-0.666563868522644
1772914221287127000,2.370126953125,-0.7039594650268555,-0.6941432952880859,-0.6045653820037842
1772914221337127200,2.420127197265625,-0.7089128494262695,-0.26816534996032715,-0.6517208814620972
1772914221387127000,2.470126953125,0.25291919708251953,-0.3266305923461914,-0.4780411720275879
1772914221437127200,2.520127197265625,0.6015453338623047,-0.4279294013977051,-0.17195039987564087
1772914221487127000,2.570126953125,0.12749385833740234,-0.30507397651672363,-0.16323691606521606
1772914221537127200,2.620127197265625,-0.3786344528198242,-0.23563337326049805,-0.07538676261901855
1772914221587127000,2.670126953125,-1.2127647399902344,-0.06492733955383301,0.3211297392845154
1772914221637127200,2.720127197265625,0.09385490417480469,-0.1557478904724121,0.5087035894393921
1772914221687127000,2.770126953125,0.3214292526245117,0.07728838920593262,0.5400853753089905
1772914221737127200,2.820127197265625,-0.09225654602050781,0.03832840919494629,0.6530962586402893
1772914221787127000,2.870126953125,-0.05009174346923828,0.23468995094299316,0.3537132441997528
1772914221837127200,2.920127197265625,-0.31438636779785156,0.14893770217895508,0.43873411417007446
1772914221887127000,2.970126953125,-0.3745851516723633,0.09193944931030273,0.5499347448348999
1772914221937127200,3.020127197265625,-0.2625446319580078,0.11832380294799805,0.4420222043991089
1772914221987127000,3.070126953125,0.6726207733154297,0.37213730812072754,0.0076600611209869385
1772914222037127200,3.120127197265625,-0.3729982376098633,0.6199593544006348,-0.1058056503534317
1772914222087127000,3.170126953125,-0.9211478233337402,0.4707057476043701,0.18510425090789795
1772914222137127200,3.220127197265625,-0.012506484985351562,0.36243414878845215,-0.03422655165195465
1772914222187127000,3.270126953125,-0.5529499053955078,0.17299294471740723,0.3098863959312439
1772914222237127200,3.320127197265625,-1.1723103523254395,0.3504362106323242,0.24312493205070496
1772914222287127000,3.370126953125,-0.4269256591796875,0.23446273803710938,0.38216716051101685
1772914222337127200,3.420127197265625,-0.4149932861328125,0.20870566368103027,0.40966740250587463
1772914222387127000,3.470126953125,-0.25216007232666016,0.4675898551940918,-0.016986101865768433
1772914222437127200,3.520127197265625,-0.2669649124145508,0.4347681999206543,-0.11372244358062744
1772914222487127000,3.570126953125,-0.19200611114501953,0.40932273864746094,-0.3489038944244385
1772914222537127200,3.620127197265625,0.027299880981445312,0.25798940658569336,-0.29726994037628174
1772914222587127000,3.670126953125,-0.5271978378295898,-0.018051862716674805,-0.03541910648345947
1772914222637127200,3.720127197265625,-0.4289259910583496,0.21148419380187988,-0.4657250642776489
1772914222687127000,3.770126953125,-0.6103062629699707,-0.18571066856384277,0.06312161684036255
1772914222737127200,3.820127197265625,-0.06502914428710938,-0.29886627197265625,-0.07813620567321777
1772914222787127000,3.870126953125,-0.37683868408203125,-0.36931705474853516,0.20805460214614868
1772914222837127200,3.920127197265625,-0.7969546318054199,-0.20739507675170898,0.5511393547058105
1772914222887127000,3.970126953125,-0.13286685943603516,-0.13381385803222656,0.653289794921875
1772914222937127200,4.020127197265625,1.1488466262817383,-0.3014078140258789,0.6258176565170288
1772914222987127000,4.070126953125,0.9240570068359375,-0.31511473655700684,0.4001392722129822
1772914223037127200,4.120127197265625,1.0633010864257812,-0.21576237678527832,-0.24380385875701904
1772914223087127000,4.170126953125,-0.5662322044372559,-0.3220813274383545,-0.026550769805908203
1772914223137127200,4.220127197265625,0.3477916717529297,-0.3146841526031494,-0.20522046089172363
1772914223187127000,4.270126953125,0.8091869354248047,-0.22908687591552734,-0.4817167818546295
1772914223237127200,4.320127197265625,0.03075695037841797,-0.2660086154937744,-0.6246502995491028
1772914223287127000,4.370126953125,-0.4604825973510742,-0.49759888648986816,-0.35059991478919983
1772914223337127200,4.420127197265625,-1.316178321838379,-0.634702205657959,0.12584590911865234
1772914223387127000,4.470126953125,-0.36845874786376953,-0.4949612617492676,-0.030716240406036377
1772914223437127200,4.520127197265625,1.0080280303955078,-0.4547276496887207,-0.16704654693603516
1772914223487127000,4.570126953125,0.6273508071899414,-0.29743361473083496,-0.06080055236816406
1772914223537127200,4.620127197265625,0.5972194671630859,-0.1474132537841797,-0.2762971818447113
1772914223587127000,4.670126953125,-0.6701316833496094,0.12023091316223145,-0.3120068311691284
1772914223637127200,4.720127197265625,-0.8677806854248047,0.03805708885192871,-0.009786248207092285
1772914223687127000,4.770126953125,0.1351318359375,-0.19202351570129395,-0.05580282211303711
1772914223737127200,4.820127197265625,-0.4708585739135742,0.03959918022155762,-0.19116699695587158
1772914223787127000,4.870126953125,-0.13692283630371094,0.2605159282684326,-0.5674252510070801
1772914223837127200,4.920127197265625,0.22756004333496094,-0.20357203483581543,-0.11790668964385986
1772914223887127000,4.970126953125,-1.2366242408752441,-0.28223466873168945,0.427970826625824
1772914223937127200,5.020127197265625,-0.5183639526367188,-0.3473057746887207,0.6658608317375183
1772914223987127000,5.070126953125,0.08134078979492188,0.028545141220092773,0.23028439283370972
1772914224037127200,5.120127197265625,0.5682716369628906,-0.015556812286376953,0.7480974793434143
1772914224087127000,5.170126953125,0.3281211853027344,0.13048934936523438,0.5767002105712891
1772914224137127200,5.220127197265625,-1.0875210762023926,0.701284646987915,0.24873894453048706
1772914224187127000,5.270126953125,-1.0926074981689453,0.5074567794799805,0.5529898405075073
1772914224237127200,5.320127197265625,-0.12107467651367188,0.4722609519958496,0.24121248722076416
1772914224287127000,5.370126953125,0.5394601821899414,0.12154316902160645,0.06937360763549805
1772914224337127200,5.420127197265625,1.347677230834961,-0.10759449005126953,-0.6464273929595947
1772914224387127000,5.470126953125,-0.8033943176269531,-0.027428627014160156,-0.7220361232757568
1772914224437127200,5.520127197265625,-1.556626319885254,-0.06238198280334473,-0.6406352519989014
1772914224487127000,5.570126953125,-1.2884759902954102,0.2492079734802246,-0.7158362865447998
1772914224537127200,5.620127197265625,0.1049661636352539,0.3495962619781494,-0.7734568119049072
1772914224587127000,5.670126953125,0.36445140838623047,0.393047571182251,-0.7375438213348389
1772914224637127200,5.720127197265625,0.3415184020996094,0.24114155769348145,-0.7983347177505493
1772914224687127000,5.770126953125,-0.45156097412109375,-0.13950753211975098,-0.28508269786834717
1772914224737127200,5.820127197265625,0.21680355072021484,-0.15611696243286133,-0.5385687947273254
1772914224787127000,5.870126953125,-0.06452751159667969,0.06983184814453125,-0.7051446437835693
1772914224837127200,5.920127197265625,-0.5678873062133789,0.37572693824768066,-0.8410731554031372
1772914224887127000,5.970126953125,0.06640434265136719,0.3294811248779297,-0.7088431119918823
1772914224937127200,6.020127197265625,-0.18470382690429688,0.31424999237060547,-0.3510631322860718
1772914224987127000,6.070126953125,0.36162376403808594,0.11478042602539062,-0.20509737730026245
1772914225037127200,6.120127197265625,0.8855829238891602,-0.15100598335266113,-0.5131976008415222
1772914225087127000,6.170126953125,-0.3014411926269531,-0.26100850105285645,-0.24520640075206757
1772914225137127200,6.220127197265625,-1.259127140045166,-0.053746700286865234,-0.22619302570819855
1772914225187127000,6.270126953125,-0.5828132629394531,0.12245583534240723,-0.48801031708717346
1772914225237127200,6.320127197265625,0.5975275039672852,0.10688614845275879,-0.6160559058189392
1772914225287127000,6.370126953125,0.016057968139648438,0.13773608207702637,-0.2806599736213684
1772914225337127200,6.420127197265625,0.28780174255371094,0.019047021865844727,-0.25141334533691406
1772914225387127000,6.470126953125,-0.23232650756835938,0.06930899620056152,-0.18992240726947784
1772914225437127200,6.520127197265625,-0.6958532333374023,0.17484378814697266,-0.21672773361206055
1772914225487127000,6.570126953125,-0.007498741149902344,-0.3243987560272217,0.3310110569000244
1772914225537127200,6.620127197265625,0.029891014099121094,-0.31409215927124023,0.09627440571784973
1772914225587127000,6.670126953125,0.06460285186767578,-0.4570143222808838,0.36658135056495667
1772914225637127200,6.720127197265625,-0.08820056915283203,-0.42276597023010254,0.17296110093593597
1772914225687127000,6.770126953125,-0.22817134857177734,-0.4485619068145752,0.09823925793170929
1772914225737127200,6.820127197265625,-0.4809427261352539,-0.44418883323669434,0.2104916125535965
1772914225787127000,6.870126953125,-0.30812740325927734,-0.21195149421691895,0.2662477195262909
1772914225837127200,6.920127197265625,0.6565771102905273,-0.2500479221343994,0.2569562494754791
1772914225887127000,6.970126953125,0.9390926361083984,-0.18207430839538574,0.05397903919219971
1772914225937127200,7.020127197265625,-0.07363700866699219,-0.20414400100708008,0.20705729722976685
1772914225987127000,7.070126953125,0.3802499771118164,-0.5090692043304443,0.0666441023349762
1772914226037127200,7.120127197265625,0.4340362548828125,-0.832277774810791,0.07103455066680908
1772914226087127000,7.170126953125,-0.6061434745788574,-0.6539783477783203,-0.23691819608211517
1772914226137127200,7.220127197265625,-0.39896392822265625,-0.6197853088378906,-0.33279019594192505
1772914226187127000,7.270126953125,0.0667734146118164,-0.6870841979980469,-0.4649871289730072
1772914226237127200,7.320127197265625,0.6005744934082031,-0.5816612243652344,-0.7303951978683472
1772914226287127000,7.370126953125,-0.1677989959716797,-0.7463910579681396,-0.43383386731147766
1772914226337127200,7.420127197265625,0.6198749542236328,-0.7865443229675293,-0.565514862537384
1772914226387127000,7.470126953125,0.8521127700805664,-0.8865609169006348,-0.3388468623161316
1772914226437127200,7.520127197265625,1.1323137283325195,-0.9008359909057617,-0.5180715918540955
1772914226487127000,7.570126953125,1.2024755477905273,-0.7422194480895996,-0.6892271041870117
1772914226537127200,7.620127197265625,0.7968368530273438,-0.8720736503601074,-0.3700394034385681
1772914226587127000,7.670126953125,0.7453680038452148,-0.654728889465332,-0.7174165844917297
1772914226637127200,7.720127197265625,-0.761805534362793,-0.526494026184082,-0.36827945709228516
1772914226687127000,7.770126953125,-0.4266796112060547,-0.4053962230682373,-0.278891384601593
1772914226737127200,7.820127197265625,-0.1113576889038086,-0.3241140842437744,-0.20402982831001282
1772914226787127000,7.870126953125,0.12430953979492188,-0.3036196231842041,-0.09455554932355881
1772914226837127200,7.920127197265625,-0.3078327178955078,-0.2682535648345947,0.05594581365585327
1772914226887127000,7.970126953125,-1.1469593048095703,-0.04801201820373535,0.12240246683359146
1772914226937127200,8.020127197265625,-1.0727386474609375,0.11731743812561035,0.22819313406944275
1772914226987127000,8.070126953125,-0.6929359436035156,0.1241905689239502,0.31954172253608704
1772914227037127200,8.120127197265624,-0.28974342346191406,0.30498242378234863,0.18343156576156616
1772914227087127000,8.170126953125,-0.3738851547241211,0.2722303867340088,0.28620457649230957
1772914227187127000,8.270126953125,-0.9323158264160156,0.36688947677612305,0.0935128703713417
1772914227237127200,8.320127197265625,-1.1052618026733398,0.48860836029052734,-0.0032857507467269897
1772914227287127000,8.370126953125,-1.0110454559326172,0.56331467628479,-0.15576736629009247
1772914227337127200,8.420127197265625,-0.33260059356689453,0.6746628284454346,-0.34776198863983154
1772914227387127000,8.470126953125,-0.09484386444091797,0.7282731533050537,-0.30949318408966064
1772914227437127200,8.520127197265625,-0.10839080810546875,0.24505329132080078,0.24257507920265198
1772914227487127000,8.570126953125,0.8122434616088867,-0.026058197021484375,0.24257507920265198
1772914227537127200,8.620127197265624,-0.16412830352783203,-0.047673702239990234,0.2138926088809967
1772914227587127000,8.670126953125,-0.43588829040527344,-0.1617128849029541,0.2518356740474701
1772914227637127200,8.720127197265626,-0.32885074615478516,-0.01082921028137207,0.17653103172779083
1772914227687127000,8.770126953125,-0.05016040802001953,-0.19959139823913574,0.31691819429397583
1772914227737127200,8.820127197265625,0.36695384979248047,-0.27575206756591797,0.10313132405281067
1772914227787127000,8.870126953125,0.12560749053955078,-0.4449610710144043,0.16907604038715363
1772914227837127200,8.920127197265625,-0.40967464447021484,-0.6604390144348145,0.41781672835350037
1772914227887127000,8.970126953125,-0.6668696403503418,-0.51871657371521,0.2178342044353485
1772914227937127200,9.020127197265625,0.0074291229248046875,-1.0483016967773438,-0.28942424058914185
1772914227987127000,9.070126953125,-0.31793212890625,-0.9597535133361816,0.06597214937210083
1772914228037127200,9.120127197265624,0.8202962875366211,0.13532400131225586,-0.2580888569355011
1772914228087127000,9.170126953125,0.5050687789916992,0.09244799613952637,-0.42914262413978577
1772914228137127200,9.220127197265626,-0.4825248718261719,-0.006766319274902344,-0.433268278837204
1772914228187127000,9.270126953125,-0.528843879699707,-0.27387213706970215,-0.2695108652114868
1772914228237127200,9.320127197265625,-0.9990129470825195,-0.3987245559692383,-0.06034025549888611
1772914228287127000,9.370126953125,-0.4611167907714844,-0.47364091873168945,-0.1369546353816986
1772914228337127200,9.420127197265625,0.12853717803955078,-0.36813831329345703,-0.17929956316947937
1772914228387127000,9.470126953125,0.7393341064453125,-0.2642230987548828,-0.33761537075042725
1772914228437127200,9.520127197265625,1.3904790878295898,0.2847628593444824,-1.1717917919158936
1772914228487127000,9.570126953125,0.6626415252685547,-0.004935264587402344,-0.8945419192314148
1772914228537127200,9.620127197265624,0.08939647674560547,-0.3802499771118164,-0.32080236077308655
1772914228587127000,9.670126953125,-0.16829490661621094,-0.47719335556030273,-0.18010464310646057
1772914228637127200,9.720127197265626,0.5713176727294922,-0.6964230537414551,-0.12868079543113708
1772914228687127000,9.770126953125,0.06060504913330078,-0.546011209487915,0.10393399000167847
1772914228737127200,9.820127197265625,-0.235748291015625,-0.33907461166381836,0.1835116446018219
1772914228787127000,9.870126953125,0.5080118179321289,-0.3250300884246826,0.05587835609912872
1772914228837127200,9.920127197265625,-0.3566474914550781,-0.42176222801208496,0.6297551989555359
1772914228887127000,9.970126953125,-0.39183807373046875,-0.25495028495788574,0.6152318716049194
1772914228937127200,10.020127197265625,-0.3690147399902344,-0.2445669174194336,0.7316976189613342
1772914228987127000,10.070126953125,-0.09847068786621094,-0.0014030933380126953,0.37230339646339417
1772914229037127200,10.120127197265624,0.13807964324951172,0.22159361839294434,0.1399276852607727
1772914229087127000,10.170126953125,0.053188323974609375,0.1283893585205078,0.2824588716030121
1772914229137127200,10.220127197265626,-0.3242826461791992,0.09430217742919922,0.4696574807167053
1772914229187127000,10.270126953125,-0.2539215087890625,-0.0006062984466552734,0.24260860681533813
1772914229237127200,10.320127197265625,-0.3104524612426758,-0.16259551048278809,0.2532980442047119
1772914229287127000,10.370126953125,-0.4096031188964844,-0.19878840446472168,0.12544983625411987
1772914229337127200,10.420127197265625,-0.14332294464111328,-0.23720908164978027,0.1452178955078125
1772914229387127000,10.470126953125,-0.3146934509277344,0.09381437301635742,-0.03117382526397705
1772914229437127200,10.520127197265625,-0.17972278594970703,0.14076566696166992,-0.051923274993896484
1772914229487127000,10.570126953125,0.09410953521728516,0.20012402534484863,-0.2448441982269287
1772914229537127200,10.620127197265624,-0.3235940933227539,0.26955580711364746,-0.12527012825012207
1772914229587127000,10.670126953125,-0.5549468994140625,0.24100255966186523,0.08841574192047119
1772914229637127200,10.720127197265626,0.2830848693847656,0.1841437816619873,-0.00971609354019165
1772914229687127000,10.770126953125,-0.18657398223876953,0.28401660919189453,0.06193411350250244
1772914229737127200,10.820127197265625,-0.08840274810791016,0.4324345588684082,-0.005103468894958496
1772914229787127000,10.870126953125,-0.41014575958251953,0.24671006202697754,0.37311792373657227
1772914229837127200,10.920127197265625,-0.02849102020263672,0.051178932189941406,0.254524290561676
1772914229887127000,10.970126953125,0.0930185317993164,-0.06272268295288086,0.19105470180511475
1772914229937127200,11.020127197265625,-0.8959240913391113,0.15379762649536133,0.32707834243774414
1772914229987127000,11.070126953125,-0.6690154075622559,0.028722286224365234,0.3640051484107971
1772914230037127200,11.120127197265624,-0.17946529388427734,0.07977175712585449,0.24691241979599
1772914230087127000,11.170126953125,-0.5614032745361328,0.02552938461303711,0.5038688778877258
1772914230137127200,11.220127197265626,0.1634988784790039,0.181626558303833,0.025742292404174805
