time,seconds_elapsed,z,y,x
1772914219160206600,0.24320654296875,9.442377090454102,4.409373760223389,-1.6103696823120117
1772914219209787400,0.292787353515625,9.608678817749023,4.100101470947266,-1.3815559148788452
1772914219259670500,0.34267041015625,8.388039588928223,3.5733814239501953,-0.4749752879142761
1772914219309595600,0.392595703125,7.52004337310791,3.7369906902313232,-0.32243284583091736
1772914219359475000,0.442474853515625,7.914859294891357,3.6993038654327393,-0.10348957777023315
1772914219409363700,0.49236376953125,8.047062873840332,3.575176239013672,0.4543372094631195
1772914219459467000,0.542467041015625,8.688339233398438,3.6364922523498535,0.3556332588195801
1772914219509199400,0.592199462890625,8.505288124084473,3.5416765213012695,0.47168517112731934
1772914219559285800,0.64228564453125,7.459624767303467,3.2192437648773193,1.6016956567764282
1772914219608964900,0.69196484375,7.610970497131348,3.0565319061279297,2.14935302734375
1772914219659050800,0.74205078125,7.793722629547119,3.2141590118408203,2.286342144012451
1772914219708747300,0.791747314453125,8.523234367370605,3.2829527854919434,2.182553291320801
1772914219758841300,0.84184130859375,9.31466007232666,3.4357941150665283,1.898106575012207
1772914219808533800,0.89153369140625,9.032008171081543,3.6104702949523926,1.9513468742370605
1772914219858633500,0.941633544921875,9.097810745239258,3.9400815963745117,1.389631748199463
1772914219958413800,1.041413818359375,9.109176635742188,3.719343662261963,0.877567708492279
1772914220008106800,1.091106689453125,8.854939460754395,3.3672995567321777,0.8398807644844055
1772914220058210800,1.1412109375,8.012665748596191,3.2563323974609375,0.8249256014823914
1772914220107912700,1.19091259765625,8.008478164672852,3.3672995567321777,0.612861692905426
1772914220157953500,1.24095361328125,8.585746765136719,3.3113675117492676,0.3002992272377014
1772914220207709400,1.29070947265625,8.42303466796875,3.3496525287628174,-0.0690927505493164
1772914220257855500,1.34085546875,8.349455833435059,3.492922782897949,-0.4507479667663574
1772914220307781400,1.390781494140625,7.409973621368408,3.4770703315734863,-0.15224334597587585
1772914220357656300,1.44065625,7.652545928955078,3.587738513946533,-0.15523436665534973
1772914220407579400,1.490579345703125,7.610372543334961,3.7369906902313232,-0.12023933976888657
1772914220457453800,1.540453857421875,8.36710262298584,3.838087558746338,-0.3113660514354706
1772914220507360300,1.5903603515625,8.46042251586914,3.450749397277832,0.06370890140533447
1772914220557194000,1.640194091796875,8.388936996459961,3.408874988555908,0.0038883367087692022
1772914220606824400,1.689824462890625,8.534600257873535,3.2365918159484863,0.12023933976888657
1772914220656851200,1.739851318359375,7.840681552886963,3.3433713912963867,0.08195417374372482
1772914220706832400,1.789832275390625,8.250751495361328,3.385545015335083,-0.064606212079525
1772914220756708900,1.839708984375,9.126524925231934,3.2721848487854004,-0.13519448041915894
1772914220806817000,1.889817138671875,9.087641716003418,3.1830523014068604,-0.07776673883199692
1772914220856780800,1.93978076171875,8.41286563873291,3.385545015335083,-0.06281159073114395
1772914220906534000,1.989533935546875,8.470890998840332,3.4603207111358643,-0.1010967567563057
1772914220956313000,2.03931298828125,9.004789352416992,3.1737802028656006,0.08763712644577026
1772914221005978600,2.088978515625,9.287442207336426,2.972184896469116,-0.056530434638261795
1772914221055907300,2.1389072265625,8.759824752807617,3.042174816131592,-0.7136593461036682
1772914221155624000,2.2386240234375,9.477372169494629,2.6192433834075928,-1.0492527484893799
1772914221205524700,2.288524658203125,8.49152946472168,2.431107759475708,-0.5362913608551025
1772914221255385300,2.33838525390625,8.014161109924316,2.8818557262420654,-0.7307082414627075
1772914221305578800,2.388578857421875,8.590232849121094,3.0128629207611084,-0.6263213157653809
1772914221355548400,2.43854833984375,9.186345100402832,2.900400161743164,-0.39990049600601196
1772914221405360000,2.488360107421875,9.474679946899414,2.857030153274536,-0.35922250151634216
1772914221455325700,2.53832568359375,8.781359672546387,2.9225337505340576,-0.377766877412796
1772914221505098500,2.588098388671875,8.09252643585205,2.924328327178955,-0.22073788940906525
1772914221555074800,2.63807470703125,8.097012519836426,2.9847471714019775,0.005682953633368015
1772914221604955000,2.687954833984375,9.076574325561523,2.8869404792785645,0.1746760457754135
1772914221654561300,2.737561279296875,9.109176635742188,3.019144058227539,0.15224334597587585
1772914221704449500,2.787449462890625,8.603693008422852,3.059821844100952,0.2312064915895462
1772914221754357000,2.83735693359375,8.683553695678711,3.1441688537597656,0.12741780281066895
1772914221804278800,2.88727880859375,8.354241371154785,3.061915636062622,0.37866419553756714
1772914221854167600,2.93716748046875,8.439485549926758,3.067598581314087,0.45254257321357727
1772914221904376800,2.987376953125,8.874680519104004,3.1845479011535645,0.34695929288864136
1772914221954301000,3.037301025390625,9.142376899719238,3.542573928833008,0.0038883367087692022
1772914222003894300,3.086894287109375,7.93998384475708,3.640380620956421,0.23838496208190918
1772914222053778000,3.13677783203125,8.193622589111328,3.5386855602264404,0.3005983531475067
1772914222103672800,3.1866728515625,8.548956871032715,3.459423303604126,0.33798620104789734
1772914222153585200,3.236585205078125,7.856534004211426,3.4618160724639893,0.5754738450050354
1772914222203634700,3.286634765625,7.7339019775390625,3.6771702766418457,0.5554339289665222
1772914222253383400,3.336383544921875,8.279764175415039,3.5662031173706055,0.7728816866874695
1772914222303276000,3.386276123046875,8.280961036682129,3.770191192626953,0.5581258535385132
1772914222353173800,3.436173828125,8.398508071899414,3.9783668518066406,0.2958126962184906
1772914222403047000,3.486046875,8.35274600982666,3.9571304321289062,0.2150549292564392
1772914222452950300,3.5359501953125,8.470890998840332,3.9927237033843994,0.03200400248169899
1772914222503009000,3.586009033203125,8.2788667678833,3.7387852668762207,0.349352091550827
1772914222552765200,3.63576513671875,7.888537883758545,3.8383865356445312,0.20189441740512848
1772914222602660600,3.68566064453125,7.76889705657959,3.8183467388153076,0.22941187024116516
1772914222652573000,3.735572998046875,7.9606218338012695,3.5575289726257324,0.49322056770324707
1772914222702446000,3.785446044921875,8.062017440795898,3.4845480918884277,0.49591249227523804
1772914222752305700,3.8353056640625,7.682755470275879,3.5503506660461426,0.8240283131599426
1772914222802193700,3.885193603515625,7.594520092010498,3.6819558143615723,1.0680961608886719
1772914222852097000,3.935096923828125,8.767900466918945,3.6646077632904053,1.072881817817688
1772914222902016800,3.985016845703125,9.274879455566406,3.5192439556121826,1.1222338676452637
1772914222951880400,4.03488037109375,9.329915046691895,3.555136203765869,0.6720840334892273
1772914223001770500,4.0847705078125,8.635995864868164,3.6023945808410645,0.43220359086990356
1772914223051645400,4.1346455078125,7.808079242706299,3.465106248855591,0.701396107673645
1772914223101548800,4.184548828125,9.198907852172852,3.463610887527466,0.4214358925819397
1772914223151433000,4.234432861328125,8.892327308654785,3.4881372451782227,0.3170489966869354
1772914223201325600,4.28432568359375,8.404789924621582,3.3475589752197266,0.251844584941864
1772914223301096400,4.384096435546875,7.541578769683838,3.034398317337036,0.9529415965080261
1772914223350998500,4.43399853515625,9.045467376708984,3.111267566680908,0.6915257573127747
1772914223400881400,4.48388134765625,9.678967475891113,3.176172971725464,0.6780661344528198
1772914223450762800,4.5337626953125,9.371489524841309,3.324826955795288,0.6218347549438477
1772914223500657700,4.58365771484375,8.786444664001465,3.4749767780303955,0.44805604219436646
1772914223550525200,4.633525146484375,7.83111047744751,3.6379876136779785,0.46390849351882935
1772914223600399400,4.6833994140625,8.272287368774414,3.3705897331237793,0.6783652305603027
1772914223650287900,4.733287841796875,8.648259162902832,3.28983211517334,0.49322056770324707
1772914223700172300,4.78317236328125,8.289036750793457,3.536292791366577,0.28594231605529785
1772914223750054000,4.833053955078125,8.76102066040039,3.4740793704986572,0.21385852992534637
1772914223799950300,4.882950439453125,8.909674644470215,3.0714869499206543,0.5919244885444641
1772914223849847600,4.93284765625,7.9591264724731445,3.0469605922698975,0.8736793398857117
1772914223899730400,4.98273046875,7.703692436218262,3.084946632385254,1.1602199077606201
1772914223949605600,5.032605712890625,8.521140098571777,3.1339993476867676,1.2167502641677856
1772914223999518000,5.08251806640625,8.975178718566895,3.528815269470215,0.8273184299468994
1772914224049424100,5.132424072265625,9.447761535644531,3.3323047161102295,1.5077773332595825
1772914224099309000,5.18230908203125,8.226823806762695,3.846163272857666,1.028016448020935
1772914224149233000,5.23223291015625,7.494021415710449,4.0079779624938965,1.1365907192230225
1772914224199125500,5.28212548828125,7.811070442199707,3.947559118270874,1.2254242897033691
1772914224249018000,5.33201806640625,8.616554260253906,3.6858441829681396,1.2041879892349243
1772914224348806400,5.431806396484375,9.05115032196045,3.364607810974121,0.32123643159866333
1772914224398714000,5.481714111328125,7.313961505889893,3.5048868656158447,0.41605204343795776
1772914224448596000,5.531595947265625,6.812664985656738,3.681058645248413,0.49172505736351013
1772914224498478600,5.581478515625,7.782954692840576,3.964907169342041,0.37926238775253296
1772914224548370400,5.631370361328125,8.720342636108398,4.045963764190674,0.4178466498851776
1772914224598278100,5.681278076171875,8.959325790405273,4.0803608894348145,0.28145575523376465
1772914224648158000,5.731157958984375,8.37846851348877,3.743271827697754,0.6032904386520386
1772914224698047000,5.781046875,8.129016876220703,3.578167200088501,0.6885347366333008
1772914224747941600,5.830941650390625,8.801698684692383,3.6119658946990967,0.4184448719024658
1772914224797835300,5.880835205078125,7.897212028503418,3.9690945148468018,0.2102692872285843
1772914224847746600,5.93074658203125,8.129016876220703,4.143471717834473,0.029012974351644516
1772914224897639700,5.9806396484375,8.280961036682129,4.132105827331543,0.18574285507202148
1772914224947539000,6.0305390625,8.280961036682129,4.104887008666992,0.4094717800617218
1772914224997697500,6.080697509765625,8.937192916870117,3.84765887260437,0.2566302418708801
1772914225047604500,6.1306044921875,8.89801025390625,3.6777684688568115,0.036191441118717194
1772914225097189000,6.180189208984375,7.465307712554932,3.7328033447265625,0.3044866919517517
1772914225147375900,6.2303759765625,7.246962547302246,3.939483404159546,0.10199406743049622
1772914225197188000,6.28018798828125,8.294719696044922,4.0435709953308105,-0.12113664299249649
1772914225247161000,6.3301611328125,8.812766075134277,4.088137626647949,-0.12442677468061447
1772914225296880600,6.379880615234375,8.281858444213867,4.013660907745361,0.19531415402889252
1772914225346861300,6.429861328125,8.648558616638184,4.011866092681885,0.017647067084908485
1772914225396694500,6.479694580078125,7.660322666168213,4.04775857925415,0.19621145725250244
1772914225446697000,6.529697021484375,7.9983086585998535,3.94097900390625,0.2102692872285843
1772914225496487200,6.579487060546875,8.331509590148926,3.624528169631958,0.5222335457801819
1772914225546365400,6.629365478515625,8.26839828491211,3.5925240516662598,0.3969094455242157
1772914225596301800,6.6793017578125,8.32253646850586,3.528815269470215,0.4980062246322632
1772914225646018000,6.72901806640625,8.138288497924805,3.5234313011169434,0.31016963720321655
1772914225696036400,6.779036376953125,7.9025959968566895,3.5431721210479736,0.33409786224365234
1772914225745905000,6.82890478515625,7.755138397216797,3.623929977416992,0.4743770956993103
1772914225795725000,6.87872509765625,8.224729537963867,3.757927894592285,0.5928218364715576
1772914225845614000,6.928614013671875,9.24437141418457,3.7369906902313232,0.45104706287384033
1772914225895510300,6.97851025390625,8.655736923217773,3.767200231552124,0.5210371017456055
1772914225945405400,7.028405517578125,8.294121742248535,3.6415770053863525,0.5246263742446899
1772914225995427300,7.07842724609375,8.70209789276123,3.1594231128692627,0.5539384484291077
1772914226045160200,7.12816015625,8.312965393066406,3.027219772338867,0.35413774847984314
1772914226095224800,7.178224853515625,7.707581043243408,3.1064820289611816,0.17617157101631165
1772914226145241600,7.22824169921875,8.150551795959473,3.022135019302368,0.11814561486244202
1772914226195004400,7.27800439453125,8.73619556427002,3.043670415878296,-0.15194423496723175
1772914226244996400,7.327996337890625,8.738588333129883,2.9650063514709473,-0.11635100096464157
1772914226294817800,7.37781787109375,8.60877799987793,2.89172625541687,-0.046061836183071136
1772914226344844800,7.4278447265625,9.124430656433105,2.775973320007324,0.05114658549427986
1772914226394754000,7.477754150390625,9.419645309448242,2.709273338317871,0.09511470049619675
1772914226444372200,7.527372314453125,9.659825325012207,2.7376883029937744,-0.1869392693042755
1772914226494297900,7.5772978515625,9.580862045288086,2.668595552444458,-0.09092725813388824
1772914226544191500,7.62719140625,9.557830810546875,2.5782663822174072,-0.10737791657447815
1772914226594086100,7.677086181640625,8.916853904724121,2.7146573066711426,-0.29012975096702576
1772914226644265700,7.727265625,8.276175498962402,2.7260231971740723,-0.07417750358581543
1772914226693858000,7.776858154296875,8.767900466918945,2.7385854721069336,-0.03678964823484421
1772914226743764200,7.82676416015625,9.185447692871094,2.734697103500366,-0.08374879509210587
1772914226793641700,7.876641845703125,9.28445053100586,2.6659035682678223,0.040677983313798904
1772914226893406000,7.976406005859375,8.097311973571777,2.8818557262420654,0.14117653667926788
1772914226943274200,8.026274169921875,8.368000030517578,2.926422119140625,0.21744775772094727
1772914226993193500,8.076193359375,8.720941543579102,2.973381280899048,0.24406790733337402
1772914227043094500,8.126094482421875,8.950652122497559,3.057429075241089,0.20787647366523743
1772914227092994000,8.175994140625,8.736793518066406,3.1250264644622803,0.19202402234077454
1772914227143194600,8.226194580078126,8.373383522033691,3.1902308464050293,0.12741780281066895
1772914227192787500,8.275787353515625,8.075477600097656,3.2745778560638428,0.12023933976888657
1772914227242675700,8.32567578125,7.832306861877441,3.4040892124176025,0.08673982322216034
1772914227292595200,8.37559521484375,8.236394882202148,3.5733814239501953,-0.12741780281066895
1772914227342509800,8.425509765625,8.445467948913574,3.750450372695923,-0.14895321428775787
1772914227392435500,8.475435546875,8.742775917053223,3.657130241394043,0.03858426585793495
1772914227442334500,8.52533447265625,8.91954517364502,3.2925238609313965,0.4983053207397461
1772914227492214800,8.57521484375,9.07537841796875,3.253042459487915,0.35383865237236023
1772914227542109700,8.625109619140625,8.320442199707031,3.192922830581665,0.45134615898132324
1772914227592008200,8.67500830078125,8.108378410339355,3.344268798828125,0.36251261830329895
1772914227641909500,8.724909423828125,8.363214492797852,3.3200414180755615,0.42801615595817566
1772914227691802400,8.77480224609375,8.638986587524414,3.2614171504974365,0.4381856322288513
1772914227741694500,8.824694580078125,8.850153923034668,3.147459030151367,0.30628129839897156
1772914227791553000,8.874552978515625,8.523234367370605,2.883650302886963,0.5458626747131348
1772914227841427700,8.924427734375,7.974978923797607,2.852543592453003,0.6720840334892273
1772914227891314000,8.97431396484375,8.160721778869629,3.0837502479553223,0.4549354016780853
1772914227941201700,9.02420166015625,8.17119026184082,3.3026933670043945,0.5533402562141418
1772914227991087900,9.074087890625,8.609675407409668,3.562314748764038,0.4582255482673645
1772914228040984000,9.123984130859375,9.340981483459473,3.483351469039917,0.1657029688358307
1772914228090882000,9.173882080078124,8.761619567871094,3.4351959228515625,-0.05712864175438881
1772914228140792300,9.223792236328125,7.978568077087402,3.1809585094451904,0.13070793449878693
1772914228190693600,9.273693603515625,7.82273530960083,2.9614171981811523,0.29312077164649963
1772914228240591400,9.32359130859375,7.57507848739624,2.812762975692749,0.4304089844226837
1772914228290481000,9.37348095703125,8.357531547546387,2.815753936767578,0.2958126962184906
1772914228340394500,9.42339453125,8.768199920654297,2.9168508052825928,0.30987054109573364
1772914228390285300,9.473285400390624,9.486045837402344,3.2380871772766113,-0.21565313637256622
1772914228440161300,9.523161376953125,9.730711936950684,3.5048868656158447,-0.7794619798660278
1772914228490043000,9.57304296875,8.810373306274414,3.077169895172119,-0.1657029688358307
1772914228539903200,9.6229033203125,8.441878318786621,2.8677978515625,0.1094716340303421
1772914228589778000,9.67277783203125,8.61176872253418,2.6865415573120117,0.1986042857170105
1772914228639659800,9.72265966796875,9.191130638122559,2.5552353858947754,0.21355941891670227
1772914228689568000,9.772568115234375,8.45743179321289,2.7457640171051025,0.4465605318546295
1772914228739493000,9.8224931640625,8.986544609069824,2.8334012031555176,0.2967100143432617
1772914228789358800,9.87235888671875,9.080163955688477,2.7314071655273438,0.47168517112731934
1772914228839255000,9.922255126953125,8.441878318786621,2.7299115657806396,0.8174480199813843
1772914228939028700,10.02202880859375,8.659027099609375,2.870789051055908,0.8353942036628723
1772914228988892000,10.071891845703124,8.892327308654785,3.1417760848999023,0.5285146832466125
1772914229038771700,10.121771728515625,9.192625999450684,3.1657042503356934,0.5578267574310303
1772914229088665300,10.171665283203126,8.661120414733887,3.1130621433258057,0.877567708492279
1772914229138561500,10.2215615234375,8.605487823486328,2.972184896469116,0.9275178909301758
1772914229238365400,10.321365478515625,8.42303466796875,2.735295295715332,0.8814560174942017
1772914229288255000,10.3712548828125,8.49152946472168,2.725125789642334,0.8081758618354797
1772914229338147800,10.42114794921875,8.528319358825684,2.815753936767578,0.8449655175209045
1772914229388036000,10.4710361328125,8.590532302856445,3.1244282722473145,0.6592226624488831
1772914229437927000,10.520927001953124,8.685347557067871,3.147160053253174,0.7094719409942627
1772914229487969800,10.5709697265625,8.671588897705078,3.2156546115875244,0.5572285652160645
1772914229537720600,10.620720458984374,8.378169059753418,3.233600616455078,0.7645068168640137
1772914229587823600,10.67082373046875,8.41286563873291,3.2231321334838867,0.8736793398857117
1772914229637823200,10.7208232421875,9.010472297668457,3.164807081222534,0.8126623630523682
1772914229687568600,10.770568603515626,8.456534385681152,3.394218921661377,0.87248295545578
1772914229737612300,10.8206123046875,8.461917877197266,3.450151205062866,0.9445667266845703
1772914229787378700,10.870378662109376,8.290831565856934,3.241377353668213,1.195214867591858
1772914229837060400,10.920060302734376,8.794520378112793,3.158226728439331,1.0055837631225586
1772914229887186000,10.97018603515625,8.247461318969727,3.263810157775879,1.0806585550308228
1772914229936878800,11.01987890625,7.732705593109131,3.3343982696533203,1.2296117544174194
1772914229986880500,11.069880615234375,8.027022361755371,3.3251261711120605,1.2409776449203491
1772914230036913200,11.1199130859375,8.393722534179688,3.289233922958374,1.2616157531738281
1772914230086763300,11.16976318359375,8.283353805541992,3.363112211227417,1.3621143102645874
