time,seconds_elapsed,z,y,x
1772912895020117200,0.2601171875,8.449056625366211,2.213959217071533,2.220240354537964
1772912895069906400,0.309906494140625,8.78794002532959,2.084148406982422,2.4394826889038086
1772912895119775700,0.359775634765625,9.204889297485352,2.7059834003448486,2.053640127182007
1772912895169666300,0.409666259765625,8.50169849395752,2.2938196659088135,2.1134605407714844
1772912895219587800,0.459587890625,7.562515735626221,2.8630123138427734,2.2836501598358154
1772912895269513700,0.509513671875,7.661220073699951,3.1504502296447754,1.5792629718780518
1772912895319376600,0.559376708984375,7.910671710968018,3.0867412090301514,0.23599213361740112
1772912895369264400,0.609264404296875,8.521140098571777,2.8334012031555176,-0.2883351147174835
1772912895419133200,0.65913330078125,8.671588897705078,2.8414769172668457,-0.5943173170089722
1772912895468998700,0.70899853515625,8.90817928314209,2.2085752487182617,1.2472587823867798
1772912895518890000,0.758889892578125,10.043574333190918,2.5654048919677734,-0.5659025311470032
1772912895568808000,0.808807861328125,8.628817558288574,1.8948163986206055,1.181157112121582
1772912895618679000,0.858678955078125,9.234201431274414,1.908874273300171,0.9364909529685974
1772912895668595000,0.908594970703125,8.99133014678955,2.6748766899108887,-0.490827739238739
1772912895718477300,0.958477294921875,9.218050003051758,2.129911184310913,0.4103690981864929
1772912895768374800,1.008374755859375,9.024829864501953,2.179263114929199,0.034995030611753464
1772912895818299600,1.058299560546875,9.133703231811523,2.0706889629364014,-0.11874382197856903
1772912895868201500,1.108201416015625,9.15284538269043,1.994118571281433,-0.29700911045074463
1772912895918066200,1.158066162109375,8.552845001220703,2.067697763442993,-0.35533416271209717
1772912895967981000,1.20798095703125,7.739285945892334,1.994417667388916,-0.5635097622871399
1772912896017891600,1.2578916015625,6.780063152313232,1.4611172676086426,-0.10289137065410614
1772912896067775700,1.307775634765625,5.959025859832764,1.3010972738265991,-0.22851456701755524
1772912896117677300,1.35767724609375,6.147161483764648,1.241276741027832,0.07597211748361588
1772912896167559200,1.40755908203125,5.999105453491211,2.288435697555542,0.373878538608551
1772912896217461800,1.457461669921875,8.606983184814453,4.908576488494873,-0.4208376705646515
1772912896267357700,1.507357666015625,15.75554084777832,6.596114635467529,-2.0629122257232666
1772912896317243400,1.557243408203125,21.18216323852539,7.202396392822266,-4.142873287200928
1772912896367106800,1.60710693359375,25.537399291992188,2.4164516925811768,-5.290830135345459
1772912896417004000,1.657004150390625,10.799407005310059,3.3649067878723145,-2.353041887283325
1772912896466917600,1.706917724609375,5.199902534484863,5.043771266937256,-5.793920993804932
1772912896516780000,1.756780029296875,6.951149940490723,3.417548894882202,-6.177968978881836
1772912896566695200,1.806695068359375,-1.9022940397262573,2.7879374027252197,-1.0923235416412354
1772912896616542700,1.856542724609375,-1.9178473949432373,1.2921242713928223,4.191627025604248
1772912896666435300,1.906435302734375,-0.5548357367515564,0.16061821579933167,4.741976261138916
1772912896716347100,1.95634716796875,-1.7509479522705078,-0.4145565330982208,4.201796531677246
1772912896766450200,2.0064501953125,-1.119242787361145,-0.4944169819355011,1.6992031335830688
1772912896816151000,2.056151123046875,1.4051851034164429,1.026221752166748,-1.8963119983673096
1772912896866115300,2.106115234375,0.5709872841835022,8.0081787109375,-3.4429726600646973
1772912896915978500,2.155978515625,20.72124671936035,17.623437881469727,-17.294424057006836
1772912896966076000,2.206075927734375,31.581668853759766,17.155641555786133,-35.74966812133789
1772912897015766000,2.25576611328125,22.48655128479004,9.509974479675293,-20.896221160888672
1772912897065841200,2.305841064453125,0.9053842425346375,3.6930227279663086,-4.35045051574707
1772912897115842800,2.3558427734375,-6.700501441955566,-1.1428718566894531,0.5979065299034119
1772912897165735000,2.40573486328125,-1.4952150583267212,-4.900799751281738,6.573981285095215
1772912897215664600,2.45566455078125,-3.562912940979004,-3.753441333770752,7.299305438995361
1772912897265556700,2.505556640625,1.6651054620742798,-3.4250264167785645,5.473581790924072
1772912897315455200,2.555455322265625,1.3654043674468994,-2.7747769355773926,3.9589250087738037
1772912897365281000,2.605281005859375,-2.140080690383911,-0.21684955060482025,0.9002995491027832
1772912897415253800,2.655253662109375,-3.5359935760498047,1.5032907724380493,-2.42093825340271
1772912897464995600,2.70499560546875,-1.2400803565979004,3.7298123836517334,-9.626625061035156
1772912897514912300,2.754912353515625,5.4628143310546875,2.383849620819092,-25.433610916137695
1772912897564714200,2.80471435546875,9.46630573272705,-3.251546859741211,-44.02703857421875
1772912897614899000,2.85489892578125,5.196014404296875,0.40707895159721375,-43.413578033447266
1772912897664407600,2.904407470703125,13.266407012939453,2.665006160736084,-19.332212448120117
1772912897713507600,2.953507568359375,9.078967094421387,2.6748766899108887,1.6106687784194946
1772912897762607600,3.002607666015625,-0.92691969871521,7.3022966384887695,8.924630165100098
1772912897811707400,3.051707275390625,3.466601848602295,13.978869438171387,7.693522930145264
1772912897860807400,3.100807373046875,-1.173978567123413,16.285551071166992,3.1070802211761475
1772912897909907500,3.149907470703125,2.9006991386413574,15.735799789428711,-8.936295509338379
1772912897959007500,3.199007568359375,20.04587173461914,20.92493438720703,-16.944175720214844
1772912898008107500,3.248107421875,39.21596908569336,18.522541046142578,-36.97419357299805
1772912898057207600,3.29720751953125,14.073984146118164,20.7813663482666,-47.40809631347656
1772912898106307600,3.3463076171875,5.865705490112305,-0.6933203339576721,-13.540085792541504
1772912898155407600,3.39540771484375,-34.93939971923828,-26.547170639038086,12.713067054748535
1772912898204507400,3.44450732421875,19.5278263092041,-36.62813186645508,-7.5652079582214355
1772912898254687500,3.4946875,-12.973884582519531,-47.10899353027344,2.874976396560669
1772912898305587500,3.54558740234375,13.857434272766113,-50.13142776489258,-8.236992835998535
1772912898356487400,3.5964873046875,14.37877082824707,-28.6029052734375,-56.8053092956543
1772912898407387400,3.647387451171875,38.121253967285156,-15.022140502929688,-60.38616943359375
1772912898458287600,3.69828759765625,33.85275650024414,5.9575300216674805,-53.20889663696289
1772912898509187600,3.7491875,30.670303344726562,21.810279846191406,-31.412975311279297
1772912898560087600,3.800087646484375,12.881461143493652,30.326932907104492,8.232207298278809
1772912898610987500,3.850987548828125,-7.3639116287231445,47.40809631347656,15.173786163330078
1772912898661887500,3.901887451171875,33.57160186767578,26.379972457885742,-4.552345275878906
1772912898712145200,3.952145263671875,33.09333419799805,6.909275531768799,-37.062129974365234
1772912898762024000,4.00202392578125,45.364627838134766,19.246967315673828,-60.27071762084961
1772912898811916500,4.05191650390625,29.40808868408203,-3.7175490856170654,-60.89464569091797
1772912898861791000,4.101791015625,-17.193029403686523,-22.46142578125,-5.888736724853516
1772912898911695000,4.151695068359375,-4.040280818939209,-28.741687774658203,9.244071960449219
1772912898961596400,4.201596435546875,-18.486648559570312,-15.155241012573242,14.781362533569336
1772912899011510800,4.2515107421875,5.892026424407959,-28.469205856323242,14.010873794555664
1772912899061402600,4.301402587890625,0.9149555563926697,-24.832115173339844,-13.520644187927246
1772912899111295200,4.351295166015625,2.7798616886138916,-19.10399627685547,-40.733917236328125
1772912899161192700,4.401192626953125,19.944475173950195,-7.204489707946777,-50.4113883972168
1772912899211124200,4.451124267578125,39.92633819580078,15.129518508911133,-33.88715362548828
1772912899261037000,4.501037109375,9.95444107055664,36.01078414916992,-0.26620152592658997
1772912899310920700,4.550920654296875,19.66242218017578,33.95744323730469,23.606691360473633
1772912899360810000,4.60081005859375,26.463720321655273,14.276178359985352,3.2216365337371826
1772912899410723600,4.6507236328125,23.92882537841797,7.082156658172607,-30.5805721282959
1772912899460625200,4.700625244140625,25.79283332824707,34.151859283447266,-67.66543579101562
1772912899510525200,4.750525146484375,43.41328048706055,20.978473663330078,-70.72196960449219
1772912899560436200,4.800436279296875,-22.278675079345703,-13.001701354980469,-21.294925689697266
1772912899610325200,4.8503251953125,-15.48365592956543,-30.310482025146484,9.625128746032715
1772912899660233000,4.90023291015625,-6.521637916564941,-50.36473083496094,10.660024642944336
1772912899710136600,4.950136474609375,6.142375946044922,-62.25855255126953,1.8655043840408325
1772912899809965300,5.04996533203125,11.774481773376465,-32.637203216552734,-66.54200744628906
1772912899859868700,5.09986865234375,30.11965560913086,-13.93071460723877,-78.06883239746094
1772912899909778200,5.149778076171875,36.69902038574219,17.60429573059082,-51.52375411987305
1772912900009571000,5.249571044921875,13.89960765838623,51.29673385620117,16.326828002929688
1772912900059474200,5.29947412109375,63.658355712890625,31.174890518188477,-15.045769691467285
1772912900109376800,5.349376708984375,42.44956970214844,-0.11515458673238754,-38.74308776855469
1772912900159266800,5.399266845703125,29.050064086914062,12.815360069274902,-73.23802185058594
1772912900209166800,5.449166748046875,20.794227600097656,3.0723843574523926,-77.0055160522461
1772912900259073000,5.499072998046875,-13.002299308776855,-15.063715934753418,-48.79802703857422
1772912900309006000,5.549006103515625,-18.847965240478516,-36.07270050048828,4.6648077964782715
1772912900358903800,5.59890380859375,11.349157333374023,-48.407100677490234,3.4561331272125244
1772912900408800500,5.648800537109375,2.988635540008545,-56.88756561279297,3.37896466255188
1772912900458694700,5.698694580078125,11.92044448852539,-68.08806610107422,-17.971893310546875
1772912900508622600,5.74862255859375,20.62732696533203,-35.07399368286133,-75.23603057861328
1772912900558537200,5.798537109375,35.040794372558594,-2.1586251258850098,-76.0077133178711
1772912900608421000,5.848421142578125,31.06781005859375,20.247467041015625,-57.1540641784668
1772912900658311400,5.8983115234375,7.787142276763916,31.504501342773438,-13.234702110290527
1772912900708178000,5.948177978515625,0.3487538993358612,39.39902114868164,12.463615417480469
1772912900758081800,5.998081787109375,13.607383728027344,24.80489730834961,6.471388816833496
1772912900807987000,6.047987060546875,14.181063652038574,7.478168964385986,-11.366207122802734
1772912900857893600,6.0978935546875,13.50449275970459,2.8809585571289062,-15.740884780883789
1772912900907800800,6.14780078125,31.60230827331543,10.674980163574219,-64.29425048828125
1772912900957704700,6.19770458984375,22.278675079345703,-8.975776672363281,-62.52445602416992
1772912901007579100,6.2475791015625,-1.2299108505249023,-19.645671844482422,-20.794525146484375
1772912901057474600,6.297474609375,-3.0939197540283203,-10.747961044311523,-3.120539903640747
1772912901107381500,6.347381591796875,-8.253443717956543,-4.704887390136719,1.0863415002822876
1772912901157281300,6.39728125,-8.372187614440918,-4.130311012268066,4.138685703277588
1772912901207168800,6.447168701171875,-10.166504859924316,-3.1621150970458984,4.35254430770874
1772912901257043000,6.49704296875,-7.902894973754883,-2.252842426300049,1.6983058452606201
1772912901306934300,6.546934326171875,-0.27308088541030884,-1.7126628160476685,0.30598220229148865
1772912901356822500,6.596822509765625,-0.11036894470453262,0.8979067206382751,-2.1714866161346436
1772912901406709800,6.646709716796875,1.0552347898483276,2.2962124347686768,-3.533900022506714
1772912901456603600,6.696603759765625,8.756834030151367,7.716553688049316,-12.862318992614746
1772912901506503000,6.7465029296875,18.172590255737305,12.056835174560547,-29.02433967590332
1772912901556381000,6.796380859375,43.50001907348633,15.610177040100098,-60.47709655761719
1772912901606261800,6.84626171875,13.481163024902344,2.5393829345703125,-18.33949089050293
1772912901656158000,6.896157958984375,-7.090531826019287,-3.707080364227295,0.14656038582324982
1772912901706075100,6.9460751953125,-19.02353858947754,-0.851844847202301,7.758129119873047
1772912901755992600,6.99599267578125,-9.905089378356934,0.06281159073114395,10.292128562927246
1772912901805876200,7.045876220703125,-0.2521436810493469,-4.331307888031006,8.617152214050293
1772912901855766500,7.0957666015625,-0.8392825126647949,-3.079263687133789,-3.463012456893921
1772912901905861600,7.145861572265625,-1.2092727422714233,-1.5346965789794922,-5.7786664962768555
1772912902005765400,7.245765380859375,2.006680965423584,8.909076690673828,0.537188708782196
1772912902055668500,7.29566845703125,7.604689598083496,17.574983596801758,-3.9203407764434814
1772912902105571000,7.345571044921875,39.69602966308594,24.884159088134766,-21.735204696655273
1772912902155444700,7.39544482421875,39.76661682128906,14.769996643066406,-35.55495071411133
1772912902205289700,7.445289794921875,13.9420804977417,-3.268894910812378,-26.84298324584961
1772912902254985500,7.4949853515625,-6.751947402954102,-6.739085674285889,-8.702995300292969
1772912902304918500,7.54491845703125,-12.14507007598877,-5.045266628265381,1.098903775215149
1772912902354904000,7.594904052734375,-8.442177772521973,-3.106182813644409,3.534797191619873
1772912902404914700,7.644914794921875,-5.8821563720703125,-1.602592945098877,1.7928223609924316
1772912902454903600,7.694903564453125,-3.2644083499908447,-1.0977073907852173,0.30149564146995544
1772912902504882700,7.744882568359375,-1.9504495859146118,0.25064817070961,-1.6854444742202759
1772912902554164200,7.794164306640625,0.33439695835113525,0.14775680005550385,-2.2208385467529297
1772912902603264000,7.843263916015625,6.981658458709717,4.528117656707764,1.5571293830871582
1772912902652364000,7.892364013671875,17.399410247802734,12.075079917907715,-3.1513473987579346
1772912902701464000,7.941464111328125,29.245376586914062,10.865508079528809,-1.8008981943130493
1772912902750564000,7.990564208984375,20.770000457763672,10.08604621887207,1.6576279401779175
1772912902799664000,8.0396640625,14.343476295471191,4.809274196624756,1.7928223609924316
1772912902848764200,8.08876416015625,5.200799942016602,2.8899314403533936,1.2592228651046753
1772912902897864200,8.1378642578125,1.537388563156128,2.5145576000213623,2.5872395038604736
1772912902946964200,8.186964111328125,3.2793633937835693,2.1454646587371826,2.651247501373291
1772912902996064000,8.23606396484375,0.8479565382003784,1.4362918138504028,0.9083753228187561
1772912903045164000,8.2851640625,2.2061824798583984,1.2215359210968018,-0.7624131441116333
1772912903094264000,8.33426416015625,4.242175579071045,1.3510475158691406,-1.425225019454956
1772912903143364000,8.383364013671875,7.3624162673950195,3.1671998500823975,-0.376570463180542
1772912903192464100,8.432464111328125,16.09562110900879,5.951249122619629,-0.21565313637256622
1772912903241564200,8.481564208984375,23.876182556152344,10.56820011138916,-3.460021495819092
1772912903290664200,8.530664306640626,14.433805465698242,9.579665184020996,-0.44715872406959534
1772912903339764200,8.57976416015625,8.328817367553711,7.035197734832764,-1.9172492027282715
1772912903388864000,8.628864013671874,5.933900833129883,3.6559338569641113,-1.6103696823120117
1772912903437964000,8.677964111328125,3.4085757732391357,2.0398812294006348,1.176072359085083
1772912903487064000,8.72706396484375,1.7341982126235962,1.5176477432250977,2.4655046463012695
1772912903536164000,8.7761640625,1.7279170751571655,1.9462621212005615,0.916451096534729
1772912903585264000,8.82526416015625,2.078465461730957,2.1894326210021973,-0.7722834944725037
1772912903634364200,8.8743642578125,3.943072557449341,0.9406784176826477,-2.001596212387085
1772912903683464200,8.923464111328125,10.404890060424805,2.71854567527771,0.890728235244751
1772912903732564200,8.972564208984375,12.431910514831543,5.874080657958984,2.06530499458313
1772912903781664000,9.0216640625,9.768997192382812,11.504392623901367,-0.5315057039260864
1772912903830764000,9.070763916015625,17.173887252807617,8.647361755371094,0.7522436380386353
1772912903879864000,9.119864013671876,6.850052833557129,8.20229721069336,2.4320051670074463
1772912903978064100,9.218064208984375,1.781456470489502,3.9329030513763428,1.1306086778640747
1772912904027164200,9.2671640625,4.413860321044922,1.6929219961166382,1.3731811046600342
1772912904076264200,9.31626416015625,4.799703121185303,0.8461619019508362,0.6062814593315125
1772912904125364200,9.3653642578125,4.775774955749512,1.0606186389923096,0.8168498277664185
1772912904174464000,9.414464111328124,6.488138675689697,3.2461631298065186,1.3621143102645874
1772912904223564000,9.46356396484375,14.476576805114746,4.647758960723877,2.673680305480957
1772912904272664000,9.5126640625,18.987346649169922,4.491028785705566,0.6918248534202576
1772912904370864000,9.610864013671875,7.503592491149902,6.460621356964111,2.2815563678741455
1772912904419964200,9.659964111328126,8.438288688659668,4.2469611167907715,-0.5853442549705505
1772912904469064200,9.709064208984374,6.732206344604492,2.2396819591522217,-0.47796630859375
1772912904518164200,9.758164306640625,4.109673023223877,0.8398807644844055,0.605085015296936
1772912904567264000,9.807263916015625,4.393222332000732,1.8302102088928223,-0.5228317379951477
1772912904616364000,9.856364013671875,5.315356254577637,2.3024935722351074,-0.716949462890625
1772912904714564000,9.954564208984374,12.075079917907715,6.688238620758057,4.044767379760742
1772912904763664100,10.0036640625,11.140982627868652,7.0408806800842285,3.50129771232605
1772912904812764200,10.05276416015625,10.495518684387207,7.144968509674072,1.4222339391708374
1772912904861864200,10.1018642578125,2.9958138465881348,5.800201892852783,-0.19351953268051147
1772912904910964200,10.150964111328125,5.266602516174316,2.4263222217559814,-0.9281160831451416
1772912904960064000,10.20006396484375,5.529813289642334,0.9376873970031738,0.646361231803894
1772912905009164000,10.2491640625,5.136792182922363,0.667298436164856,1.7617156505584717
1772912905058264000,10.29826416015625,4.60139799118042,0.6705885529518127,1.064507007598877
1772912905107364000,10.347364013671875,2.109572172164917,1.6115660667419434,1.0668997764587402
1772912905156464000,10.396464111328125,7.157530784606934,5.01924467086792,3.075674295425415
1772912905205564200,10.445564208984376,13.058231353759766,10.573285102844238,-0.594915509223938
1772912905254664200,10.494664306640624,26.515167236328125,5.361119270324707,-1.8248263597488403
1772912905303764200,10.54376416015625,11.623135566711426,4.8176493644714355,2.705385208129883
1772912905352864000,10.592864013671875,4.696213722229004,4.753940582275391,1.1261221170425415
1772912905401964000,10.641964111328125,4.82542610168457,4.193421840667725,0.50907301902771
1772912905451064000,10.69106396484375,5.092225551605225,2.604886531829834,0.6553342938423157
1772912905549264100,10.78926416015625,3.8703906536102295,0.91914302110672,0.2521436810493469
1772912905598364200,10.8383642578125,7.8287177085876465,2.941676378250122,0.9589236974716187
1772912905647464200,10.887464111328125,9.352945327758789,5.323431968688965,1.2792627811431885
1772912905696564200,10.936564208984375,21.534208297729492,4.717749118804932,-2.09641170501709
1772912905745664000,10.9856640625,13.507782936096191,4.5011982917785645,-0.6469594240188599
1772912905794764000,11.034763916015624,7.853842258453369,3.6475589275360107,0.5712863802909851
1772912905843864000,11.083864013671874,4.934598445892334,2.933600664138794,0.9266205430030823
1772912905892964000,11.132964111328125,4.001397609710693,1.9666011333465576,1.399502158164978
1772912905942064000,11.182064208984375,3.6308093070983887,1.667797327041626,0.6550351977348328
1772912905991164200,11.2311640625,4.214657783508301,2.7711877822875977,1.4321043491363525
1772912906040264200,11.28026416015625,9.751350402832031,4.203890323638916,1.5936198234558105
1772912906089364200,11.3293642578125,11.273185729980469,3.337090253829956,1.6414763927459717
1772912906138464000,11.378464111328125,17.805891036987305,2.356631278991699,0.29730820655822754
1772912906187564000,11.42756396484375,9.315258979797363,3.3092737197875977,-0.7489534616470337
1772912906236664000,11.4766640625,6.837490558624268,3.0254251956939697,0.3897309899330139
1772912906285764000,11.52576416015625,7.825128078460693,2.866900682449341,0.5817549824714661
1772912906334864100,11.574864013671874,7.725826263427734,2.2549362182617188,0.7713862061500549
1772912906383964200,11.623964111328124,7.790432453155518,2.367398977279663,0.9385846853256226
