time,seconds_elapsed,z,y,x
1772912845309947100,0.262947021484375,8.599804878234863,3.6394832134246826,-0.23359930515289307
1772912845359627800,0.312627685546875,8.592925071716309,3.7857444286346436,-1.643869161605835
1772912845409893400,0.362893310546875,7.565805912017822,4.263112545013428,-2.0572292804718018
1772912845459652900,0.41265283203125,7.064509868621826,4.189533233642578,-1.2239288091659546
1772912845509366500,0.462366455078125,7.773383617401123,3.8204405307769775,0.09870393574237823
1772912845559476200,0.512476318359375,7.392625331878662,4.13060998916626,-2.033600091934204
1772912845609172700,0.5621728515625,8.464310646057129,3.6460635662078857,-0.8300103545188904
1772912845659275000,0.61227490234375,7.7114691734313965,3.719343662261963,-1.0172487497329712
1772912845709310200,0.662310302734375,8.668298721313477,2.7586255073547363,0.4782654345035553
1772912845759085000,0.7120849609375,9.933204650878906,3.244368314743042,-0.7800601720809937
1772912845808780500,0.761780517578125,10.334601402282715,2.9617161750793457,-1.4240286350250244
1772912845858901500,0.811901611328125,10.017252922058105,2.1672990322113037,-0.6215356588363647
1772912845908607200,0.861607177734375,7.475776195526123,2.1439690589904785,0.1743769496679306
1772912845958691600,0.911691650390625,8.23250675201416,2.29142689704895,-0.47796630859375
1772912846008689400,0.961689453125,8.749056816101074,2.0802602767944336,-0.5790630578994751
1772912846058476800,1.011476806640625,10.217352867126465,1.5275181531906128,-0.9227322340011597
1772912846108185300,1.061185302734375,9.080163955688477,1.8197416067123413,-0.6367899179458618
1772912846158299400,1.11129931640625,7.609475135803223,2.4164516925811768,-1.043868899345398
1772912846207971300,1.160971435546875,8.67069149017334,2.4741785526275635,-1.3369896411895752
1772912846258087400,1.21108740234375,8.543871879577637,2.6437699794769287,-1.3073785305023193
1772912846308105200,1.261105224609375,8.578568458557129,2.4858436584472656,-1.134796142578125
1772912846357878500,1.31087841796875,9.200701713562012,2.211566209793091,-1.012762188911438
1772912846407579400,1.360579345703125,9.151350021362305,2.0811574459075928,-0.7016952633857727
1772912846457706200,1.410706298828125,8.565707206726074,2.2444677352905273,-1.0929217338562012
1772912846507397000,1.460397216796875,8.891429901123047,1.8795621395111084,-0.7076773047447205
1772912846557605600,1.510605712890625,8.755936622619629,1.9432710409164429,-1.0663015842437744
1772912846607508000,1.560508056640625,8.555238723754883,1.7368900775909424,-0.7322037220001221
1772912846657383700,1.6103837890625,8.097012519836426,1.8436698913574219,-1.1210373640060425
1772912846707273200,1.660273193359375,7.430910587310791,1.0827522277832031,-0.5120640397071838
1772912846757061400,1.710061279296875,4.884049892425537,0.8976075649261475,-0.35443684458732605
1772912846807047200,1.760047119140625,5.178068161010742,1.5625132322311401,-1.7132610082626343
1772912846856758000,1.809758056640625,20.18854331970215,4.066003799438477,-11.163714408874512
1772912846906737200,1.859737060546875,31.17608642578125,6.407081604003906,-23.468505859375
1772912846956555300,1.90955517578125,6.168098449707031,5.401497840881348,-4.589134693145752
1772912847006739200,1.9597392578125,0.02751746028661728,3.425325632095337,1.4976078271865845
1772912847056704000,2.0097041015625,-4.949553489685059,1.7856439352035522,4.364508628845215
1772912847106438100,2.059438232421875,-3.2165517807006836,0.5431707501411438,8.44277572631836
1772912847156293400,2.10929345703125,-1.2810574769973755,0.17676977813243866,7.1611199378967285
1772912847205950700,2.15895068359375,-0.6038886308670044,1.3211371898651123,2.253739833831787
1772912847255863600,2.208863525390625,1.5756736993789673,2.773580551147461,-2.420041084289551
1772912847305770200,2.258770263671875,13.083953857421875,5.07009220123291,-6.782455921173096
1772912847355612700,2.30861279296875,36.93949890136719,7.709076404571533,-35.01387405395508
1772912847405495000,2.3584951171875,31.2421875,6.022136211395264,-31.200912475585938
1772912847455400200,2.408400146484375,7.441080093383789,3.408874988555908,-5.298905849456787
1772912847505319700,2.458319580078125,-2.3234307765960693,0.1621137410402298,0.3442673683166504
1772912847555481900,2.50848193359375,-8.199904441833496,-1.1802598237991333,4.749154567718506
1772912847605446100,2.558446044921875,-6.5991058349609375,0.28594231605529785,4.83469820022583
1772912847654996500,2.60799658203125,-4.618147850036621,0.08344969153404236,4.446462631225586
1772912847704889000,2.65788916015625,-1.490728497505188,0.46420758962631226,2.9267210960388184
1772912847754823700,2.70782373046875,0.22193430364131927,0.9095717072486877,1.3645070791244507
1772912847804719400,2.75771923828125,9.366405487060547,3.43190598487854,-5.140381336212158
1772912847854908400,2.807908447265625,25.67558479309082,7.497311592102051,-13.47458267211914
1772912847904843300,2.85784326171875,31.22783088684082,11.857034683227539,-27.373292922973633
1772912847954703600,2.90770361328125,21.323339462280273,8.298907279968262,-18.64846420288086
1772912848004592400,2.95759228515625,8.92492961883545,4.789832592010498,-7.085446834564209
1772912848054464500,3.007464599609375,0.10618150234222412,-0.4782654345035553,-0.14356936514377594
1772912848104356900,3.05735693359375,-6.08195686340332,-1.5658032894134521,6.269793510437012
1772912848154090500,3.107090576171875,-4.761417865753174,1.0259226560592651,4.323531627655029
1772912848203844600,3.1568447265625,-3.6993038654327393,0.22432711720466614,3.0999016761779785
1772912848253954000,3.2069541015625,0.6487540602684021,-0.09990034252405167,1.059123158454895
1772912848303681000,3.256680908203125,-0.550349235534668,0.03170489892363548,1.5541383028030396
1772912848353636400,3.30663623046875,1.7368900775909424,0.9002995491027832,-0.6254240274429321
1772912848403542000,3.3565419921875,13.152149200439453,6.200999736785889,-8.672785758972168
1772912848453448400,3.406448486328125,36.26472091674805,13.845170974731445,-29.35335350036621
1772912848503342000,3.456342041015625,32.71018600463867,12.396915435791016,-22.764118194580078
1772912848553427200,3.50642724609375,13.82064437866211,9.31466007232666,-8.286344528198242
1772912848603148000,3.55614794921875,6.20847749710083,1.6788642406463623,-3.5874392986297607
1772912848653062700,3.606062744140625,-6.071488380432129,-4.4721856117248535,5.322834014892578
1772912848702985500,3.6559853515625,-9.163313865661621,-3.887439489364624,6.38674259185791
1772912848752912000,3.705911865234375,-10.620543479919434,-2.7987051010131836,4.2454657554626465
1772912848802845000,3.755844970703125,-5.690730571746826,-3.770191192626953,2.1619153022766113
1772912848852767500,3.805767578125,-1.9423737525939941,-2.2591235637664795,-0.357128769159317
1772912848902689300,3.855689208984375,0.1295115202665329,-1.1778669357299805,-1.7084753513336182
1772912848952610300,3.9056103515625,9.09093189239502,2.6072793006896973,-4.131507396697998
1772912849002527500,3.955527587890625,31.570602416992188,8.107481002807617,-12.187542915344238
1772912849052455400,4.005455322265625,50.17180633544922,5.624030590057373,-20.216060638427734
1772912849102367200,4.0553671875,26.94647216796875,2.1894326210021973,-4.36600399017334
1772912849152466700,4.105466796875,14.038990020751953,0.709172785282135,0.11186445504426956
1772912849202164200,4.155164306640625,1.542473316192627,-2.3733808994293213,1.6648063659667969
1772912849252095700,4.205095703125,-6.690930366516113,-3.128615617752075,5.392524719238281
1772912849302012200,4.25501220703125,-9.544072151184082,0.010169495828449726,2.9063823223114014
1772912849351928300,4.30492822265625,-4.540679931640625,-0.7881359457969666,2.2743778228759766
1772912849401836800,4.3548369140625,-0.758225679397583,-0.9729815125465393,1.3728820085525513
1772912849451943700,4.404943603515625,-1.4913266897201538,-0.5027918815612793,1.196710467338562
1772912849501644300,4.454644287109375,2.462812662124634,-0.8129615187644958,-0.41964125633239746
1772912849551529700,4.50452978515625,9.639784812927246,1.5287145376205444,-6.247959136962891
1772912849601428500,4.554428466796875,35.80500030517578,7.619943618774414,-28.525436401367188
1772912849651332400,4.604332275390625,45.74388885498047,6.814459800720215,-28.92115020751953
1772912849701229000,4.65422900390625,14.784952163696289,4.386343002319336,-6.703791618347168
1772912849751335400,4.70433544921875,7.677072525024414,0.6442674994468689,-1.5281163454055786
1772912849801053200,4.75405322265625,-1.9558334350585938,-2.409273386001587,3.925126552581787
1772912849850948400,4.8039482421875,-6.374479293823242,-0.9125627279281616,3.891028642654419
1772912849900838000,4.853837890625,-6.462714672088623,-1.7826528549194336,5.530411243438721
1772912849950757400,4.90375732421875,-3.7935211658477783,-1.6196417808532715,3.3634114265441895
1772912850000656600,4.95365673828125,-3.332005500793457,-0.5605186820030212,1.246361494064331
1772912850050778400,5.0037783203125,-2.6126632690429688,-0.7157530784606934,0.3451646566390991
1772912850100522200,5.053522216796875,2.4146571159362793,0.0029910283628851175,-1.5726827383041382
1772912850150457300,5.103457275390625,14.934802055358887,3.8611185550689697,-7.498208999633789
1772912850200358700,5.153358642578125,41.96053695678711,8.47477912902832,-29.485557556152344
1772912850250253300,5.20325341796875,38.275291442871094,8.211270332336426,-24.680768966674805
1772912850300160800,5.253160888671875,9.361021041870117,5.767300605773926,-4.960022449493408
1772912850350132200,5.30313232421875,5.047360420227051,3.424727439880371,-3.4830524921417236
1772912850399976700,5.352976806640625,-1.7446668148040771,-1.4569299221038818,3.5156545639038086
1772912850449903000,5.402903076171875,-4.800600528717041,-1.709372639656067,5.484050273895264
1772912850499770600,5.4527705078125,-7.088438034057617,-1.1285150051116943,3.6972100734710693
1772912850549679600,5.5026796875,-3.569493293762207,-1.4679967164993286,1.5553346872329712
1772912850599582500,5.55258251953125,-1.815853238105774,-2.6539394855499268,2.4089741706848145
1772912850649693700,5.602693603515625,-4.173381805419922,-3.077768087387085,2.3539392948150635
1772912850699401200,5.652401123046875,4.0818562507629395,-1.6354942321777344,-0.7519445419311523
1772912850749304600,5.7023046875,19.315162658691406,4.076472282409668,-9.609874725341797
1772912850799206400,5.752206298828125,49.04030227661133,5.766702651977539,-29.797821044921875
1772912850849127700,5.802127685546875,38.14458465576172,5.000699996948242,-22.354646682739258
1772912850899051500,5.852051513671875,11.544471740722656,3.6762728691101074,-5.306981563568115
1772912850949154800,5.90215478515625,3.918546199798584,0.004486542660742998,-0.0077766734175384045
1772912850998904000,5.951904052734375,-1.5903297662734985,-4.491926193237305,6.02602481842041
1772912851048822000,6.001822021484375,-7.28046178817749,-3.3005998134613037,5.222634315490723
1772912851098719200,6.05171923828125,-9.999306678771973,-1.8337994813919067,3.7546377182006836
1772912851148607700,6.101607666015625,-0.91136634349823,-2.318944215774536,2.353041887283325
1772912851198514200,6.15151416015625,-0.01704886183142662,-1.1270195245742798,0.17617157101631165
1772912851248434700,6.2014345703125,0.9846464991569519,-0.31316065788269043,-1.6348960399627686
1772912851298325200,6.2513251953125,4.013959884643555,0.8126623630523682,-3.415156126022339
1772912851348231700,6.301231689453125,14.81516170501709,3.4085757732391357,-7.948657512664795
1772912851398143200,6.351143310546875,38.68386459350586,5.082056045532227,-19.709980010986328
1772912851448034000,6.401033935546875,40.17070770263672,4.843072891235352,-22.809581756591797
1772912851497933000,6.45093310546875,18.041584014892578,2.8716862201690674,-9.440881729125977
1772912851548036900,6.501036865234375,7.374380111694336,1.1530413627624512,-1.7240287065505981
1772912851597758700,6.5507587890625,-1.6896319389343262,-2.1430718898773193,1.363310694694519
1772912851647675100,6.600675048828125,-5.437988758087158,-2.063211441040039,2.946761131286621
1772912851697561300,6.650561279296875,-9.213563919067383,-2.030010938644409,4.240679740905762
1772912851747746600,6.70074658203125,-4.166502475738525,-2.6060829162597656,3.968496322631836
1772912851797665800,6.750665771484375,-2.2331018447875977,-2.079063892364502,2.8941190242767334
1772912851847536000,6.8005361328125,-2.0467605590820312,-1.6806588172912598,1.4464613199234009
1772912851897491000,6.850490966796875,2.8498518466949463,-1.1270195245742798,-0.9272187948226929
1772912851947250000,6.90025,9.743274688720703,1.3743774890899658,-6.945167541503906
1772912851997284600,6.95028466796875,40.523048400878906,1.2454642057418823,-20.89801597595215
1772912852047072300,7.000072265625,44.732025146484375,4.526622295379639,-28.71746063232422
1772912852097061000,7.05006103515625,14.142778396606445,4.3280181884765625,-7.977969646453857
1772912852146854400,7.0998544921875,10.01994514465332,3.0128629207611084,-4.638187408447266
1772912852196734500,7.149734375,0.36221352219581604,-1.3977075815200806,1.2008978128433228
1772912852246749000,7.1997490234375,-4.144069671630859,-2.0709879398345947,2.8911280632019043
1772912852296433400,7.249433349609375,-7.09800910949707,-1.6713865995407104,3.7387852668762207
1772912852346561300,7.299561279296875,-4.023531436920166,-2.020439624786377,2.9180471897125244
1772912852396725800,7.349725830078125,-3.045764207839966,-1.409970760345459,1.9331015348434448
1772912852446342000,7.399341796875,-1.3504493236541748,-1.0154540538787842,1.3899308443069458
1772912852496266200,7.449266357421875,2.2722842693328857,-0.07118647545576096,-1.5936198234558105
1772912852545969400,7.498969482421875,10.988141059875488,1.8681962490081787,-6.530013084411621
1772912852595840300,7.54884033203125,27.5991153717041,2.090130567550659,-15.719947814941406
1772912852645766400,7.598766357421875,39.530029296875,3.0167510509490967,-25.53470802307129
1772912852695581000,7.648580810546875,17.33570098876953,3.2039895057678223,-13.020544052124023
1772912852745470500,7.698470458984375,13.366606712341309,3.4061830043792725,-8.184948921203613
1772912852795369500,7.748369384765625,8.88664436340332,-0.07118647545576096,-2.965604543685913
1772912852845529600,7.798529541015625,-4.3426737785339355,-1.923829436302185,2.5573291778564453
1772912852895473400,7.848473388671875,-7.930412292480469,-0.1944168359041214,3.092424154281616
1772912852945120800,7.898120849609375,-2.9653055667877197,-0.19621145725250244,3.7109687328338623
1772912852995303200,7.94830322265625,-1.2735798358917236,1.3513466119766235,0.9218349456787109
1772912853045189000,7.998189208984375,2.211566209793091,1.7766708135604858,0.11306086927652359
1772912853095106000,8.04810595703125,5.902495384216309,2.288435697555542,-1.1306086778640747
1772912853144891600,8.0978916015625,13.144073486328125,4.461118698120117,-2.3177478313446045
1772912853194866200,8.1478662109375,20.86391830444336,6.883851528167725,-3.0631120204925537
1772912853244647200,8.197647216796875,29.879474639892578,4.4054856300354,-8.622536659240723
1772912853344587500,8.29758740234375,10.398609161376953,3.31465744972229,-1.4694921970367432
1772912853394519800,8.347519775390625,5.67547607421875,1.7494524717330933,-1.2245270013809204
1772912853444310300,8.397310302734375,0.7501499056816101,2.0518453121185303,0.014356935396790504
1772912853494372900,8.447372802734375,-1.965404748916626,1.1225329637527466,2.0425732135772705
1772912853544148500,8.4971484375,1.3674981594085693,0.09541380405426025,0.755533754825592
1772912853593866500,8.546866455078124,2.0012969970703125,0.3167499005794525,1.0615159273147583
1772912853643800600,8.596800537109376,3.7357943058013916,1.0133603811264038,-0.2192423790693283
1772912853693715000,8.64671484375,4.555335998535156,1.6995022296905518,-0.13639089465141296
1772912853743593000,8.696593017578126,9.082855224609375,5.839683532714844,0.32662028074264526
1772912853793501200,8.746501220703125,16.945072174072266,12.800106048583984,-0.6652047038078308
1772912853843390500,8.796390380859375,22.662721633911133,10.56520938873291,-0.3122633695602417
1772912853893273900,8.84627392578125,13.274782180786133,9.772287368774414,-2.6009981632232666
1772912853943157000,8.896156982421875,3.8051862716674805,5.921039581298828,0.09990034252405167
1772912853993051600,8.9460517578125,4.562215328216553,2.3799612522125244,0.401096910238266
1772912854043097900,8.996097900390625,6.374180316925049,1.2454642057418823,-0.9729815125465393
1772912854092845000,9.045844970703126,5.833402633666992,1.241276741027832,0.44805604219436646
1772912854142778000,9.095778076171875,2.280359983444214,1.572981834411621,-0.4411766827106476
1772912854192672800,9.1456728515625,0.481854647397995,0.9502496719360352,-0.09242277592420578
1772912854242575000,9.1955751953125,2.521735906600952,0.7423732280731201,0.18484555184841156
1772912854292491500,9.245491455078126,7.196712970733643,3.2706894874572754,-1.3977075815200806
1772912854342348000,9.29534814453125,11.828021049499512,8.02492904663086,-1.3977075815200806
1772912854392248800,9.345248779296876,10.83679485321045,16.05374526977539,-3.4621152877807617
1772912854442164700,9.395164794921875,19.38186264038086,10.671689987182617,-0.605384111404419
1772912854492057000,9.44505712890625,10.401001930236816,7.884649753570557,0.9565308690071106
1772912854541990400,9.494990478515625,4.022634029388428,5.022833824157715,-0.9170492887496948
1772912854591899600,9.544899658203125,5.653043270111084,2.8812575340270996,-2.2989044189453125
1772912854641790700,9.594790771484375,3.117548704147339,2.2642083168029785,0.2066800594329834
1772912854691687400,9.6446875,3.5757744312286377,1.755135416984558,0.40319061279296875
1772912854741609000,9.69460888671875,2.6682963371276855,1.1407781839370728,0.14267204701900482
1772912854791568600,9.744568603515624,2.6835505962371826,0.618245542049408,-0.6143572330474854
1772912854841443600,9.794443603515624,4.262514591217041,0.8668000102043152,0.24017956852912903
1772912854891357700,9.844357666015625,8.701798439025879,3.3592238426208496,0.6373881101608276
1772912854941269500,9.89426953125,11.259726524353027,8.906983375549316,0.22073788940906525
1772912854991186200,9.944186279296876,26.120052337646484,7.289434909820557,-1.495813250541687
1772912855041074700,9.99407470703125,21.5087833404541,6.796812534332275,0.6167500615119934
1772912855090983200,10.043983154296875,6.55693244934082,8.863015174865723,1.7581263780593872
1772912855140898300,10.093898193359376,6.353841304779053,4.063910007476807,-0.5967101454734802
1772912855190809000,10.14380908203125,4.864907741546631,1.8394824266433716,-2.1640090942382812
1772912855240723200,10.19372314453125,7.001399040222168,0.7968099117279053,0.07477571070194244
1772912855290659300,10.243659423828126,3.2919256687164307,1.3193426132202148,-0.2835494875907898
1772912855340583200,10.293583251953125,0.3284149169921875,0.9984052777290344,0.12741780281066895
1772912855390489300,10.3434892578125,0.5739783048629761,0.42382872104644775,0.8150551915168762
1772912855440414000,10.3934140625,4.500001907348633,0.7800601720809937,0.7292127013206482
1772912855490326800,10.443326904296875,7.664510250091553,4.0181474685668945,0.981655478477478
1772912855540255700,10.493255859375,12.725330352783203,7.83200740814209,2.405683994293213
1772912855590192000,10.543192138671875,20.02583122253418,10.757831573486328,2.0063817501068115
1772912855640119600,10.59311962890625,21.4968204498291,7.892725467681885,4.535595417022705
1772912855690037500,10.64303759765625,6.8605217933654785,7.731509208679199,3.5581271648406982
1772912855739956000,10.6929560546875,5.2405805587768555,3.5204403400421143,1.4724832773208618
1772912855789860900,10.74286083984375,4.967798709869385,2.7224340438842773,-1.4925230741500854
1772912855839765000,10.792764892578125,6.940680980682373,1.7545372247695923,-0.7208378314971924
1772912855889674500,10.842674560546875,3.651447296142578,1.0205388069152832,0.21984058618545532
1772912855939607800,10.89260791015625,0.8156534433364868,1.1781660318374634,0.125922292470932
1772912855989509000,10.942509033203125,1.755135416984558,0.8524430394172668,0.1133599728345871
1772912856039439600,10.992439697265626,4.376472473144531,1.9749759435653687,0.2868396043777466
1772912856089354200,11.042354248046875,11.320444107055664,4.968098163604736,1.196710467338562
1772912856139247600,11.09224755859375,10.63250732421875,9.760323524475098,0.03349951654672623
1772912856189142300,11.142142333984374,12.157034873962402,11.584851264953613,1.389631748199463
1772912856239073800,11.19207373046875,15.399608612060547,8.742177963256836,0.049651071429252625
1772912856288981200,11.241981201171875,8.30279541015625,5.08444881439209,0.16809579730033875
