time,seconds_elapsed,z,y,x
1772913719729354200,0.434354248046875,0.3011150360107422,0.15111899375915527,-0.40770667791366577
1772913719829354200,0.534354248046875,0.016121864318847656,0.05772089958190918,-0.4775657653808594
1772913719879354400,0.584354248046875,-0.13245487213134766,-0.1506185531616211,0.001105189323425293
1772913719929354200,0.634354248046875,-1.0935707092285156,0.05764937400817871,0.2455507516860962
1772913719979354400,0.684354248046875,0.1560220718383789,-0.011793851852416992,0.17637240886688232
1772913720029354200,0.734354248046875,-0.3756256103515625,-0.06933927536010742,0.24366670846939087
1772913720079354400,0.784354248046875,0.7954931259155273,0.014534235000610352,-0.057963430881500244
1772913720129354200,0.834354248046875,0.8111376762390137,-0.13881635665893555,-0.06289315223693848
1772913720179354400,0.884354248046875,-0.038706302642822266,-0.21802973747253418,0.2246285080909729
1772913720229354200,0.934354248046875,0.8139228820800781,-0.09618711471557617,0.045157790184020996
1772913720279354400,0.984354248046875,-2.6691336631774902,1.013258457183838,0.4885071814060211
1772913720329354200,1.034354248046875,1.3124771118164062,0.7700700759887695,-0.8145403265953064
1772913720379354400,1.084354248046875,1.2498183250427246,-0.17564523220062256,-0.3915061950683594
1772913720429354200,1.134354248046875,-0.8432869911193848,-1.1415767669677734,1.3861809968948364
1772913720479354400,1.184354248046875,-1.5366039276123047,-1.08058500289917,1.8694736957550049
1772913720529354200,1.234354248046875,-0.10051345825195312,0.26268768310546875,-0.11043858528137207
1772913720579354400,1.284354248046875,1.8212976455688477,0.6917905807495117,-1.629710078239441
1772913720629354200,1.334354248046875,0.17187166213989258,0.040683746337890625,0.04848450422286987
1772913720679354400,1.384354248046875,0.8765048980712891,0.033509016036987305,-0.313205361366272
1772913720729354200,1.434354248046875,1.20548677444458,-0.040715932846069336,-1.1233434677124023
1772913720779354400,1.484354248046875,-1.314049243927002,-0.9152750968933105,0.5551889538764954
1772913720829354200,1.534354248046875,-2.5419740676879883,-0.44176387786865234,1.118815302848816
1772913720879354400,1.584354248046875,1.4666595458984375,0.8973250389099121,-0.9312371611595154
1772913720929354200,1.634354248046875,1.4729337692260742,0.6345100402832031,-1.0878186225891113
1772913720979354400,1.684354248046875,0.036314964294433594,-0.18191194534301758,0.228654146194458
1772913721029354200,1.734354248046875,0.8436236381530762,-0.1747293472290039,0.2656819820404053
1772913721079354400,1.784354248046875,2.2370190620422363,0.19158315658569336,-0.35569512844085693
1772913721129354200,1.834354248046875,3.8428587913513184,0.17452025413513184,-0.9172173738479614
1772913721179354400,1.884354248046875,3.2200069427490234,0.4493851661682129,-1.5816900730133057
1772913721229354200,1.934354248046875,1.8372654914855957,0.6540274620056152,-2.157240390777588
1772913721279354400,1.984354248046875,1.5296721458435059,0.3173794746398926,-2.238643169403076
1772913721329354200,2.034354248046875,0.8090910911560059,0.0200347900390625,-2.050089120864868
1772913721379354400,2.084354248046875,-0.30655574798583984,0.10452437400817871,-1.5628414154052734
1772913721429354200,2.134354248046875,-0.2038412094116211,0.3808019161224365,-1.2876371145248413
1772913721479354400,2.184354248046875,1.3076915740966797,0.6071209907531738,-0.7589364051818848
1772913721529354200,2.234354248046875,-0.5788612365722656,0.8295817375183105,-0.19177603721618652
1772913721579354400,2.284354248046875,0.931239128112793,-0.15105581283569336,-0.3141046166419983
1772913721629354200,2.334354248046875,-0.8332643508911133,-0.5790557861328125,-0.44737520813941956
1772913721679354400,2.384354248046875,-2.801297187805176,-0.7461757659912109,-0.13878005743026733
1772913721729354200,2.434354248046875,-2.0261144638061523,-1.2958965301513672,-0.1795152723789215
1772913721779354400,2.484354248046875,-2.411534309387207,-1.6811456680297852,1.1492213010787964
1772913721829354200,2.534354248046875,-3.036126136779785,-1.0773777961730957,1.997414469718933
1772913721879354400,2.584354248046875,-0.32035350799560547,-0.4189727306365967,0.5695192217826843
1772913721929354200,2.634354248046875,2.65871524810791,-0.905548095703125,0.30201256275177
1772913721979354400,2.684354248046875,-0.2569408416748047,-0.90169358253479,0.9724140167236328
1772913722029354200,2.734354248046875,-2.7352256774902344,-0.7967932224273682,1.8471735715866089
1772913722079354400,2.784354248046875,-1.5887079238891602,-0.3372220993041992,1.284877896308899
1772913722129354200,2.834354248046875,1.402862548828125,-0.3161790370941162,0.514171838760376
1772913722179354400,2.884354248046875,2.099179267883301,0.036319732666015625,-0.45467138290405273
1772913722229354200,2.934354248046875,1.9065523147583008,-0.14725422859191895,-0.8266748785972595
1772913722279354400,2.984354248046875,-0.2512845993041992,0.4281144142150879,-1.0991145372390747
1772913722329354200,3.034354248046875,0.12630844116210938,0.3359181880950928,-1.6464958190917969
1772913722379354400,3.084354248046875,-0.9729013442993164,-0.08437848091125488,-1.191835880279541
1772913722429354200,3.134354248046875,-1.4455456733703613,0.06669330596923828,-0.957204282283783
1772913722479354400,3.184354248046875,-3.475379467010498,0.678394079208374,-0.3078491687774658
1772913722529354200,3.234354248046875,1.1264772415161133,0.6388084888458252,-1.8417787551879883
1772913722579354400,3.284354248046875,0.9062108993530273,0.6841938495635986,-0.3170127868652344
1772913722629354200,3.334354248046875,-0.18825721740722656,0.6481056213378906,0.3546820878982544
1772913722679354400,3.384354248046875,4.289266586303711,-0.5490889549255371,-1.0840179920196533
1772913722729354200,3.434354248046875,1.037862777709961,-1.2490794658660889,-0.5858369469642639
1772913722779354400,3.484354248046875,-1.5402140617370605,-0.9965848922729492,-1.1463574171066284
1772913722829354200,3.534354248046875,-2.6806039810180664,-1.002190113067627,-1.5022790431976318
1772913722879354400,3.584354248046875,-2.3075437545776367,-1.1413156986236572,-1.4193260669708252
1772913722929354200,3.634354248046875,-1.1043815612792969,-1.2586314678192139,-0.6984110474586487
1772913722979354400,3.684354248046875,-0.6190299987792969,-0.7423901557922363,-0.25332948565483093
1772913723029354200,3.734354248046875,-0.4550590515136719,0.47017741203308105,-0.7632941007614136
1772913723079354400,3.784354248046875,2.070821762084961,0.9247796535491943,-1.5643939971923828
1772913723129354200,3.834354248046875,3.0822668075561523,0.14783453941345215,-1.2477600574493408
1772913723179354400,3.884354248046875,-0.40277862548828125,-0.4033799171447754,-0.5972217321395874
1772913723229354200,3.934354248046875,-2.9229989051818848,-0.3713092803955078,-0.2301362305879593
1772913723279354400,3.984354248046875,-3.036198139190674,-1.0310823917388916,0.8310009241104126
1772913723329354200,4.034354248046875,-3.340933322906494,-0.40137791633605957,1.703664779663086
1772913723379354400,4.084354248046875,0.104949951171875,-0.5823791027069092,0.7367231845855713
1772913723429354200,4.134354248046875,5.559749603271484,-1.5852665901184082,-0.6135771870613098
1772913723479354400,4.184354248046875,-2.661083698272705,-0.7260556221008301,0.25737234950065613
1772913723529354200,4.234354248046875,-4.375330924987793,0.10952019691467285,-0.09963172674179077
1772913723579354400,4.284354248046875,-3.22300386428833,-0.04966902732849121,0.13071173429489136
1772913723629354200,4.334354248046875,-1.0785183906555176,0.08430743217468262,0.6471824645996094
1772913723679354400,4.384354248046875,0.1746063232421875,1.1827242374420166,0.5666735172271729
1772913723729354200,4.434354248046875,1.8431892395019531,1.1025242805480957,0.314151406288147
1772913723779354400,4.484354248046875,2.6630430221557617,0.546489953994751,0.22563129663467407
1772913723829354200,4.534354248046875,-0.47716665267944336,0.28138017654418945,1.34010910987854
1772913723879354400,4.584354248046875,-0.6024770736694336,0.2926769256591797,1.4821629524230957
1772913723929354200,4.634354248046875,0.05414009094238281,0.4010481834411621,0.9295100569725037
1772913723979354400,4.684354248046875,0.5507850646972656,0.47206592559814453,0.2273768186569214
1772913724029354200,4.734354248046875,0.6248388290405273,0.25238966941833496,-0.04573643207550049
1772913724079354400,4.784354248046875,0.801182746887207,-0.18838977813720703,0.039292097091674805
1772913724129354200,4.834354248046875,0.5385112762451172,-0.3751375675201416,0.2707458734512329
1772913724179354400,4.884354248046875,0.30979442596435547,-0.2515225410461426,-0.8525293469429016
1772913724229354200,4.934354248046875,0.6411857604980469,-0.9972860813140869,-1.8491301536560059
1772913724279354400,4.984354248046875,-2.833195686340332,-0.6413331031799316,-1.9304118156433105
1772913724329354200,5.034354248046875,-4.466436862945557,-0.25347280502319336,-1.89689302444458
1772913724379354400,5.084354248046875,-4.122750759124756,-0.1912679672241211,-1.6404740810394287
1772913724429354200,5.134354248046875,-2.7315454483032227,-0.13016104698181152,-2.3195273876190186
1772913724479354400,5.184354248046875,-1.3275389671325684,0.03554844856262207,-2.2942099571228027
1772913724529354200,5.234354248046875,-0.568577766418457,0.309950590133667,-1.7678909301757812
1772913724579354400,5.284354248046875,-1.3531112670898438,0.4755887985229492,-1.2155578136444092
1772913724629354200,5.334354248046875,0.8163337707519531,-0.2308194637298584,-0.8709286451339722
1772913724679354400,5.384354248046875,1.0273256301879883,-0.6772615909576416,0.3372422456741333
1772913724729354200,5.434354248046875,-0.4527549743652344,-0.5031077861785889,0.7968212366104126
1772913724779354400,5.484354248046875,0.3030996322631836,-0.8374783992767334,0.17273789644241333
1772913724829354200,5.534354248046875,-0.3503398895263672,-0.9050674438476562,0.0008285343647003174
1772913724879354400,5.584354248046875,-0.3947172164916992,-0.9672658443450928,0.5365502834320068
1772913724929354200,5.634354248046875,-0.9309945106506348,-1.051307201385498,1.3589487075805664
1772913724979354400,5.684354248046875,0.1495809555053711,-0.9148378372192383,1.8776181936264038
1772913725029354200,5.734354248046875,2.130620002746582,-1.1796483993530273,0.7974804043769836
1772913725079354400,5.784354248046875,4.852211952209473,-1.4919767379760742,-0.19400620460510254
1772913725129354200,5.834354248046875,1.1412334442138672,-1.2741758823394775,0.3556056022644043
1772913725179354400,5.884354248046875,0.11976909637451172,-0.8907849788665771,-0.5671767592430115
1772913725229354200,5.934354248046875,-0.7707204818725586,-1.048158884048462,-0.5937374234199524
1772913725279354400,5.984354248046875,-1.222102165222168,-1.432981252670288,-0.5074190497398376
1772913725329354200,6.034354248046875,-2.051766872406006,-1.536163091659546,-0.27686232328414917
1772913725379354400,6.084354248046875,-3.667849540710449,-1.029646873474121,0.25156259536743164
1772913725429354200,6.134354248046875,-3.0642476081848145,-0.20613670349121094,-0.13150930404663086
1772913725479354400,6.184354248046875,-1.4304351806640625,0.4182286262512207,-0.2807452082633972
1772913725529354200,6.234354248046875,0.3316965103149414,0.9168093204498291,-0.8811508417129517
1772913725579354400,6.284354248046875,2.933171272277832,-0.13605642318725586,-1.870954990386963
1772913725629354200,6.334354248046875,-1.2858266830444336,-0.4026803970336914,-0.965435802936554
1772913725679354400,6.384354248046875,-2.9384498596191406,-0.1205143928527832,-0.2757984399795532
1772913725729354200,6.434354248046875,-2.543666362762451,0.5712590217590332,-0.6919460296630859
1772913725779354400,6.484354248046875,-0.6253271102905273,0.9295468330383301,-1.3632127046585083
1772913725829354200,6.534354248046875,2.4600439071655273,0.8397161960601807,-1.4165921211242676
1772913725879354400,6.584354248046875,1.553680419921875,0.2619895935058594,-1.1961559057235718
1772913725929354200,6.634354248046875,1.9158382415771484,-0.18925142288208008,-1.0008740425109863
1772913725979354400,6.684354248046875,-1.045337200164795,0.3495786190032959,0.14480799436569214
1772913726029354200,6.734354248046875,2.348602294921875,0.31978845596313477,-1.9825022220611572
1772913726079354400,6.784354248046875,0.3759431838989258,0.21817255020141602,-1.8017699718475342
1772913726129354200,6.834354248046875,-2.587583541870117,-0.3154792785644531,-0.3969895839691162
1772913726179354400,6.884354248046875,-2.8881478309631348,-0.14190888404846191,0.2486553192138672
1772913726229354200,6.934354248046875,-2.59512996673584,-0.03913378715515137,1.1048219203948975
1772913726279354400,6.984354248046875,0.8780221939086914,-0.29326295852661133,0.5159808993339539
1772913726329354200,7.034354248046875,1.1441106796264648,-0.5895702838897705,0.34578099846839905
1772913726379354400,7.084354248046875,-3.321072578430176,-0.27114176750183105,0.8309603333473206
1772913726429354200,7.134354248046875,-4.50555419921875,-0.0491182804107666,0.5227435827255249
1772913726479354400,7.184354248046875,-6.587224006652832,0.2944371700286865,0.46593818068504333
1772913726529354200,7.234354248046875,-4.199646949768066,-0.03178668022155762,0.7231429815292358
1772913726579354400,7.284354248046875,2.672440528869629,-0.7521212100982666,0.9888767004013062
1772913726629354200,7.334354248046875,5.0333051681518555,0.11541485786437988,1.1299989223480225
1772913726679354400,7.384354248046875,4.964221000671387,0.2570915222167969,0.09034949541091919
1772913726729354200,7.434354248046875,3.165058135986328,-0.29135608673095703,-0.3610661029815674
1772913726779354400,7.484354248046875,-1.6535706520080566,0.4868485927581787,-0.4634920358657837
1772913726829354200,7.534354248046875,-2.2739739418029785,0.659259557723999,-0.7236170768737793
1772913726879354400,7.584354248046875,-0.5223608016967773,-0.4890267848968506,-0.7202410101890564
1772913726929354200,7.634354248046875,0.10782814025878906,-1.1406599283218384,0.0811464786529541
1772913726979354400,7.684354248046875,-3.3384761810302734,0.26309657096862793,1.3723949193954468
1772913727029354200,7.734354248046875,-2.7853598594665527,2.7560813426971436,-0.25326693058013916
1772913727079354400,7.784354248046875,4.09904670715332,0.3054232597351074,-2.446338176727295
1772913727129354200,7.834354248046875,-2.1786723136901855,-0.2309129238128662,-1.1171784400939941
1772913727179354400,7.884354248046875,-6.6366729736328125,-0.0825049877166748,-0.05182933807373047
1772913727229354200,7.934354248046875,-5.608458995819092,0.13746976852416992,0.7811611890792847
1772913727279354400,7.984354248046875,-0.9043140411376953,0.04639029502868652,-0.39355671405792236
1772913727329354200,8.034354248046874,2.5777435302734375,0.20305538177490234,-1.476679801940918
1772913727379354400,8.084354248046875,-0.1241292953491211,0.7448081970214844,-1.2985469102859497
1772913727429354200,8.134354248046876,2.3403491973876953,-0.3000311851501465,-1.5365562438964844
1772913727479354400,8.184354248046875,-0.4864826202392578,-0.6718416213989258,-0.3838740885257721
1772913727529354200,8.234354248046875,-0.6684002876281738,-0.6279809474945068,-0.798011064529419
1772913727579354400,8.284354248046874,-0.5552883148193359,-0.8331170082092285,-1.4190523624420166
1772913727629354200,8.334354248046875,-1.1871161460876465,-0.9496676921844482,-1.2487760782241821
1772913727679354400,8.384354248046876,-0.3028831481933594,-0.36069440841674805,-0.9605976343154907
1772913727729354200,8.434354248046875,0.8581037521362305,-0.10508346557617188,-1.3814871311187744
1772913727779354400,8.484354248046875,2.3589115142822266,-0.7224371433258057,-1.205147385597229
1772913727829354200,8.534354248046874,-2.0175418853759766,-0.4775576591491699,0.017877906560897827
1772913727879354400,8.584354248046875,-3.4418907165527344,0.320950984954834,0.32880744338035583
1772913727929354200,8.634354248046876,-1.782710075378418,0.38918066024780273,-0.037688955664634705
1772913727979354400,8.684354248046875,-0.9350781440734863,0.029604434967041016,-0.2979174256324768
1772913728029354200,8.734354248046875,1.7761411666870117,-0.10637259483337402,-0.3811735212802887
1772913728079354400,8.784354248046874,0.6919670104980469,0.10801959037780762,0.4286559820175171
1772913728129354200,8.834354248046875,0.33082008361816406,0.13599634170532227,1.0315791368484497
1772913728179354400,8.884354248046876,2.1182985305786133,0.2842538356781006,0.44497573375701904
1772913728229354200,8.934354248046875,0.5057001113891602,0.7811398506164551,0.3059212863445282
1772913728279354400,8.984354248046875,0.866948127746582,0.277876615524292,-0.2728050947189331
1772913728329354200,9.034354248046874,1.6585893630981445,-1.1698381900787354,-0.023112580180168152
1772913728379354400,9.084354248046875,-1.512223243713379,-1.0239171981811523,-0.21065446734428406
1772913728429354200,9.134354248046876,-1.4949908256530762,-1.0485076904296875,0.5851395726203918
1772913728479354400,9.184354248046875,-1.8653907775878906,-0.011729717254638672,0.9820797443389893
1772913728529354200,9.234354248046875,-1.3662261962890625,0.6107621192932129,0.18778003752231598
1772913728579354400,9.284354248046874,4.054166793823242,-1.167792797088623,-1.3177199363708496
1772913728629354200,9.334354248046875,0.35512828826904297,-2.3243446350097656,0.06787320971488953
1772913728679354400,9.384354248046876,-5.654216289520264,-0.9287652969360352,0.7665976285934448
1772913728729354200,9.434354248046875,-5.558071613311768,0.5176944732666016,0.7090743184089661
1772913728779354400,9.484354248046875,-1.193558692932129,0.35832977294921875,0.307412326335907
1772913728829354200,9.534354248046874,0.4719085693359375,-0.6092374324798584,1.0557392835617065
1772913728879354400,9.584354248046875,0.9750480651855469,-1.0182433128356934,1.0355244874954224
1772913728929354200,9.634354248046876,-0.16710472106933594,-0.5481774806976318,1.0165886878967285
1772913728979354400,9.684354248046875,-0.7793607711791992,-0.2577018737792969,1.560126781463623
1772913729079354400,9.784354248046874,0.5630292892456055,0.7585182189941406,0.5562552809715271
1772913729129354200,9.834354248046875,2.648946762084961,0.35358381271362305,0.36793553829193115
1772913729179354400,9.884354248046876,1.6132211685180664,0.7532885074615479,0.1260892152786255
1772913729229354200,9.934354248046875,1.3457517623901367,0.7300522327423096,-1.4934680461883545
1772913729279354400,9.984354248046875,1.724273681640625,-0.16457605361938477,-2.5858888626098633
1772913729329354200,10.034354248046874,-2.8590950965881348,-0.5955042839050293,-1.1265898942947388
1772913729379354400,10.084354248046875,-3.9718570709228516,-0.6010422706604004,-0.6705709099769592
1772913729429354200,10.134354248046876,-2.264265537261963,0.058504343032836914,-2.212435722351074
1772913729479354400,10.184354248046875,-1.6444168090820312,-0.0542902946472168,-2.667301654815674
1772913729529354200,10.234354248046875,-0.8633632659912109,-0.4832167625427246,-1.5320817232131958
1772913729579354400,10.284354248046874,-1.7109103202819824,0.8077969551086426,-0.580564558506012
1772913729629354200,10.334354248046875,-1.0648975372314453,1.0328516960144043,-0.9263853430747986
1772913729679354400,10.384354248046876,5.0163116455078125,0.2721383571624756,-1.3346065282821655
1772913729729354200,10.434354248046875,-1.0051155090332031,0.7419729232788086,-0.09929239749908447
1772913729779354400,10.484354248046875,-2.9134058952331543,0.8881337642669678,0.4633108377456665
1772913729829354200,10.534354248046874,-1.941713809967041,0.3700065612792969,0.07029855251312256
1772913729879354400,10.584354248046875,-1.3708205223083496,-0.0014660358428955078,0.11051265895366669
1772913729929354200,10.634354248046876,-0.5225629806518555,-0.1793537139892578,0.6881957054138184
1772913729979354400,10.684354248046875,-0.8786311149597168,0.5141193866729736,0.18266597390174866
1772913730029354200,10.734354248046875,0.10854625701904297,0.4399559497833252,-0.2559066116809845
1772913730079354400,10.784354248046874,0.11673545837402344,0.3549156188964844,-0.21835418045520782
1772913730129354200,10.834354248046875,-1.1976804733276367,0.10858416557312012,0.6792384386062622
1772913730179354400,10.884354248046876,-1.0651578903198242,0.23975229263305664,0.9306674003601074
1772913730229354200,10.934354248046875,-0.31154918670654297,0.40175580978393555,0.5903584957122803
1772913730279354400,10.984354248046875,0.21782875061035156,1.1253981590270996,0.42395734786987305
1772913730329354200,11.034354248046874,-0.9068241119384766,1.1778831481933594,0.5602137446403503
1772913730379354400,11.084354248046875,4.846540451049805,-0.9181480407714844,-0.651506245136261
1772913730429354200,11.134354248046876,-0.23078632354736328,-1.1554276943206787,-0.3816284239292145
1772913730479354400,11.184354248046875,-2.571023464202881,-0.8631010055541992,-0.47301605343818665
1772913730529354200,11.234354248046875,-1.1039848327636719,-0.9820222854614258,-0.5614566206932068
1772913730579354400,11.284354248046874,-2.345149040222168,-0.4944300651550293,0.3977741599082947
1772913730629354200,11.334354248046875,-3.035125732421875,0.511500358581543,-0.5614249110221863
1772913730679354400,11.384354248046876,1.4855585098266602,-0.5347652435302734,-1.2868674993515015
