time,seconds_elapsed,z,y,x
1772913719600941000,0.305941162109375,8.214261054992676,3.2745778560638428,0.21385852992534637
1772913719650844000,0.355843994140625,8.402097702026367,3.282653570175171,0.3332005441188812
1772913719700418000,0.40541796875,7.969594955444336,3.170490026473999,0.8781659007072449
1772913719750507000,0.455507080078125,7.726424217224121,3.1953155994415283,1.04715895652771
1772913719800204300,0.505204345703125,8.018946647644043,3.163909673690796,1.485643744468689
1772913719850315500,0.5553154296875,8.175975799560547,3.148057222366333,1.9061822891235352
1772913719899975400,0.604975341796875,9.35204792022705,3.275475025177002,1.6345969438552856
1772913719950071800,0.65507177734375,10.071091651916504,3.268296718597412,1.231107234954834
1772913719999756500,0.704756591796875,10.05404281616211,3.3664023876190186,0.8805587291717529
1772913720049627600,0.754627685546875,9.959226608276367,3.280559778213501,0.7178468108177185
1772913720099496000,0.804495849609375,8.042277336120605,3.4112677574157715,0.9299107193946838
1772913720149564700,0.854564697265625,7.641180038452148,3.6939198970794678,0.709172785282135
1772913720199238000,0.90423779296875,7.574480056762695,4.120141506195068,0.4983053207397461
1772913720249316400,0.95431640625,9.030811309814453,3.119642496109009,0.04546362906694412
1772913720298991400,1.003991455078125,10.415657997131348,1.529910922050476,0.47108694911003113
1772913720349042200,1.054042236328125,7.398906707763672,1.2230315208435059,1.7117655277252197
1772913720398707500,1.10370751953125,7.530511856079102,2.4661028385162354,0.5635097622871399
1772913720448804400,1.153804443359375,9.023633003234863,4.22722053527832,-2.080559253692627
1772913720498525200,1.203525146484375,10.765907287597656,4.678267478942871,-3.2656047344207764
1772913720548609500,1.253609619140625,8.834002494812012,4.086941242218018,-1.88285231590271
1772913720598286800,1.303286865234375,7.940282821655273,3.544966697692871,-0.7854440212249756
1772913720648356600,1.353356689453125,7.144071102142334,3.575176239013672,-0.8581260442733765
1772913720698357800,1.403357666015625,5.870790481567383,3.514458179473877,0.09242277592420578
1772913720748232400,1.453232421875,5.7287163734436035,4.028017997741699,0.8264211416244507
1772913720798135000,1.503135009765625,8.333902359008789,5.255835056304932,-0.5659025311470032
1772913720848025900,1.55302587890625,9.493823051452637,4.709972381591797,-0.6876373887062073
1772913720897915400,1.602915283203125,6.893722057342529,3.789632797241211,0.7259225845336914
1772913720947747300,1.652747314453125,6.718447685241699,3.1172497272491455,1.6585252285003662
1772913720997674200,1.70267431640625,7.739883899688721,3.5377883911132812,1.2337992191314697
1772913721097377500,1.80237744140625,10.472487449645996,3.720241069793701,0.08763712644577026
1772913721147250000,1.85225,9.480362892150879,4.0334014892578125,-0.550349235534668
1772913721197383700,1.9023837890625,8.974281311035156,4.07467794418335,-0.9840483069419861
1772913721247084500,1.95208447265625,8.953642845153809,3.704986810684204,-0.8913264274597168
1772913721296861000,2.00186083984375,8.463712692260742,3.6212379932403564,-0.5991029739379883
1772913721346619400,2.051619384765625,7.9728851318359375,3.8979079723358154,-0.18723836541175842
1772913721396507600,2.101507568359375,9.234201431274414,4.141078472137451,0.04785645380616188
1772913721446434600,2.1514345703125,9.481260299682617,4.540380954742432,0.521934449672699
1772913721496255500,2.20125537109375,8.871390342712402,4.297808647155762,0.7417750358581543
1772913721546138600,2.251138671875,9.81356430053711,3.553042411804199,0.11904292553663254
1772913721596033800,2.30103369140625,6.992425918579102,3.3074791431427,0.1905284970998764
1772913721646176800,2.3511767578125,6.565606117248535,3.0254251956939697,0.09092725813388824
1772913721696080600,2.40108056640625,7.012764930725098,2.434697151184082,0.46331027150154114
1772913721745916700,2.450916748046875,6.140880107879639,2.4598217010498047,1.88285231590271
1772913721795884800,2.500884765625,6.650850772857666,3.3744781017303467,1.6528422832489014
1772913721845782000,2.550781982421875,10.38784122467041,3.2889347076416016,0.8847461938858032
1772913721895357700,2.600357666015625,10.520941734313965,3.059522867202759,1.0408778190612793
1772913721945537500,2.65053759765625,7.364809036254883,2.993720293045044,2.1143579483032227
1772913721995459800,2.7004599609375,5.935396671295166,3.2874391078948975,2.562713146209717
1772913722045358000,2.750358154296875,8.082955360412598,3.304488182067871,2.103889226913452
1772913722095274200,2.800274169921875,10.136296272277832,3.4603207111358643,1.2840484380722046
1772913722145158700,2.85015869140625,10.59212875366211,3.272484064102173,0.8198408484458923
1772913722195058000,2.900057861328125,9.147461891174316,3.3966116905212402,0.6373881101608276
1772913722244836400,2.94983642578125,8.165507316589355,3.7399818897247314,0.22642084956169128
1772913722294826000,2.999825927734375,8.452346801757812,3.3792638778686523,0.1417747437953949
1772913722344550700,3.049550537109375,7.361518859863281,3.231207847595215,0.5799604058265686
1772913722394298400,3.09929833984375,6.763313293457031,3.7124643325805664,0.994516909122467
1772913722444194800,3.14919482421875,6.209972858428955,4.231706619262695,0.8368897438049316
1772913722494074600,3.19907470703125,11.256436347961426,3.942474365234375,0.01944168470799923
1772913722543938600,3.2489384765625,8.359026908874512,4.310669898986816,1.8601205348968506
1772913722643677200,3.34867724609375,12.139387130737305,2.818445920944214,0.2063809484243393
1772913722693551400,3.39855126953125,8.616554260253906,2.480160713195801,0.36729827523231506
1772913722743437000,3.44843701171875,6.76002311706543,2.7798616886138916,-0.42711883783340454
1772913722793313500,3.4983134765625,6.269195556640625,2.7065815925598145,-0.6954140663146973
1772913722843201500,3.548201416015625,7.089933395385742,2.5848467350006104,-0.4172484576702118
1772913722893076500,3.598076416015625,8.48016357421875,2.6398816108703613,0.24077777564525604
1772913722942979300,3.647979248046875,8.360821723937988,3.4531421661376953,0.4217349886894226
1772913722992862700,3.69786279296875,9.668498992919922,4.4946184158325195,-0.42382872104644775
1772913723042751700,3.747751708984375,11.987144470214844,4.25084924697876,-0.7666005492210388
1772913723092658700,3.79765869140625,11.020742416381836,3.476173162460327,-0.4052843451499939
1772913723142552300,3.84755224609375,7.375875949859619,3.0891339778900146,0.06281159073114395
1772913723192451300,3.897451416015625,6.072983741760254,2.7320053577423096,0.5458626747131348
1772913723242354200,3.947354248046875,5.993422508239746,2.5689942836761475,1.4593226909637451
1772913723292243500,3.997243408203125,5.887540340423584,3.053839921951294,1.711167335510254
1772913723342140000,4.047139892578125,12.966706275939941,2.393420934677124,-0.042771704494953156
1772913723392043800,4.097043701171875,10.94566822052002,2.1888344287872314,0.07477571070194244
1772913723441941800,4.146941650390625,5.446961879730225,3.186342477798462,0.38315072655677795
1772913723491823600,4.19682373046875,4.944169998168945,3.5656049251556396,0.3819543123245239
1772913723541730000,4.24672998046875,6.721139907836914,3.3729825019836426,0.8527421951293945
1772913723591614500,4.296614501953125,8.314759254455566,3.8865420818328857,1.280758261680603
1772913723641510700,4.3465107421875,9.45882797241211,4.634000301361084,1.048953652381897
1772913723691419400,4.39641943359375,11.145169258117676,4.168895244598389,0.8383852243423462
1772913723741304800,4.446304931640625,9.616455078125,3.8036906719207764,1.3573286533355713
1772913723791185700,4.496185546875,7.4500532150268555,3.6987056732177734,2.2360928058624268
1772913723890956800,4.595956787109375,8.540283203125,4.1745781898498535,1.6615161895751953
1772913723940822000,4.645822021484375,9.174381256103516,4.2846479415893555,1.2128620147705078
1772913723990704600,4.69570458984375,9.279664993286133,3.9984066486358643,1.323829174041748
1772913724040604700,4.745604736328125,9.775876998901367,3.730410575866699,1.4144573211669922
1772913724090508300,4.79550830078125,9.942477226257324,3.552743434906006,1.5948163270950317
1772913724140406800,4.84540673828125,9.126823425292969,3.7220356464385986,1.4584254026412964
1772913724190298600,4.895298583984375,9.54496955871582,3.486940860748291,0.24646073579788208
1772913724240191700,4.945191650390625,8.387741088867188,3.0005996227264404,-0.3451646566390991
1772913724290082800,4.995082763671875,5.3231329917907715,3.61017107963562,-0.3433700501918793
1772913724339989200,5.0449892578125,4.7126641273498535,3.82791805267334,-0.19262222945690155
1772913724389883400,5.09488330078125,5.4795637130737305,3.8159539699554443,-0.2102692872285843
1772913724439779800,5.14477978515625,7.070790767669678,3.8730826377868652,-0.8327022790908813
1772913724489656600,5.194656494140625,8.320143699645996,4.1368913650512695,-0.6068796515464783
1772913724539562200,5.244562255859375,8.305188179016113,4.325624942779541,-0.027816563844680786
1772913724589442800,5.29444287109375,8.424530029296875,4.1267218589782715,0.20488543808460236
1772913724639339800,5.34433984375,10.468299865722656,3.291327476501465,0.7501499056816101
1772913724689232000,5.39423193359375,8.972187995910645,3.2763724327087402,1.5897315740585327
1772913724739123700,5.444123779296875,8.444570541381836,3.1489546298980713,1.2613166570663452
1772913724789011700,5.49401171875,8.344071388244629,3.0230321884155273,0.5437689423561096
1772913724838905900,5.54390576171875,7.967800140380859,2.940778970718384,0.5204389095306396
1772913724888814600,5.593814697265625,7.4276204109191895,2.854039192199707,1.2655041217803955
1772913724938705700,5.64370556640625,7.966603755950928,2.93001127243042,2.0216360092163086
1772913724988611300,5.693611328125,9.150752067565918,2.893819808959961,2.1628124713897705
1772913725038508500,5.743508544921875,12.483953475952148,2.583052158355713,1.0112667083740234
1772913725088401200,5.793401123046875,12.078071594238281,2.410170555114746,1.0040881633758545
1772913725138297900,5.8432978515625,9.255139350891113,2.6763720512390137,1.1410772800445557
1772913725188180500,5.893180419921875,8.748159408569336,2.772084951400757,0.4417748749256134
1772913725238369300,5.943369384765625,7.983353614807129,2.3207387924194336,0.7082754969596863
1772913725287989000,5.992989013671875,7.808079242706299,1.9067806005477905,0.7755736112594604
1772913725338077000,6.043076904296875,6.630810737609863,1.8086748123168945,1.262213945388794
1772913725388102100,6.09310205078125,6.090631008148193,2.381755828857422,1.4536397457122803
1772913725437982700,6.142982666015625,7.252645492553711,3.101696252822876,0.9975079298019409
1772913725487889000,6.192888916015625,8.794520378112793,3.5742788314819336,0.8676972985267639
1772913725537716500,6.242716552734375,11.47956657409668,3.3308091163635254,-0.16061821579933167
1772913725587663400,6.292663330078125,11.238490104675293,2.4370899200439453,-0.39900317788124084
1772913725637397000,6.34239697265625,7.264310359954834,2.3599212169647217,0.605085015296936
1772913725687374600,6.39237451171875,6.57757043838501,2.812762975692749,0.6565307378768921
1772913725737250800,6.442250732421875,7.312166690826416,3.454338550567627,0.04007977992296219
1772913725787346700,6.4923466796875,9.576674461364746,3.6532418727874756,-0.4731806814670563
1772913725886859500,6.591859619140625,10.950453758239746,2.8929226398468018,-0.37447673082351685
1772913725936634000,6.641634033203125,8.995218276977539,3.0005996227264404,0.483051061630249
1772913725986507500,6.691507568359375,9.13131046295166,3.3179476261138916,0.16719847917556763
1772913726036440800,6.74144091796875,11.100603103637695,3.443570852279663,-1.6133606433868408
1772913726086575900,6.791575927734375,7.971090316772461,3.0541388988494873,-0.5512465238571167
1772913726136186600,6.8411865234375,6.431608200073242,2.9614171981811523,0.18424734473228455
1772913726186100700,6.891100830078125,6.569494724273682,3.060420274734497,0.9768698215484619
1772913726236019500,6.94101953125,7.9259257316589355,3.1534411907196045,1.1171491146087646
1772913726285939500,6.990939453125,11.434103012084961,2.7376883029937744,0.39840495586395264
1772913726335800800,7.04080078125,8.51456069946289,2.796013355255127,0.6640082597732544
1772913726385752800,7.0907529296875,5.736792087554932,3.061018466949463,0.7707880139350891
1772913726435918000,7.14091796875,4.16799783706665,3.28773832321167,0.5904290080070496
1772913726485536500,7.19053662109375,3.115455150604248,3.5132617950439453,0.8374879360198975
1772913726535614500,7.240614501953125,7.800601959228516,2.851048231124878,1.153340458869934
1772913726585622300,7.290622314453125,13.311870574951172,2.592623233795166,1.7063816785812378
1772913726635516200,7.34051611328125,13.481163024902344,3.5721850395202637,1.4015958309173584
1772913726685131800,7.3901318359375,13.412070274353027,2.9805595874786377,0.5865406394004822
1772913726735049000,7.440049072265625,9.360722541809082,3.10109806060791,0.42323049902915955
1772913726785278500,7.490278564453125,6.085845470428467,3.773780345916748,0.3332005441188812
1772913726834869500,7.539869384765625,7.0669026374816895,3.321237802505493,0.2024926096200943
1772913726884754200,7.589754150390625,8.972187995910645,2.224726915359497,0.4465605318546295
1772913726934822100,7.639822265625,8.32971477508545,2.370389938354492,1.724327802658081
1772913726984809500,7.6898095703125,5.604588985443115,4.678865432739258,1.9516459703445435
1772913727034397000,7.73939697265625,10.634900093078613,4.95912504196167,-0.5276173949241638
1772913727084297200,7.789297119140625,12.204591751098633,3.2144582271575928,-0.9529415965080261
1772913727134192600,7.839192626953125,5.694020748138428,2.996711254119873,0.28115665912628174
1772913727184086300,7.889086181640625,3.2309088706970215,3.3846476078033447,1.3594223260879517
1772913727234004200,7.939004150390625,6.0987067222595215,3.4627134799957275,1.1676974296569824
1772913727283899100,7.988899169921875,10.669297218322754,3.5024940967559814,-0.026919255033135414
1772913727333803000,8.038802978515625,10.971092224121094,4.110570430755615,-0.7028916478157043
1772913727383692800,8.08869287109375,9.697811126708984,3.8443686962127686,-0.6771687865257263
1772913727433574100,8.13857421875,10.297811508178711,3.084348440170288,-0.4286143481731415
1772913727483472600,8.18847265625,7.3537421226501465,2.9817562103271484,0.26440688967704773
1772913727533399600,8.238399658203125,8.10807991027832,2.8660032749176025,-0.5688936114311218
1772913727583302700,8.288302734375,7.469794273376465,2.648256540298462,-0.7674978375434875
1772913727633176600,8.338176513671876,7.616354465484619,2.913261651992798,-0.6427719593048096
1772913727683071500,8.388071533203124,8.775378227233887,3.3622148036956787,-0.6143572330474854
1772913727732987600,8.437987548828126,10.592726707458496,3.2659037113189697,-1.1362916231155396
1772913727782891800,8.487891845703125,9.716055870056152,2.861217737197876,-0.494716078042984
1772913727832771000,8.53777099609375,5.8923258781433105,3.33858585357666,0.4127618968486786
1772913727882654700,8.58765478515625,6.21984338760376,3.939483404159546,0.1698904037475586
1772913727932532700,8.63753271484375,7.380960464477539,3.623032569885254,-0.23988047242164612
1772913727982448400,8.687448486328124,9.071788787841797,3.3128628730773926,-0.6487540602684021
1772913728082274800,8.78727490234375,9.04397201538086,3.471686601638794,0.37537404894828796
1772913728132132400,8.83713232421875,9.556933403015137,3.4396824836730957,0.5763711333274841
1772913728182012700,8.8870126953125,10.258030891418457,3.8398821353912354,0.019142581149935722
1772913728231911200,8.9369111328125,8.54327392578125,4.153940200805664,-0.040378883481025696
1772913728281786000,8.9867861328125,10.49073314666748,3.054737091064453,-0.39990049600601196
1772913728331695400,9.0366953125,8.94257640838623,2.3808584213256836,-0.18574285507202148
1772913728381603600,9.086603515625,7.284350395202637,2.4335005283355713,0.1178465187549591
1772913728431504100,9.136504150390625,7.619644641876221,2.824428081512451,0.7226324677467346
1772913728481420300,9.186420166015624,7.497311592102051,3.892524242401123,0.8781659007072449
1772913728531307000,9.23630712890625,9.919445991516113,3.600001573562622,-0.5416752099990845
1772913728581196000,9.286196044921875,13.122538566589355,1.6307085752487183,-0.8383852243423462
1772913728631080200,9.336080078125,6.9481587409973145,1.6268203258514404,0.5186443328857422
1772913728680992300,9.3859921875,3.3281171321868896,3.22761869430542,0.9987043738365173
1772913728730898700,9.435898681640625,5.3246283531188965,4.048357009887695,0.5315057039260864
1772913728780816000,9.48581591796875,9.224630355834961,3.321835994720459,0.6846463680267334
1772913728830724000,9.53572412109375,9.731310844421387,2.383849620819092,1.3474582433700562
1772913728880605000,9.58560498046875,9.686145782470703,2.345564365386963,1.179362416267395
1772913728930490000,9.635489990234374,8.195716857910156,2.618046998977661,1.6223337650299072
1772913728980386300,9.68538623046875,8.23968505859375,3.074777126312256,1.7769699096679688
1772913729030282800,9.73528271484375,8.330612182617188,3.6690943241119385,1.4871392250061035
1772913729080178000,9.785177978515625,10.02293586730957,3.412464141845703,1.2768700122833252
1772913729130101000,9.83510107421875,10.846963882446289,3.544966697692871,1.2502498626708984
1772913729180001300,9.885001220703124,9.891630172729492,3.741776466369629,0.7698906660079956
1772913729229923000,9.934923095703125,10.30618667602539,3.370290756225586,-0.8850452899932861
1772913729279829000,9.9848291015625,9.121140480041504,2.680260419845581,-0.7435696125030518
1772913729329728500,10.034728515625,5.218746185302734,2.5480570793151855,0.5318048596382141
1772913729379638800,10.084638671875,5.970391750335693,2.8268208503723145,0.15463615953922272
1772913729429542700,10.134542724609375,7.519145965576172,3.3945181369781494,-1.2631112337112427
1772913729479417300,10.184417236328125,8.093124389648438,2.9204399585723877,-0.8676972985267639
1772913729529346300,10.23434619140625,8.352147102355957,3.3068809509277344,0.13250255584716797
1772913729579261400,10.284261474609375,7.470093250274658,4.359124660491943,0.5697908997535706
1772913729629149700,10.334149658203126,11.406286239624023,3.942474365234375,-0.12921242415905
1772913729679055400,10.384055419921875,12.282059669494629,3.7184464931488037,0.02153540402650833
1772913729728953300,10.433953369140625,6.867700099945068,4.197608947753906,0.8249256014823914
1772913729778848500,10.4838486328125,6.500999927520752,3.997509241104126,0.6975077986717224
1772913729828740900,10.533740966796875,7.105785846710205,3.7016966342926025,0.29820552468299866
1772913729878643000,10.583642822265626,7.713562965393066,3.4411780834198,0.4465605318546295
1772913729928561400,10.6335615234375,8.023134231567383,3.7603209018707275,0.7345965504646301
1772913729978447400,10.683447265625,8.231010437011719,4.368995189666748,0.12741780281066895
1772913730028347600,10.73334765625,9.135198593139648,4.253541469573975,-0.03349951654672623
1772913730078235100,10.783235107421875,8.446065902709961,4.109074592590332,0.5186443328857422
1772913730128343000,10.833343017578125,7.566404342651367,4.0788655281066895,1.2684950828552246
1772913730178011400,10.883011474609376,7.961519241333008,4.246063709259033,1.3052847385406494
1772913730228129300,10.93312939453125,8.883354187011719,4.561018943786621,0.8823533654212952
1772913730277778200,10.982778076171876,7.9887375831604,5.3694939613342285,1.0965110063552856
1772913730327884800,11.032884765625,9.889835357666016,4.4614176750183105,0.6553342938423157
1772913730377882000,11.082882080078125,12.084651947021484,3.075674295425415,-0.12921242415905
1772913730427714000,11.132714111328125,6.5267229080200195,3.122633457183838,0.4654040038585663
1772913730477673000,11.1826728515625,6.613462448120117,3.425325632095337,0.0891326442360878
1772913730527397600,11.232397705078125,7.05344295501709,3.468994617462158,0.6397809386253357
1772913730577393400,11.282393310546874,6.029314994812012,4.10997200012207,0.9412766098976135
1772913730627106300,11.332106201171875,7.313961505889893,4.675874710083008,-0.20368902385234833
