time,seconds_elapsed,z,y,x
1772896112166272800,0.064272705078125,-1.0590972900390625,-0.0642547607421875,0.0595550537109375
1772896112176240600,0.07424072265625,-0.986541748046875,-0.091064453125,0.0589141845703125
1772896112186209800,0.084209716796875,-0.9524688720703125,-0.127197265625,0.0530853271484375
1772896112196177700,0.094177734375,-0.986968994140625,-0.1162872314453125,0.0547027587890625
1772896112206145800,0.104145751953125,-1.0250701904296875,-0.057373046875,0.07867431640625
1772896112216114700,0.11411474609375,-1.087371826171875,-0.0158843994140625,0.075408935546875
1772896112226082600,0.12408251953125,-1.1124114990234375,-0.0012359619140625,0.0373382568359375
1772896112236050700,0.13405078125,-1.0369873046875,-0.0405426025390625,0.036773681640625
1772896112246019600,0.14401953125,-0.9102783203125,-0.096527099609375,0.0092315673828125
1772896112255987700,0.15398779296875,-0.78521728515625,-0.1959686279296875,0.0151824951171875
1772896112265955600,0.16395556640625,-0.7281494140625,-0.2099151611328125,-0.004486083984375
1772896112275923700,0.173923828125,-0.843505859375,-0.13128662109375,-0.023193359375
1772896112285892600,0.183892578125,-1.00335693359375,-0.116607666015625,0.019134521484375
1772896112295860700,0.19386083984375,-1.0692291259765625,-0.09552001953125,-0.020111083984375
1772896112305830000,0.203829833984375,-1.0760345458984375,-0.066192626953125,-0.060089111328125
1772896112315797500,0.213797607421875,-1.05206298828125,-0.0919036865234375,-0.0789947509765625
1772896112325765600,0.223765625,-1.04730224609375,-0.059112548828125,-0.1722564697265625
1772896112335734500,0.233734619140625,-1.0666351318359375,0.0114898681640625,-0.2221527099609375
1772896112345702700,0.24370263671875,-0.980560302734375,0.0596771240234375,-0.3323211669921875
1772896112355670800,0.2536708984375,-0.8953857421875,0.0127105712890625,-0.4026031494140625
1772896112365638700,0.263638671875,-0.7716217041015625,-0.1153106689453125,-0.51153564453125
1772896112375607800,0.27360791015625,-0.628387451171875,-0.2783050537109375,-0.570159912109375
1772896112385575700,0.28357568359375,-0.5305023193359375,-0.3834381103515625,-0.5155487060546875
1772896112395543600,0.29354345703125,-0.4461212158203125,-0.4321441650390625,-0.4390716552734375
1772896112405512400,0.303512451171875,-0.39678955078125,-0.4011688232421875,-0.335357666015625
1772896112415480600,0.31348046875,-0.5290679931640625,-0.3483123779296875,-0.1770782470703125
1772896112425448700,0.32344873046875,-0.8537750244140625,-0.8758697509765625,1.7728424072265625
1772896112435417600,0.33341748046875,-1.0319366455078125,-1.2130126953125,1.863555908203125
1772896112445385700,0.3433857421875,-0.7137908935546875,-0.7495880126953125,0.16900634765625
1772896112455353900,0.353353759765625,-0.748626708984375,-0.1217041015625,-0.70684814453125
1772896112465322800,0.36332275390625,-0.805999755859375,-0.2086334228515625,-0.084136962890625
1772896112475291000,0.373290771484375,-0.824737548828125,-0.2429962158203125,0.007080078125
1772896112485258500,0.383258544921875,-0.906829833984375,-0.1549530029296875,-0.210601806640625
1772896112495227600,0.3932275390625,-1.079376220703125,-0.235137939453125,-0.14361572265625
1772896112505195500,0.403195556640625,-1.209503173828125,-0.315948486328125,-0.0788421630859375
1772896112515163600,0.41316357421875,-1.2292633056640625,-0.3124237060546875,-0.12939453125
1772896112525132500,0.423132568359375,-1.165283203125,-0.244171142578125,-0.21124267578125
1772896112535100700,0.4331005859375,-1.0897064208984375,-0.1841888427734375,-0.1336822509765625
1772896112545068800,0.44306884765625,-0.971099853515625,-0.1835174560546875,0.0174713134765625
1772896112555037700,0.45303759765625,-0.9188079833984375,-0.122344970703125,0.0226898193359375
1772896112565005800,0.463005859375,-0.9297332763671875,-0.1079864501953125,0.0563812255859375
1772896112574973700,0.4729736328125,-0.9849700927734375,-0.137725830078125,0.1025848388671875
1772896112584942600,0.482942626953125,-1.3442230224609375,-0.1473541259765625,0.0070648193359375
1772896112594910700,0.49291064453125,-1.5108184814453125,-0.214202880859375,-0.0245819091796875
1772896112604878600,0.502878662109375,-1.067138671875,-0.22515869140625,-0.0660247802734375
1772896112614847700,0.51284765625,-1.0906982421875,-0.202362060546875,0.0205230712890625
1772896112624815600,0.522815673828125,-1.0425567626953125,-0.1754608154296875,0.0355682373046875
1772896112634783700,0.53278369140625,-0.865386962890625,-0.157958984375,-0.099029541015625
1772896112644752600,0.542752685546875,-0.773040771484375,-0.224273681640625,-0.112335205078125
1772896112654720800,0.552720703125,-0.8741455078125,-0.312164306640625,-0.110626220703125
1772896112664688600,0.562688720703125,-0.982513427734375,-0.3501434326171875,-0.109954833984375
1772896112674657500,0.572657470703125,-0.993988037109375,-0.35028076171875,-0.135223388671875
1772896112684625700,0.582625732421875,-0.8978118896484375,-0.3595733642578125,-0.249908447265625
1772896112694593800,0.59259375,-0.9384002685546875,-0.286529541015625,-0.210968017578125
1772896112704562700,0.602562744140625,-1.1686859130859375,-0.0917510986328125,-0.113433837890625
1772896112714530800,0.61253076171875,-1.3329925537109375,-0.0572509765625,-0.1807708740234375
1772896112724498700,0.622498779296875,-1.3924102783203125,-0.1577301025390625,-0.1602325439453125
1772896112734467800,0.6324677734375,-1.4722442626953125,-0.148162841796875,-0.0818023681640625
1772896112744435700,0.642435791015625,-1.4595794677734375,-0.128387451171875,-0.039794921875
1772896112754403600,0.652403564453125,-1.30828857421875,-0.036224365234375,-0.0103912353515625
1772896112764372500,0.66237255859375,-1.17181396484375,-0.02099609375,0.0182037353515625
1772896112774340600,0.672340576171875,-1.0980224609375,-0.0738525390625,0.0546722412109375
1772896112784308700,0.682308837890625,-1.10784912109375,-0.0913543701171875,0.1133880615234375
1772896112794277600,0.692277587890625,-1.110137939453125,-0.0782623291015625,0.1121368408203125
1772896112804245800,0.702245849609375,-1.1470794677734375,-0.1064605712890625,0.058135986328125
1772896112814213600,0.712213623046875,-1.181640625,-0.14910888671875,0.01959228515625
1772896112824182800,0.722182861328125,-1.162506103515625,-0.1301422119140625,-0.0001220703125
1772896112834150700,0.732150634765625,-1.1582794189453125,-0.0930328369140625,0.042327880859375
1772896112844118500,0.742118408203125,-1.14404296875,-0.0841064453125,0.091796875
1772896112854087700,0.752087646484375,-1.1144256591796875,-0.068328857421875,0.1281280517578125
1772896112864055600,0.7620556640625,-1.0574951171875,-0.0262603759765625,0.1356658935546875
1772896112874023700,0.772023681640625,-0.998626708984375,-0.0063629150390625,0.11956787109375
1772896112883992600,0.78199267578125,-0.953643798828125,-0.0130462646484375,0.1278076171875
1772896112893960700,0.791960693359375,-0.9367828369140625,-0.02899169921875,0.1455078125
1772896112903928800,0.8019287109375,-0.9506378173828125,-0.0513916015625,0.1249847412109375
1772896112913897700,0.811897705078125,-0.98101806640625,-0.0736846923828125,0.090576171875
1772896112923865600,0.821865478515625,-0.9886016845703125,-0.0849609375,0.05572509765625
1772896112933833500,0.83183349609375,-1.00909423828125,-0.0743255615234375,0.0276947021484375
1772896112943802600,0.841802734375,-1.029815673828125,-0.05487060546875,0.0137786865234375
1772896112953770800,0.851770751953125,-1.0229644775390625,-0.041107177734375,0.018951416015625
1772896112963738600,0.861738525390625,-0.9893798828125,-0.0226898193359375,0.005828857421875
1772896112973707800,0.871707763671875,-1.1341094970703125,-0.03289794921875,-0.1873626708984375
1772896112983675600,0.881675537109375,-1.2188262939453125,-0.131683349609375,-0.2326202392578125
1772896112993643800,0.891643798828125,-1.1150665283203125,-0.089111328125,-0.204193115234375
1772896113003612700,0.90161279296875,-1.0291748046875,-0.287506103515625,-0.369476318359375
1772896113013580500,0.91158056640625,-0.8477783203125,-0.152069091796875,0.0330810546875
1772896113023548700,0.921548583984375,-0.859619140625,0.000091552734375,-0.3172149658203125
1772896113033517600,0.931517578125,-0.9309539794921875,-0.0130767822265625,-0.25091552734375
1772896113043485700,0.941485595703125,-1.0240325927734375,-0.0713958740234375,0.0457916259765625
1772896113053453600,0.95145361328125,-1.0834503173828125,0.0225830078125,0.097625732421875
1772896113063422700,0.961422607421875,-1.040008544921875,0.0708160400390625,0.076446533203125
1772896113073390800,0.971390869140625,-0.96258544921875,0.0406494140625,0.0712890625
1772896113083358700,0.981358642578125,-0.8618316650390625,0.0035247802734375,0.069427490234375
1772896113093328000,0.991327880859375,-0.810516357421875,-0.0196685791015625,0.044921875
1772896113103295500,1.00129541015625,-0.8126983642578125,-0.0261993408203125,0.02862548828125
1772896113113263600,1.011263671875,-0.8091888427734375,-0.0303802490234375,0.030303955078125
1772896113123232500,1.021232421875,-0.8050079345703125,-0.0339813232421875,0.01995849609375
1772896113133200600,1.03120068359375,-0.8107452392578125,-0.0471038818359375,0.013763427734375
1772896113143168800,1.041168701171875,-0.837158203125,-0.0649261474609375,-0.0042266845703125
1772896113153137700,1.0511376953125,-0.8589324951171875,-0.0751495361328125,-0.015960693359375
1772896113163105800,1.061105712890625,-0.85870361328125,-0.083343505859375,-0.0191802978515625
1772896113173073400,1.071073486328125,-0.857025146484375,-0.1007537841796875,-0.022430419921875
1772896113183042600,1.08104248046875,-0.8597869873046875,-0.12200927734375,-0.024200439453125
1772896113193010700,1.0910107421875,-0.866912841796875,-0.1301116943359375,-0.022064208984375
1772896113202978600,1.100978515625,-0.895477294921875,-0.127838134765625,-0.018096923828125
1772896113212947700,1.11094775390625,-0.934112548828125,-0.1419525146484375,-0.0174713134765625
1772896113222915300,1.120915283203125,-0.9661865234375,-0.1553192138671875,-0.020355224609375
1772896113232883500,1.130883544921875,-0.9947662353515625,-0.14642333984375,-0.02447509765625
1772896113242852400,1.140852294921875,-0.989013671875,-0.12713623046875,-0.0121307373046875
1772896113252820500,1.150820556640625,-0.9552764892578125,-0.1364898681640625,-0.0005950927734375
1772896113262788600,1.16078857421875,-1.0072479248046875,-0.1376495361328125,0.0029449462890625
1772896113272757500,1.170757568359375,-1.001739501953125,-0.133331298828125,0.0055389404296875
1772896113282725600,1.1807255859375,-1.021881103515625,-0.132965087890625,-0.0001068115234375
1772896113292693500,1.190693603515625,-1.0543365478515625,-0.151275634765625,-0.0233917236328125
1772896113302662700,1.20066259765625,-1.07861328125,-0.1505126953125,-0.035675048828125
1772896113312630500,1.210630615234375,-1.0850372314453125,-0.152099609375,-0.016448974609375
1772896113322598400,1.220598388671875,-1.0775604248046875,-0.1515960693359375,0.012054443359375
1772896113332567600,1.230567626953125,-1.0494232177734375,-0.1283416748046875,0.0351104736328125
1772896113342535400,1.240535400390625,-1.0258026123046875,-0.1098785400390625,0.0599517822265625
1772896113352503600,1.250503662109375,-1.0150909423828125,-0.109100341796875,0.070953369140625
1772896113362472400,1.260472412109375,-1.0172882080078125,-0.119781494140625,0.0670623779296875
1772896113372440600,1.270440673828125,-1.02685546875,-0.1266937255859375,0.0582427978515625
1772896113382408700,1.28040869140625,-1.0135955810546875,-0.13958740234375,0.04034423828125
1772896113392377600,1.290377685546875,-1.0037384033203125,-0.14990234375,0.0299224853515625
1772896113402345500,1.300345458984375,-0.9898834228515625,-0.1537628173828125,0.0374908447265625
1772896113412313300,1.310313232421875,-0.98101806640625,-0.15203857421875,0.0553131103515625
1772896113422282500,1.320282470703125,-0.9810638427734375,-0.131805419921875,0.04705810546875
1772896113432250600,1.330250732421875,-0.968170166015625,-0.143951416015625,0.05108642578125
1772896113442218500,1.340218505859375,-0.9618988037109375,-0.1583099365234375,0.062957763671875
1772896113452187600,1.350187744140625,-0.967376708984375,-0.1551971435546875,0.0701751708984375
1772896113462155500,1.360155517578125,-0.9786376953125,-0.1484375,0.0643463134765625
1772896113472123600,1.37012353515625,-0.9838104248046875,-0.1448974609375,0.0630340576171875
1772896113482092500,1.380092529296875,-0.99725341796875,-0.14080810546875,0.0754547119140625
1772896113492060400,1.390060302734375,-0.98876953125,-0.1474761962890625,0.05078125
1772896113502028500,1.400028564453125,-0.96527099609375,-0.159515380859375,0.0372772216796875
1772896113511997400,1.40999755859375,-0.9679107666015625,-0.163665771484375,0.0194854736328125
1772896113521965600,1.419965576171875,-0.980255126953125,-0.1511993408203125,0.0330352783203125
1772896113531933400,1.429933349609375,-0.9804840087890625,-0.13677978515625,0.048919677734375
1772896113541902600,1.439902587890625,-0.9726104736328125,-0.1268157958984375,0.055694580078125
1772896113551870500,1.449870361328125,-0.9817657470703125,-0.131011962890625,0.041107177734375
1772896113561838300,1.45983837890625,-0.998687744140625,-0.131500244140625,0.046051025390625
1772896113571807700,1.469807861328125,-1.0063934326171875,-0.123504638671875,0.0467987060546875
1772896113581775400,1.479775390625,-1.027679443359375,-0.1100921630859375,0.034515380859375
1772896113591743500,1.489743408203125,-1.006927490234375,-0.038787841796875,-0.0494232177734375
1772896113601712400,1.49971240234375,-1.010223388671875,-0.0655364990234375,0.003326416015625
1772896113611680500,1.509680419921875,-1.052581787109375,-0.17449951171875,0.1117095947265625
1772896113621648600,1.519648681640625,-0.9847564697265625,-0.163055419921875,0.063568115234375
1772896113631617500,1.529617431640625,-0.93463134765625,-0.0938873291015625,0.01416015625
1772896113641585700,1.539585693359375,-0.956146240234375,-0.0735015869140625,0.0402069091796875
1772896113651553300,1.54955322265625,-0.9804840087890625,-0.0871429443359375,0.0734710693359375
1772896113661522400,1.5595224609375,-1.0022430419921875,-0.09381103515625,0.092193603515625
1772896113671490300,1.569490234375,-1.0236968994140625,-0.0846405029296875,0.088165283203125
1772896113681458400,1.57945849609375,-1.01324462890625,-0.078826904296875,0.0731658935546875
1772896113691427600,1.589427490234375,-0.997100830078125,-0.07745361328125,0.055267333984375
1772896113701395500,1.5993955078125,-0.9897308349609375,-0.095916748046875,0.040435791015625
1772896113711363600,1.609363525390625,-0.993072509765625,-0.122772216796875,0.0217132568359375
1772896113721332500,1.61933251953125,-0.9693145751953125,-0.1464691162109375,-0.0318145751953125
1772896113731300600,1.629300537109375,-1.0010528564453125,-0.1356353759765625,0.020477294921875
1772896113741268500,1.6392685546875,-0.989990234375,-0.11676025390625,0.018646240234375
1772896113751237400,1.6492373046875,-0.9987945556640625,-0.09783935546875,0.0262908935546875
1772896113761205500,1.65920556640625,-1.008575439453125,-0.089813232421875,0.051239013671875
1772896113771173400,1.66917333984375,-0.981597900390625,-0.0967864990234375,0.0541534423828125
1772896113781142500,1.679142578125,-0.973724365234375,-0.1119842529296875,0.055450439453125
1772896113791110400,1.6891103515625,-0.97491455078125,-0.1309661865234375,0.0402679443359375
1772896113801078500,1.69907861328125,-0.9765777587890625,-0.141876220703125,0.022857666015625
1772896113811047700,1.709047607421875,-0.9877471923828125,-0.1448516845703125,0.02215576171875
1772896113821015600,1.719015625,-0.995208740234375,-0.15032958984375,0.0224456787109375
1772896113830983400,1.7289833984375,-1.000946044921875,-0.1566925048828125,0.020263671875
1772896113840951600,1.73895166015625,-1.0046844482421875,-0.1611175537109375,0.01861572265625
1772896113850920400,1.74892041015625,-1.0032501220703125,-0.1601715087890625,0.0128021240234375
1772896113860888600,1.758888671875,-1.00701904296875,-0.16705322265625,0.006134033203125
1772896113870856400,1.7688564453125,-1.004791259765625,-0.170562744140625,0.0107574462890625
1772896113880825600,1.77882568359375,-0.999969482421875,-0.1646728515625,0.0091705322265625
1772896113890793500,1.78879345703125,-0.9962158203125,-0.1586456298828125,0.0100555419921875
1772896113900761600,1.79876171875,-0.998260498046875,-0.1559295654296875,0.0163116455078125
1772896113910730500,1.80873046875,-1.0044097900390625,-0.1480560302734375,0.0205535888671875
1772896113920698400,1.818698486328125,-1.007965087890625,-0.1404266357421875,0.0165252685546875
1772896113930666500,1.82866650390625,-1.0127410888671875,-0.133026123046875,0.013580322265625
1772896113940635400,1.838635498046875,-1.0155792236328125,-0.1319122314453125,0.0044097900390625
1772896113950603500,1.848603515625,-1.0237274169921875,-0.1307220458984375,-0.009185791015625
1772896113960571600,1.858571533203125,-1.0336761474609375,-0.1376800537109375,-0.0211181640625
1772896113970540500,1.86854052734375,-1.0233154296875,-0.1494140625,-0.0257110595703125
1772896113980508700,1.8785087890625,-1.011627197265625,-0.1519012451171875,-0.0276336669921875
1772896113990476500,1.8884765625,-1.001251220703125,-0.1518096923828125,-0.032745361328125
1772896114000445700,1.89844580078125,-0.9980010986328125,-0.150390625,-0.0379486083984375
1772896114010413300,1.908413330078125,-0.9870147705078125,-0.1537628173828125,-0.041351318359375
1772896114020381400,1.91838134765625,-0.9689483642578125,-0.1527557373046875,-0.03887939453125
1772896114030350300,1.928350341796875,-0.957061767578125,-0.1513824462890625,-0.0415496826171875
1772896114040318500,1.938318359375,-0.9500579833984375,-0.1414031982421875,-0.0437469482421875
1772896114050286600,1.94828662109375,-0.9662628173828125,-0.1352691650390625,-0.04022216796875
1772896114060255500,1.95825537109375,-0.9513092041015625,-0.1631927490234375,-0.05291748046875
1772896114070223600,1.9682236328125,-0.9979095458984375,-0.1616363525390625,-0.086456298828125
1772896114080191500,1.97819140625,-0.998046875,-0.145172119140625,-0.0864105224609375
1772896114090160600,1.98816064453125,-1.0226898193359375,-0.1489105224609375,-0.081390380859375
1772896114100128500,1.99812841796875,-1.035003662109375,-0.1601104736328125,-0.0702056884765625
1772896114110096400,2.008096435546875,-1.0180511474609375,-0.1457061767578125,-0.0606842041015625
1772896114120065500,2.0180654296875,-1.0088043212890625,-0.133453369140625,-0.0561370849609375
1772896114130033400,2.028033447265625,-1.011260986328125,-0.1425628662109375,-0.0555267333984375
1772896114140001500,2.03800146484375,-1.013519287109375,-0.152557373046875,-0.059417724609375
1772896114149970400,2.047970458984375,-1.0174102783203125,-0.1522064208984375,-0.05914306640625
1772896114159938600,2.0579384765625,-1.0065155029296875,-0.1569976806640625,-0.057769775390625
1772896114169906700,2.06790673828125,-0.9926910400390625,-0.15679931640625,-0.059906005859375
1772896114179875600,2.07787548828125,-0.975555419921875,-0.153778076171875,-0.0561981201171875
1772896114189843700,2.08784375,-0.957122802734375,-0.1543426513671875,-0.05267333984375
1772896114199811600,2.0978115234375,-0.9457550048828125,-0.1551666259765625,-0.048736572265625
1772896114209780500,2.107780517578125,-0.9459991455078125,-0.1634063720703125,-0.0518035888671875
1772896114219748600,2.11774853515625,-0.9531097412109375,-0.1596527099609375,-0.04534912109375
1772896114229716500,2.127716552734375,-0.9796142578125,-0.1283416748046875,-0.0115509033203125
1772896114239685600,2.137685546875,-0.957122802734375,-0.128173828125,-0.025604248046875
1772896114249653500,2.147653564453125,-0.939910888671875,-0.1470794677734375,-0.0199432373046875
1772896114259621600,2.15762158203125,-0.94390869140625,-0.1516571044921875,-0.0424957275390625
1772896114269590500,2.167590576171875,-0.9459381103515625,-0.158416748046875,-0.0445709228515625
1772896114279558700,2.17755859375,-0.9474639892578125,-0.1617584228515625,-0.0470428466796875
1772896114289526500,2.187526611328125,-0.950164794921875,-0.163848876953125,-0.0461578369140625
1772896114299495400,2.197495361328125,-0.9454193115234375,-0.168060302734375,-0.0385894775390625
1772896114309463600,2.207463623046875,-0.94097900390625,-0.1611480712890625,-0.0541229248046875
1772896114319431400,2.217431396484375,-0.9489288330078125,-0.153717041015625,-0.06170654296875
1772896114329400600,2.227400634765625,-0.9653167724609375,-0.1477508544921875,-0.0486297607421875
1772896114339368700,2.23736865234375,-0.982757568359375,-0.147674560546875,-0.02935791015625
1772896114349336600,2.247336669921875,-0.989410400390625,-0.143646240234375,-0.0124359130859375
1772896114359305700,2.2573056640625,-0.9838409423828125,-0.1343994140625,0.002593994140625
1772896114369273600,2.267273681640625,-0.97125244140625,-0.1259307861328125,0.00885009765625
1772896114379241500,2.277241455078125,-0.9631500244140625,-0.1245880126953125,0.0191650390625
1772896114389210400,2.28721044921875,-0.96484375,-0.11981201171875,0.018463134765625
1772896114399178500,2.297178466796875,-0.9699859619140625,-0.10693359375,0.0170135498046875
1772896114409146600,2.307146728515625,-0.9832305908203125,-0.113006591796875,0.0171966552734375
1772896114419115500,2.317115478515625,-0.98699951171875,-0.1307525634765625,0.0130767822265625
1772896114429083600,2.327083740234375,-0.9818572998046875,-0.141082763671875,0.0131378173828125
1772896114439051500,2.337051513671875,-0.9632720947265625,-0.14617919921875,0.004058837890625
1772896114449020700,2.347020751953125,-0.9468231201171875,-0.14434814453125,-0.0169219970703125
1772896114458988500,2.356988525390625,-0.9621124267578125,-0.150848388671875,-0.0148468017578125
1772896114468956400,2.366956298828125,-0.9714508056640625,-0.161834716796875,-0.007354736328125
1772896114478925600,2.376925537109375,-0.9852142333984375,-0.1564788818359375,-0.0246124267578125
1772896114488893400,2.3868935546875,-1.003936767578125,-0.14501953125,-0.0431365966796875
1772896114498861600,2.396861572265625,-1.023956298828125,-0.1340179443359375,-0.054962158203125
1772896114508830500,2.40683056640625,-1.0411224365234375,-0.136993408203125,-0.0646820068359375
1772896114518798600,2.416798583984375,-1.0560455322265625,-0.1525115966796875,-0.074676513671875
1772896114528766700,2.4267666015625,-1.0319671630859375,-0.14825439453125,-0.0677337646484375
1772896114538735600,2.436735595703125,-0.9941558837890625,-0.1522064208984375,-0.0688323974609375
1772896114548703500,2.446703369140625,-0.972564697265625,-0.1607666015625,-0.08270263671875
1772896114558671400,2.45667138671875,-0.96343994140625,-0.1592864990234375,-0.0847625732421875
1772896114568640500,2.466640625,-0.96044921875,-0.14312744140625,-0.0807647705078125
1772896114578608600,2.476608642578125,-0.9600677490234375,-0.11248779296875,-0.0764312744140625
1772896114588576500,2.486576416015625,-0.9681549072265625,-0.0492095947265625,-0.0457000732421875
1772896114598545700,2.496545654296875,-1.00201416015625,-0.1942138671875,-0.10101318359375
1772896114608513500,2.506513427734375,-0.996490478515625,-0.14312744140625,-0.1362762451171875
1772896114618481700,2.516481689453125,-0.9705047607421875,-0.0955657958984375,-0.111419677734375
1772896114628450600,2.526450439453125,-0.8893280029296875,-0.1397552490234375,-0.0804901123046875
1772896114638418400,2.53641845703125,-0.8264617919921875,-0.1334991455078125,-0.0970001220703125
1772896114648386600,2.546386474609375,-0.8102569580078125,-0.0529632568359375,-0.08892822265625
1772896114658355500,2.55635546875,-0.8950653076171875,0.0543365478515625,-0.19073486328125
1772896114668323600,2.566323486328125,-0.9314117431640625,-0.0187225341796875,-0.29156494140625
1772896114678291500,2.57629150390625,-0.9987945556640625,-0.216064453125,-0.1367034912109375
1772896114688260600,2.586260498046875,-1.084259033203125,-0.2385406494140625,0.0205535888671875
1772896114698228500,2.596228515625,-1.0662384033203125,-0.0781402587890625,-0.09814453125
1772896114708196600,2.606196533203125,-0.984283447265625,-0.0235443115234375,-0.17327880859375
1772896114718165800,2.616165771484375,-0.9456939697265625,-0.0868988037109375,-0.1023406982421875
1772896114728133400,2.62613330078125,-0.9154815673828125,-0.0833587646484375,-0.1036834716796875
1772896114738101500,2.6361015625,-0.9194488525390625,-0.0521087646484375,-0.148590087890625
1772896114748070400,2.6460703125,-0.9820098876953125,-0.0880126953125,-0.1532745361328125
1772896114758038500,2.65603857421875,-0.99334716796875,-0.199127197265625,-0.1698455810546875
1772896114768006700,2.666006591796875,-0.961822509765625,-0.52545166015625,-0.347320556640625
1772896114777974500,2.675974609375,-0.895843505859375,-0.846343994140625,-0.5914154052734375
1772896114787943700,2.685943603515625,-0.9033203125,-0.4329681396484375,-0.499481201171875
1772896114797911600,2.69591162109375,-0.973602294921875,0.121002197265625,-0.1811370849609375
1772896114807880700,2.705880615234375,-0.9566802978515625,0.238006591796875,0.149200439453125
1772896114817848300,2.715848388671875,-0.841796875,0.113616943359375,0.407623291015625
1772896114827816400,2.72581640625,-0.8330230712890625,0.135162353515625,0.37005615234375
1772896114837784600,2.73578466796875,-0.9022064208984375,0.2275238037109375,0.2443084716796875
1772896114847753500,2.74575341796875,-0.9461669921875,0.1401519775390625,0.21392822265625
1772896114857721600,2.7557216796875,-1.0146484375,0.067535400390625,0.2039031982421875
1772896114867689700,2.765689697265625,-1.095916748046875,0.0558319091796875,0.1058502197265625
1772896114877658600,2.77565869140625,-1.0888214111328125,-0.0317230224609375,-0.058563232421875
1772896114887626800,2.785626708984375,-1.097747802734375,-0.09136962890625,-0.2445220947265625
1772896114897594400,2.795594482421875,-1.022857666015625,-0.1971435546875,-0.1785430908203125
1772896114907563500,2.8055634765625,-0.90618896484375,-0.278594970703125,-0.2221221923828125
1772896114917531400,2.815531494140625,-0.8158721923828125,-0.17401123046875,-0.229827880859375
1772896114927499500,2.82549951171875,-0.819915771484375,-0.050811767578125,-0.158660888671875
1772896114937468400,2.835468505859375,-0.988861083984375,0.0165252685546875,-0.0748291015625
1772896114947436500,2.8454365234375,-1.12066650390625,0.093414306640625,0.054656982421875
1772896114957404700,2.85540478515625,-1.0882568359375,0.2463836669921875,0.19354248046875
1772896114967373600,2.86537353515625,-1.069091796875,0.4056549072265625,0.326385498046875
1772896114977341700,2.875341796875,-1.1396942138671875,0.447357177734375,0.36383056640625
1772896114987309600,2.8853095703125,-1.2010040283203125,0.4035186767578125,0.3126220703125
1772896114997278500,2.895278564453125,-1.20513916015625,0.353851318359375,0.185791015625
1772896115007246600,2.90524658203125,-1.1280670166015625,0.2506561279296875,0.2161865234375
1772896115017214500,2.91521435546875,-1.031768798828125,0.1996917724609375,0.1891937255859375
1772896115027183600,2.92518359375,-0.992431640625,0.196441650390625,0.1299591064453125
1772896115037151500,2.9351513671875,-1.0361480712890625,0.1314239501953125,0.0702056884765625
1772896115047119600,2.94511962890625,-1.1473846435546875,0.0652313232421875,0.032745361328125
1772896115057088500,2.955088623046875,-1.1446075439453125,0.0181121826171875,0.072479248046875
1772896115067056600,2.965056640625,-1.0703887939453125,0.034393310546875,0.123748779296875
1772896115077024500,2.9750244140625,-1.0333099365234375,0.055206298828125,0.19805908203125
1772896115086993400,2.984993408203125,-1.000701904296875,0.0538787841796875,0.2749481201171875
1772896115096961500,2.99496142578125,-1.0535430908203125,0.0085906982421875,0.2359619140625
1772896115106929700,3.0049296875,-1.0404815673828125,-0.165435791015625,0.040924072265625
1772896115116898600,3.014898681640625,-0.9539642333984375,-0.37371826171875,-0.2343902587890625
1772896115126866700,3.02486669921875,-0.9597015380859375,-0.508026123046875,-0.387481689453125
1772896115136834600,3.03483447265625,-0.9594879150390625,-0.497222900390625,-0.3179779052734375
1772896115146803700,3.0448037109375,-0.9939422607421875,-0.5850372314453125,-0.4064788818359375
1772896115156771600,3.054771484375,-1.0454864501953125,-0.642425537109375,-0.51800537109375
1772896115166739500,3.064739501953125,-0.998016357421875,-0.48358154296875,-0.3149261474609375
1772896115176708400,3.074708251953125,-0.967742919921875,-0.1838531494140625,0.13677978515625
1772896115186676500,3.084676513671875,-1.0423736572265625,-0.067962646484375,0.4051666259765625
1772896115196644600,3.09464453125,-1.2022705078125,-0.0473480224609375,0.409393310546875
1772896115206613500,3.104613525390625,-1.2825469970703125,-0.0357513427734375,0.350830078125
1772896115216581600,3.11458154296875,-1.206634521484375,-0.0011138916015625,0.290069580078125
1772896115226549500,3.124549560546875,-1.08782958984375,0.035614013671875,0.214599609375
1772896115236518700,3.1345185546875,-1.04107666015625,0.0759429931640625,0.1131591796875
1772896115246486800,3.14448681640625,-1.0282440185546875,0.11041259765625,0.023040771484375
1772896115256454400,3.154454345703125,-0.98101806640625,0.143341064453125,-0.023590087890625
1772896115266423600,3.164423583984375,-0.889678955078125,0.183929443359375,-0.0072479248046875
1772896115276391400,3.174391357421875,-0.8052215576171875,0.22064208984375,-0.0059051513671875
1772896115286359600,3.184359619140625,-0.78790283203125,0.2561187744140625,0.04852294921875
1772896115296328400,3.194328369140625,-0.8448638916015625,0.260467529296875,0.085418701171875
1772896115306296600,3.204296630859375,-1.0379180908203125,0.2218475341796875,0.072113037109375
1772896115316264700,3.2142646484375,-1.1549530029296875,0.197174072265625,0.107421875
1772896115326233600,3.224233642578125,-1.1617889404296875,0.2059173583984375,0.1746063232421875
1772896115336201500,3.234201416015625,-1.2439422607421875,0.2182464599609375,0.19610595703125
1772896115346169300,3.24416943359375,-1.259124755859375,0.218597412109375,0.194610595703125
1772896115356138500,3.254138427734375,-1.1205596923828125,0.195098876953125,0.2015533447265625
1772896115366106600,3.264106689453125,-0.9938201904296875,0.13775634765625,0.193511962890625
1772896115376074500,3.274074462890625,-1.01470947265625,0.0644378662109375,0.1313018798828125
1772896115386043600,3.284043701171875,-1.1007537841796875,0.0047760009765625,0.0589752197265625
1772896115396011500,3.294011474609375,-1.1419830322265625,-0.0360260009765625,0.05267333984375
1772896115405979600,3.303979736328125,-1.0904541015625,-0.05035400390625,0.1056671142578125
1772896115415948500,3.313948486328125,-1.00140380859375,0.014068603515625,0.14727783203125
1772896115425916400,3.32391650390625,-0.983978271484375,0.066864013671875,0.18353271484375
1772896115435884500,3.333884521484375,-1.0047454833984375,0.101776123046875,0.18804931640625
1772896115445853400,3.343853515625,-0.9849395751953125,0.1342926025390625,0.1624298095703125
1772896115455821600,3.353821533203125,-0.9127349853515625,0.1569061279296875,0.1757659912109375
1772896115465789400,3.36378955078125,-0.852996826171875,0.127471923828125,0.1312103271484375
1772896115475758600,3.373758544921875,-0.8602447509765625,0.0400238037109375,0.02581787109375
1772896115485726700,3.383726806640625,-0.8812103271484375,-0.09735107421875,-0.1258544921875
1772896115495694600,3.393694580078125,-0.7919464111328125,-0.2190399169921875,-0.2425689697265625
1772896115505663700,3.403663818359375,-0.714385986328125,-0.175048828125,-0.235015869140625
1772896115515631400,3.41363134765625,-0.7556304931640625,0.09100341796875,-0.0437774658203125
1772896115525599500,3.423599609375,-0.909637451171875,0.2731170654296875,0.1876220703125
1772896115535568400,3.433568359375,-1.1158447265625,0.4006805419921875,0.2505340576171875
1772896115545536500,3.44353662109375,-1.2040252685546875,0.4534149169921875,0.272613525390625
1772896115555504600,3.453504638671875,-1.135101318359375,0.4296417236328125,0.1731414794921875
1772896115565473500,3.4634736328125,-0.98907470703125,0.2574005126953125,-0.006317138671875
1772896115575441700,3.473441650390625,-0.888824462890625,0.1726226806640625,-0.1468048095703125
1772896115585409500,3.483409423828125,-0.997467041015625,0.11224365234375,-0.2259368896484375
1772896115595378700,3.493378662109375,-1.1077117919921875,0.083892822265625,-0.2180023193359375
1772896115605346600,3.5033466796875,-1.0293731689453125,0.1021270751953125,-0.1425323486328125
1772896115615314400,3.513314453125,-1.006927490234375,0.102874755859375,-0.10064697265625
1772896115625283600,3.52328369140625,-1.0325927734375,0.1024017333984375,-0.069061279296875
1772896115635251500,3.53325146484375,-1.0323638916015625,0.098052978515625,-0.0267181396484375
1772896115645219600,3.543219482421875,-1.0407562255859375,0.081573486328125,0.006744384765625
1772896115655188500,3.5531884765625,-1.031036376953125,0.0618743896484375,0.014404296875
1772896115665156600,3.563156494140625,-1.0369110107421875,0.03082275390625,0.0037689208984375
1772896115675124700,3.573124755859375,-1.0090179443359375,0.0024871826171875,0.004669189453125
1772896115685093600,3.58309375,-0.948272705078125,-0.0055694580078125,0.026947021484375
1772896115695061500,3.5930615234375,-0.947052001953125,-0.0060882568359375,0.016754150390625
1772896115705029400,3.603029296875,-1.0296783447265625,-0.0006866455078125,-0.0153045654296875
1772896115714998500,3.61299853515625,-1.1005706787109375,0.0185394287109375,-0.047027587890625
1772896115724966400,3.62296630859375,-1.0989532470703125,0.040740966796875,-0.046112060546875
1772896115734934500,3.6329345703125,-1.03765869140625,0.0352935791015625,-0.0708770751953125
1772896115744903700,3.642903564453125,-0.9610137939453125,0.0019683837890625,-0.099212646484375
1772896115754871600,3.65287158203125,-0.86676025390625,-0.0036163330078125,-0.0702972412109375
1772896115764839700,3.662839599609375,-0.8353271484375,0.0042877197265625,-0.065460205078125
1772896115774808600,3.67280859375,-0.8644561767578125,-0.0019073486328125,-0.0874176025390625
1772896115784776400,3.6827763671875,-0.8803558349609375,0.026580810546875,-0.085723876953125
1772896115794744600,3.69274462890625,-0.7989654541015625,0.033782958984375,-0.1068878173828125
1772896115804712400,3.70271240234375,-0.8455352783203125,0.0095977783203125,-0.1737518310546875
1772896115814681600,3.712681640625,-0.930419921875,-0.0281982421875,-0.2705230712890625
1772896115824649500,3.7226494140625,-0.8929290771484375,-0.041961669921875,-0.3173980712890625
1772896115834617600,3.73261767578125,-0.8944549560546875,-0.175048828125,-0.3868408203125
1772896115844586500,3.74258642578125,-0.8436126708984375,-0.314208984375,-0.4358673095703125
1772896115854554600,3.7525546875,-0.755157470703125,-0.268951416015625,-0.372406005859375
1772896115864522500,3.7625224609375,-0.757476806640625,-0.0516357421875,-0.1450958251953125
1772896115874491400,3.772491455078125,-0.893798828125,0.2257843017578125,0.099639892578125
1772896115884459500,3.78245947265625,-1.0577545166015625,0.2230682373046875,0.2116546630859375
1772896115894427600,3.792427734375,-1.065460205078125,0.0925750732421875,0.0774078369140625
1772896115904396500,3.802396484375,-0.9612884521484375,0.0660400390625,0.08709716796875
1772896115914364700,3.81236474609375,-0.8922119140625,0.1125335693359375,0.170623779296875
1772896115924332500,3.82233251953125,-0.958953857421875,0.204376220703125,0.2109832763671875
1772896115934301700,3.8323017578125,-1.1004486083984375,0.458892822265625,0.2664642333984375
1772896115944269600,3.84226953125,-1.323028564453125,0.4543914794921875,0.2591400146484375
1772896115954237400,3.852237548828125,-1.35308837890625,0.417633056640625,0.1144866943359375
1772896115964206300,3.862206298828125,-1.26715087890625,0.445831298828125,0.03271484375
1772896115974174500,3.872174560546875,-1.15057373046875,0.322296142578125,-0.0969085693359375
1772896115984142600,3.882142578125,-1.050262451171875,0.2684478759765625,-0.2303924560546875
1772896115994111500,3.892111572265625,-1.0592041015625,0.1944732666015625,-0.4469757080078125
1772896116004079600,3.90207958984375,-1.2751007080078125,0.086456298828125,-0.6159820556640625
1772896116014047700,3.9120478515625,-1.279266357421875,0.062103271484375,-0.500823974609375
1772896116024016600,3.9220166015625,-0.9764251708984375,0.1486358642578125,-0.3859100341796875
1772896116033984800,3.93198486328125,-0.8404998779296875,0.1914215087890625,-0.3001251220703125
1772896116043952400,3.941952392578125,-0.922332763671875,0.2069854736328125,-0.2539215087890625
1772896116053921500,3.951921630859375,-1.0118408203125,0.2159576416015625,-0.20391845703125
1772896116063889400,3.961889404296875,-1.0037689208984375,0.2061767578125,-0.1375732421875
1772896116073857500,3.971857421875,-0.950836181640625,0.18438720703125,-0.0758209228515625
1772896116083826400,3.981826416015625,-0.9100341796875,0.1584625244140625,-0.056488037109375
1772896116093794600,3.991794677734375,-0.9285888671875,0.12896728515625,-0.0499267578125
1772896116103762700,4.0017626953125,-0.9760284423828125,0.10394287109375,-0.04425048828125
1772896116113731600,4.011731689453125,-1.0336761474609375,0.0931854248046875,-0.0512237548828125
1772896116123699700,4.02169970703125,-1.0503082275390625,0.079437255859375,-0.0643310546875
1772896116133667600,4.03166748046875,-1.02789306640625,0.0594329833984375,-0.083221435546875
1772896116143636500,4.041636474609375,-1.0192413330078125,0.042144775390625,-0.0915069580078125
1772896116153604600,4.0516044921875,-1.0356903076171875,0.031982421875,-0.1124114990234375
1772896116163572500,4.061572509765625,-1.0292510986328125,0.0412445068359375,-0.1341705322265625
1772896116173541400,4.071541259765625,-1.0040283203125,0.0453948974609375,-0.1465911865234375
1772896116183509200,4.08150927734375,-0.979339599609375,0.047454833984375,-0.1551361083984375
1772896116193477400,4.091477294921875,-0.9698486328125,0.0535888671875,-0.166046142578125
1772896116203446300,4.1014462890625,-0.9647216796875,0.0688934326171875,-0.1742706298828125
1772896116213414400,4.111414306640625,-0.974578857421875,0.078460693359375,-0.1766815185546875
1772896116223382500,4.121382568359375,-0.9746246337890625,0.068115234375,-0.1844329833984375
1772896116233351400,4.131351318359375,-0.9789581298828125,0.0562896728515625,-0.1941375732421875
1772896116243319300,4.1413193359375,-0.9497222900390625,0.0513153076171875,-0.195556640625
1772896116253287400,4.151287353515625,-0.936553955078125,0.0507659912109375,-0.19482421875
1772896116263256300,4.16125634765625,-0.9190216064453125,0.057037353515625,-0.1909332275390625
1772896116273224400,4.171224365234375,-0.9150390625,0.0617218017578125,-0.1892852783203125
1772896116283192300,4.1811923828125,-0.933685302734375,0.060821533203125,-0.194915771484375
1772896116293161500,4.191161376953125,-0.9438018798828125,0.065216064453125,-0.2036895751953125
1772896116303129300,4.20112939453125,-0.9339752197265625,0.0684356689453125,-0.1985626220703125
1772896116313097500,4.211097412109375,-0.9390716552734375,0.0713348388671875,-0.200225830078125
1772896116323066400,4.22106640625,-0.9456939697265625,0.071868896484375,-0.195953369140625
1772896116333034200,4.2310341796875,-0.946807861328125,0.0693817138671875,-0.188079833984375
1772896116343002400,4.24100244140625,-0.9365234375,0.072906494140625,-0.18743896484375
1772896116352971300,4.25097119140625,-0.943878173828125,0.0733489990234375,-0.1817626953125
1772896116362939400,4.260939453125,-0.964141845703125,0.072723388671875,-0.169647216796875
1772896116372907500,4.270907470703125,-0.981231689453125,0.072479248046875,-0.1746368408203125
1772896116382876400,4.28087646484375,-0.995086669921875,0.0684356689453125,-0.1779327392578125
1772896116392844500,4.290844482421875,-0.9854736328125,0.0695037841796875,-0.18206787109375
1772896116402812400,4.3008125,-0.970367431640625,0.071258544921875,-0.1845550537109375
1772896116412781600,4.310781494140625,-0.9674072265625,0.071319580078125,-0.182403564453125
1772896116422749200,4.320749267578125,-0.999267578125,0.070770263671875,-0.1881561279296875
1772896116432717300,4.33071728515625,-1.0356292724609375,0.07147216796875,-0.194488525390625
1772896116442686200,4.340686279296875,-1.0342864990234375,0.0699615478515625,-0.187896728515625
1772896116452654300,4.350654296875,-0.98504638671875,0.0733795166015625,-0.1715850830078125
1772896116462622500,4.36062255859375,-0.9477081298828125,0.06707763671875,-0.1667633056640625
1772896116472591400,4.37059130859375,-0.9500579833984375,0.0600128173828125,-0.171630859375
1772896116482559500,4.3805595703125,-0.989532470703125,0.0521087646484375,-0.17529296875
1772896116492527400,4.39052734375,-1.003326416015625,0.0477447509765625,-0.1782989501953125
1772896116502496500,4.40049658203125,-0.9942779541015625,0.044219970703125,-0.168212890625
1772896116512464400,4.41046435546875,-0.982666015625,0.0396728515625,-0.163055419921875
1772896116522432300,4.420432373046875,-0.99603271484375,0.0365447998046875,-0.167572021484375
1772896116532401400,4.4304013671875,-0.990753173828125,0.03204345703125,-0.16607666015625
1772896116542369300,4.440369384765625,-0.97332763671875,0.034454345703125,-0.164825439453125
1772896116552337400,4.45033740234375,-0.96466064453125,0.0323638916015625,-0.1644134521484375
1772896116562306300,4.460306396484375,-0.9586029052734375,0.0331268310546875,-0.1559295654296875
1772896116572274400,4.4702744140625,-0.957000732421875,0.0370941162109375,-0.154022216796875
1772896116582242600,4.48024267578125,-0.964630126953125,0.0422515869140625,-0.157501220703125
1772896116592211500,4.49021142578125,-0.9702911376953125,0.0439605712890625,-0.1632232666015625
1772896116602179300,4.500179443359375,-0.9742584228515625,0.045135498046875,-0.1720428466796875
1772896116612147500,4.5101474609375,-0.9751739501953125,0.04632568359375,-0.182373046875
1772896116622116400,4.520116455078125,-0.9752197265625,0.04937744140625,-0.1871490478515625
1772896116632084500,4.53008447265625,-0.9763031005859375,0.0514068603515625,-0.1857757568359375
1772896116642052400,4.54005224609375,-1.0023193359375,0.05126953125,-0.1977996826171875
1772896116652021500,4.550021484375,-1.0007171630859375,0.0618896484375,-0.185272216796875
1772896116661989400,4.5599892578125,-0.977294921875,0.067718505859375,-0.1679840087890625
1772896116671957500,4.56995751953125,-0.95849609375,0.07177734375,-0.17376708984375
1772896116681926400,4.579926513671875,-0.9524383544921875,0.0675048828125,-0.1866607666015625
1772896116691894300,4.589894287109375,-0.9734954833984375,0.0591888427734375,-0.1946563720703125
1772896116701862400,4.5998623046875,-0.987335205078125,0.0593719482421875,-0.2025604248046875
1772896116711831300,4.609831298828125,-0.980072021484375,0.05828857421875,-0.19659423828125
1772896116721799400,4.61979931640625,-0.9681549072265625,0.0623931884765625,-0.19500732421875
1772896116731767300,4.629767333984375,-0.96795654296875,0.0618896484375,-0.1860504150390625
1772896116741736400,4.639736328125,-0.9767608642578125,0.062530517578125,-0.175628662109375
1772896116751704600,4.64970458984375,-0.9791412353515625,0.0616455078125,-0.170684814453125
1772896116761672400,4.65967236328125,-0.97625732421875,0.05859375,-0.1657562255859375
1772896116771641600,4.6696416015625,-0.9755096435546875,0.05706787109375,-0.163116455078125
1772896116781609200,4.679609130859375,-0.9792022705078125,0.0564727783203125,-0.1631927490234375
1772896116791577300,4.689577392578125,-0.99346923828125,0.0567626953125,-0.166015625
1772896116801546200,4.699546142578125,-0.999725341796875,0.0526275634765625,-0.162017822265625
1772896116811514400,4.709514404296875,-0.992889404296875,0.0474395751953125,-0.1573486328125
1772896116821482500,4.719482421875,-0.9849700927734375,0.0465545654296875,-0.1557769775390625
1772896116831451400,4.729451416015625,-0.986968994140625,0.0457305908203125,-0.155426025390625
1772896116841419500,4.73941943359375,-0.9891204833984375,0.049346923828125,-0.1582794189453125
1772896116851387100,4.74938720703125,-0.983978271484375,0.0500640869140625,-0.1608428955078125
1772896116861356500,4.7593564453125,-0.976287841796875,0.04766845703125,-0.1647796630859375
1772896116871324400,4.769324462890625,-0.9714813232421875,0.046356201171875,-0.1749420166015625
1772896116881292300,4.779292236328125,-0.9838104248046875,0.046630859375,-0.179412841796875
1772896116891261400,4.789261474609375,-0.9885101318359375,0.0509796142578125,-0.174957275390625
1772896116901229300,4.799229248046875,-0.984100341796875,0.0545196533203125,-0.17071533203125
1772896116911197400,4.809197509765625,-0.9778594970703125,0.054779052734375,-0.1673583984375
1772896116921166300,4.819166259765625,-0.9828643798828125,0.0539703369140625,-0.1685943603515625
1772896116931134500,4.829134521484375,-0.9810791015625,0.056243896484375,-0.1667633056640625
1772896116941102300,4.839102294921875,-0.9804229736328125,0.053436279296875,-0.1631927490234375
1772896116951071200,4.8490712890625,-0.9863128662109375,0.052215576171875,-0.1697540283203125
1772896116961039400,4.859039306640625,-0.9883880615234375,0.0487213134765625,-0.1662139892578125
1772896116971007200,4.86900732421875,-0.9779510498046875,0.0499725341796875,-0.1626739501953125
1772896116980976400,4.878976318359375,-0.9642181396484375,0.051483154296875,-0.159332275390625
1772896116990944500,4.888944580078125,-0.9665679931640625,0.0524444580078125,-0.154937744140625
1772896117000912400,4.898912353515625,-0.979248046875,0.051422119140625,-0.1578216552734375
1772896117010881500,4.908881591796875,-0.98870849609375,0.0494384765625,-0.157012939453125
1772896117020849400,4.918849365234375,-0.986846923828125,0.0484466552734375,-0.158294677734375
1772896117030817300,4.9288173828125,-0.9866180419921875,0.0513763427734375,-0.157073974609375
1772896117040786200,4.9387861328125,-0.998443603515625,0.05291748046875,-0.1532745361328125
1772896117050754300,4.94875439453125,-1.007598876953125,0.0536346435546875,-0.1577301025390625
1772896117060722400,4.958722412109375,-0.9950103759765625,0.05218505859375,-0.1618194580078125
1772896117070691300,4.96869140625,-0.969970703125,0.04913330078125,-0.164703369140625
1772896117080659500,4.978659423828125,-0.9551239013671875,0.049163818359375,-0.171417236328125
1772896117090627300,4.98862744140625,-0.9706878662109375,0.0492401123046875,-0.175018310546875
1772896117100596500,4.998596435546875,-0.978057861328125,0.0518798828125,-0.171539306640625
1772896117110564400,5.008564453125,-0.9662628173828125,0.0515594482421875,-0.1678466796875
1772896117120532200,5.0185322265625,-0.9593658447265625,0.050323486328125,-0.1643829345703125
1772896117130500400,5.028500244140625,-0.9628448486328125,0.0500335693359375,-0.1635894775390625
1772896117140469200,5.03846923828125,-0.976165771484375,0.0547332763671875,-0.1651763916015625
1772896117150437400,5.048437255859375,-0.9834442138671875,0.0562896728515625,-0.164398193359375
1772896117160406300,5.05840625,-0.98834228515625,0.052764892578125,-0.1698455810546875
1772896117170375000,5.068375,-0.98284912109375,0.04931640625,-0.17352294921875
1772896117180343000,5.078343017578125,-0.9713897705078125,0.04779052734375,-0.1666412353515625
1772896117190310700,5.088310546875,-0.9698486328125,0.04925537109375,-0.1621551513671875
1772896117200279800,5.09827978515625,-0.97918701171875,0.052520751953125,-0.16021728515625
1772896117210247700,5.10824755859375,-0.9852752685546875,0.053802490234375,-0.150604248046875
1772896117220216800,5.118216796875,-0.9892425537109375,0.0537567138671875,-0.149139404296875
1772896117230184700,5.128184814453125,-0.9921417236328125,0.051422119140625,-0.1529388427734375
1772896117240152800,5.13815283203125,-0.9934234619140625,0.0492706298828125,-0.15362548828125
1772896117250121000,5.148120849609375,-0.9943695068359375,0.0502777099609375,-0.155731201171875
1772896117260089900,5.15808984375,-0.9883270263671875,0.0506591796875,-0.1602630615234375
1772896117270057700,5.1680576171875,-0.9813079833984375,0.0496063232421875,-0.1630706787109375
1772896117280027000,5.17802685546875,-0.97906494140625,0.0492401123046875,-0.160888671875
1772896117289994800,5.187994873046875,-0.9853668212890625,0.0512542724609375,-0.1569976806640625
1772896117299963000,5.197962890625,-0.9875030517578125,0.0555572509765625,-0.15472412109375
1772896117309930800,5.2079306640625,-0.9883575439453125,0.057342529296875,-0.152984619140625
1772896117319900000,5.21789990234375,-0.995269775390625,0.05938720703125,-0.157440185546875
1772896117329867800,5.22786767578125,-0.99542236328125,0.063232421875,-0.1641082763671875
1772896117339837000,5.2378369140625,-0.978424072265625,0.063507080078125,-0.165252685546875
1772896117349804800,5.2478046875,-0.964324951171875,0.0652618408203125,-0.171661376953125
1772896117359772700,5.257772705078125,-0.968658447265625,0.0656280517578125,-0.177520751953125
1772896117369740800,5.26774072265625,-0.97894287109375,0.0649261474609375,-0.174652099609375
1772896117379709700,5.277709716796875,-0.9745635986328125,0.0655670166015625,-0.1676025390625
1772896117389677800,5.287677734375,-0.97430419921875,0.059539794921875,-0.1623077392578125
1772896117399645700,5.297645751953125,-0.9818878173828125,0.0569305419921875,-0.1616058349609375
1772896117409614800,5.30761474609375,-0.99261474609375,0.0572967529296875,-0.1600189208984375
1772896117419582700,5.317582763671875,-1.002532958984375,0.0604248046875,-0.15618896484375
1772896117429550800,5.32755078125,-0.9969329833984375,0.05950927734375,-0.1502227783203125
1772896117439520000,5.33752001953125,-0.9883575439453125,0.057159423828125,-0.157684326171875
1772896117449487600,5.347487548828125,-0.9722747802734375,0.054779052734375,-0.156982421875
1772896117459455700,5.357455810546875,-0.9656829833984375,0.0589141845703125,-0.1624603271484375
1772896117469424600,5.367424560546875,-0.9657135009765625,0.0587310791015625,-0.164276123046875
1772896117479392800,5.377392822265625,-0.9702911376953125,0.0563201904296875,-0.1638031005859375
1772896117489361700,5.387361572265625,-0.9739227294921875,0.0533905029296875,-0.162506103515625
1772896117499329800,5.397329833984375,-0.97381591796875,0.0530242919921875,-0.1572113037109375
1772896117509298000,5.4072978515625,-0.976776123046875,0.054779052734375,-0.1568603515625
1772896117519265800,5.417265869140625,-0.98974609375,0.056243896484375,-0.1603546142578125
1772896117529235000,5.42723486328125,-1.003814697265625,0.0562591552734375,-0.1576995849609375
1772896117539202800,5.437202880859375,-0.994415283203125,0.055084228515625,-0.155914306640625
1772896117549170700,5.447170654296875,-0.9852142333984375,0.0551300048828125,-0.1573486328125
1772896117559139800,5.457139892578125,-0.982391357421875,0.05194091796875,-0.1571807861328125
1772896117569107700,5.467107666015625,-0.9752044677734375,0.04803466796875,-0.1533355712890625
1772896117579075800,5.477075927734375,-0.9810028076171875,0.0463104248046875,-0.1541900634765625
1772896117589044700,5.487044677734375,-0.9898681640625,0.0445709228515625,-0.151336669921875
1772896117599012900,5.497012939453125,-0.9974517822265625,0.043853759765625,-0.15283203125
1772896117608981000,5.50698095703125,-0.992218017578125,0.0466461181640625,-0.1528167724609375
1772896117618950000,5.516949951171875,-0.984161376953125,0.0458221435546875,-0.151092529296875
1772896117628917800,5.526917724609375,-0.9791717529296875,0.04559326171875,-0.150115966796875
1772896117638885600,5.5368857421875,-0.981048583984375,0.044708251953125,-0.1502532958984375
1772896117648854800,5.546854736328125,-0.9740753173828125,0.043853759765625,-0.1543121337890625
1772896117658822700,5.55682275390625,-0.9590606689453125,0.046112060546875,-0.15350341796875
1772896117668791800,5.566791748046875,-0.9697723388671875,0.043731689453125,-0.1570281982421875
1772896117678760000,5.576760009765625,-0.97607421875,0.050567626953125,-0.1589202880859375
1772896117688727800,5.586727783203125,-0.991058349609375,0.0562286376953125,-0.1608428955078125
1772896117698696000,5.596696044921875,-0.9842376708984375,0.062652587890625,-0.156982421875
1772896117708664800,5.606664794921875,-0.97247314453125,0.0661468505859375,-0.157745361328125
1772896117718632700,5.6166328125,-0.9702606201171875,0.0655517578125,-0.1575927734375
1772896117728600800,5.626600830078125,-0.9750213623046875,0.060638427734375,-0.1590576171875
1772896117738569700,5.63656982421875,-0.9885406494140625,0.05828857421875,-0.164306640625
1772896117748537900,5.646537841796875,-0.998626708984375,0.0551910400390625,-0.16485595703125
1772896117758505700,5.656505615234375,-0.99676513671875,0.0543975830078125,-0.161834716796875
1772896117768475000,5.666474853515625,-0.98895263671875,0.056060791015625,-0.1617584228515625
1772896117778442800,5.67644287109375,-0.9818115234375,0.0555572509765625,-0.161224365234375
1772896117788411000,5.686410888671875,-0.9844818115234375,0.0568389892578125,-0.160003662109375
1772896117798379800,5.6963798828125,-0.9942474365234375,0.0580902099609375,-0.1596221923828125
1772896117808347600,5.70634765625,-0.9947357177734375,0.0562744140625,-0.1578216552734375
1772896117818315800,5.716315673828125,-0.9732818603515625,0.0532684326171875,-0.1533050537109375
1772896117828284700,5.72628466796875,-0.96435546875,0.0524139404296875,-0.156158447265625
1772896117838252800,5.736252685546875,-0.96978759765625,0.0552215576171875,-0.15716552734375
1772896117848221000,5.746220947265625,-0.97027587890625,0.053955078125,-0.1472930908203125
1772896117858189800,5.75618994140625,-0.9832916259765625,0.055389404296875,-0.156982421875
1772896117868158000,5.766157958984375,-0.979705810546875,0.05560302734375,-0.15716552734375
1772896117878125800,5.776125732421875,-0.973052978515625,0.0559234619140625,-0.157257080078125
1772896117888095000,5.786094970703125,-0.968536376953125,0.0579376220703125,-0.164093017578125
1772896117898062600,5.7960625,-0.969390869140625,0.0556640625,-0.16131591796875
1772896117908030700,5.80603076171875,-0.986053466796875,0.0555877685546875,-0.16455078125
1772896117917999900,5.815999755859375,-0.9940643310546875,0.054779052734375,-0.1657257080078125
1772896117927967700,5.8259677734375,-0.98516845703125,0.05328369140625,-0.156280517578125
1772896117937936000,5.835935791015625,-0.979095458984375,0.0555572509765625,-0.1520843505859375
1772896117947904800,5.84590478515625,-0.9886627197265625,0.0579681396484375,-0.152374267578125
1772896117957873000,5.855872802734375,-1.0009307861328125,0.0562591552734375,-0.1502532958984375
1772896117967841000,5.865841064453125,-1.0001220703125,0.052154541015625,-0.1516571044921875
1772896117977810000,5.875809814453125,-0.9862213134765625,0.0509185791015625,-0.1543731689453125
1772896117987777800,5.88577783203125,-0.97930908203125,0.0511322021484375,-0.15594482421875
1772896117997745700,5.89574560546875,-0.9853973388671875,0.05438232421875,-0.1560821533203125
1772896118007714800,5.90571484375,-0.9876556396484375,0.0570220947265625,-0.150390625
1772896118017682700,5.9156826171875,-0.9871368408203125,0.056427001953125,-0.1519775390625
1772896118027650800,5.92565087890625,-0.9802093505859375,0.058349609375,-0.1540374755859375
1772896118037619700,5.93561962890625,-0.9751434326171875,0.057525634765625,-0.1566314697265625
1772896118047587800,5.945587890625,-0.9850006103515625,0.0595245361328125,-0.1622467041015625
1772896118057556000,5.955555908203125,-0.9925384521484375,0.0648956298828125,-0.1621551513671875
1772896118067524900,5.96552490234375,-0.99993896484375,0.062408447265625,-0.162384033203125
1772896118077492700,5.97549267578125,-0.9852752685546875,0.0584869384765625,-0.16143798828125
1772896118087460900,5.9854609375,-0.966522216796875,0.0539703369140625,-0.16033935546875
1772896118097429800,5.9954296875,-0.9622039794921875,0.051971435546875,-0.1594696044921875
1772896118107398000,6.00539794921875,-0.9687042236328125,0.052398681640625,-0.151702880859375
1772896118117362700,6.01536279296875,-0.9760894775390625,0.054107666015625,-0.1455841064453125
1772896118127331800,6.025331787109375,-0.98211669921875,0.05499267578125,-0.140960693359375
1772896118137299700,6.0352998046875,-0.9849090576171875,0.0532684326171875,-0.1400909423828125
1772896118147267800,6.045267822265625,-0.991363525390625,0.0528411865234375,-0.14056396484375
1772896118157236700,6.05523681640625,-0.9999542236328125,0.052764892578125,-0.138671875
1772896118167204900,6.065204833984375,-1.003875732421875,0.0517120361328125,-0.1445770263671875
1772896118177172700,6.0751728515625,-1.0091400146484375,0.0478973388671875,-0.1533203125
1772896118187141600,6.0851416015625,-0.9920654296875,0.0461578369140625,-0.155517578125
1772896118197109800,6.09510986328125,-0.968353271484375,0.046173095703125,-0.154144287109375
1772896118207077600,6.10507763671875,-0.9594268798828125,0.04998779296875,-0.1566009521484375
1772896118217046800,6.115046875,-0.962738037109375,0.052032470703125,-0.1573333740234375
1772896118227014700,6.1250146484375,-0.9675140380859375,0.0547637939453125,-0.1537628173828125
1772896118236982800,6.134982666015625,-0.9671630859375,0.057708740234375,-0.1481781005859375
1772896118246952000,6.144951904296875,-0.9768218994140625,0.0599212646484375,-0.14971923828125
1772896118256919800,6.154919921875,-0.983123779296875,0.0589141845703125,-0.151702880859375
1772896118266887700,6.1648876953125,-0.988006591796875,0.060272216796875,-0.153839111328125
1772896118276856600,6.174856689453125,-0.996917724609375,0.060791015625,-0.152557373046875
1772896118286824700,6.18482470703125,-0.9870758056640625,0.058807373046875,-0.15081787109375
1772896118296792800,6.194792724609375,-0.9798431396484375,0.0566253662109375,-0.1512298583984375
1772896118306761700,6.20476171875,-0.976409912109375,0.055572509765625,-0.153533935546875
1772896118316729900,6.214729736328125,-0.993072509765625,0.0565948486328125,-0.156005859375
1772896118326697700,6.22469775390625,-1.0034637451171875,0.0607147216796875,-0.15240478515625
1772896118336667000,6.2346669921875,-0.9967193603515625,0.064727783203125,-0.1496734619140625
1772896118346634800,6.244634765625,-0.9866180419921875,0.0637969970703125,-0.152557373046875
1772896118356602600,6.2546025390625,-0.975311279296875,0.0612640380859375,-0.1559295654296875
1772896118366571800,6.26457177734375,-0.9696197509765625,0.0607757568359375,-0.158966064453125
1772896118376539600,6.27453955078125,-0.972564697265625,0.0619354248046875,-0.1608123779296875
1772896118386507800,6.2845078125,-0.971527099609375,0.061279296875,-0.157379150390625
1772896118396476700,6.2944765625,-0.971343994140625,0.059295654296875,-0.1551055908203125
1772896118406444800,6.30444482421875,-0.9713592529296875,0.058380126953125,-0.1537628173828125
1772896118416413000,6.314412841796875,-0.9726104736328125,0.057586669921875,-0.1530914306640625
1772896118426381800,6.3243818359375,-0.982208251953125,0.060546875,-0.1503143310546875
1772896118436350000,6.334349853515625,-0.99169921875,0.06207275390625,-0.148468017578125
1772896118446317600,6.344317626953125,-0.9886016845703125,0.06146240234375,-0.1528167724609375
1772896118456286700,6.35428662109375,-0.983489990234375,0.0572509765625,-0.1529693603515625
1772896118466254600,6.364254638671875,-0.9799041748046875,0.0562896728515625,-0.154815673828125
1772896118476222700,6.37422265625,-0.9872283935546875,0.0550994873046875,-0.160125732421875
1772896118486191900,6.38419189453125,-0.99468994140625,0.0561676025390625,-0.1580657958984375
1772896118496159700,6.39415966796875,-0.9967193603515625,0.0596923828125,-0.15814208984375
1772896118506128000,6.4041279296875,-0.98480224609375,0.060546875,-0.1533660888671875
1772896118516096800,6.4140966796875,-0.9725341796875,0.06298828125,-0.151611328125
1772896118526065000,6.42406494140625,-0.969512939453125,0.06524658203125,-0.1551055908203125
1772896118536034800,6.434034912109375,-0.9730987548828125,0.063446044921875,-0.1584930419921875
1772896118546003700,6.444003662109375,-0.9814300537109375,0.0654449462890625,-0.165313720703125
1772896118555971800,6.453971923828125,-0.9813690185546875,0.0601959228515625,-0.1601715087890625
1772896118565939700,6.463939697265625,-0.9845428466796875,0.061126708984375,-0.1582489013671875
1772896118575908600,6.47390869140625,-0.9926300048828125,0.062957763671875,-0.1548004150390625
1772896118585876700,6.483876708984375,-0.99456787109375,0.06280517578125,-0.1465301513671875
1772896118595844900,6.493844970703125,-1.004669189453125,0.063323974609375,-0.1460723876953125
1772896118605813800,6.503813720703125,-1.011688232421875,0.0645904541015625,-0.1472625732421875
1772896118615782000,6.513781982421875,-1.0052642822265625,0.058197021484375,-0.1458282470703125
1772896118625749800,6.523749755859375,-0.9860992431640625,0.058319091796875,-0.1508941650390625
1772896118635719000,6.533718994140625,-0.973297119140625,0.0582733154296875,-0.1501312255859375
1772896118645686800,6.543686767578125,-0.9759368896484375,0.058868408203125,-0.149139404296875
1772896118655654700,6.553654541015625,-0.97967529296875,0.058380126953125,-0.149658203125
1772896118665623600,6.56362353515625,-0.9802703857421875,0.0577239990234375,-0.1480865478515625
1772896118675591700,6.573591796875,-0.9828033447265625,0.0593109130859375,-0.14739990234375
1772896118685559800,6.583559814453125,-0.9847259521484375,0.06103515625,-0.145416259765625
1772896118695528700,6.59352880859375,-0.98309326171875,0.0608673095703125,-0.1459197998046875
1772896118705496800,6.603496826171875,-0.988067626953125,0.0609588623046875,-0.151458740234375
1772896118715464700,6.613464599609375,-0.9845428466796875,0.060546875,-0.152191162109375
1772896118725433900,6.623433837890625,-0.9807281494140625,0.060333251953125,-0.1568145751953125
1772896118735402000,6.633402099609375,-0.9749603271484375,0.0615234375,-0.1589202880859375
1772896118745369600,6.64336962890625,-0.964111328125,0.0586700439453125,-0.1495361328125
1772896118755338800,6.6533388671875,-0.964813232421875,0.05755615234375,-0.14935302734375
1772896118765306600,6.663306640625,-0.969879150390625,0.059295654296875,-0.1449737548828125
1772896118775274800,6.673274658203125,-0.976226806640625,0.0619964599609375,-0.1361236572265625
1772896118785243600,6.68324365234375,-0.9960784912109375,0.0665435791015625,-0.1343841552734375
1772896118795211800,6.693211669921875,-0.9987945556640625,0.067962646484375,-0.134307861328125
1772896118805180000,6.703179931640625,-0.992919921875,0.06646728515625,-0.1380615234375
1772896118815148800,6.713148681640625,-0.9901275634765625,0.06536865234375,-0.1472320556640625
1772896118825117000,6.723116943359375,-0.9902801513671875,0.063323974609375,-0.150604248046875
1772896118835084800,6.733084716796875,-0.993255615234375,0.0630645751953125,-0.1539764404296875
1772896118845053700,6.7430537109375,-0.9859771728515625,0.063934326171875,-0.1552581787109375
1772896118855021800,6.753021728515625,-0.9755706787109375,0.0670166015625,-0.15203857421875
1772896118864989700,6.76298974609375,-0.979705810546875,0.0680389404296875,-0.1496734619140625
1772896118874958800,6.772958740234375,-0.987457275390625,0.0689697265625,-0.1524658203125
1772896118884926700,6.7829267578125,-0.987518310546875,0.0670318603515625,-0.1540679931640625
1772896118894894800,6.792894775390625,-0.982177734375,0.0620880126953125,-0.15447998046875
1772896118904863700,6.80286376953125,-0.978240966796875,0.0595855712890625,-0.1575164794921875
1772896118914831600,6.81283154296875,-0.981048583984375,0.0577850341796875,-0.1550140380859375
1772896118924799700,6.8227998046875,-0.983245849609375,0.055816650390625,-0.1501922607421875
1772896118934768600,6.8327685546875,-0.98486328125,0.058197021484375,-0.146636962890625
1772896118944736800,6.84273681640625,-0.9804534912109375,0.057281494140625,-0.140228271484375
1772896118954704600,6.85270458984375,-0.97967529296875,0.0588226318359375,-0.13861083984375
1772896118964673800,6.862673828125,-0.981292724609375,0.0603485107421875,-0.140350341796875
1772896118974642000,6.872641845703125,-0.98101806640625,0.0599822998046875,-0.1451263427734375
1772896118984609800,6.88260986328125,-0.984375,0.0605010986328125,-0.152252197265625
1772896118994579000,6.892578857421875,-0.98577880859375,0.06134033203125,-0.1605987548828125
1772896119004546600,6.902546630859375,-0.9806365966796875,0.062591552734375,-0.15692138671875
1772896119014514700,6.9125146484375,-0.9835205078125,0.06756591796875,-0.1556396484375
1772896119024483600,6.922483642578125,-0.9844818115234375,0.070648193359375,-0.15582275390625
1772896119034451700,6.93245166015625,-0.9795989990234375,0.0694732666015625,-0.1553955078125
1772896119044419800,6.942419921875,-0.9747772216796875,0.0710601806640625,-0.1561126708984375
1772896119054388700,6.952388671875,-0.9742889404296875,0.072357177734375,-0.157989501953125
1772896119064356900,6.96235693359375,-0.97418212890625,0.0746307373046875,-0.1549835205078125
1772896119074324700,6.97232470703125,-0.9823150634765625,0.0764923095703125,-0.1556396484375
1772896119084294000,6.9822939453125,-0.9929351806640625,0.076934814453125,-0.158294677734375
1772896119094261800,6.99226171875,-0.99267578125,0.072113037109375,-0.159759521484375
1772896119104229600,7.002229736328125,-0.985931396484375,0.06658935546875,-0.1647491455078125
1772896119114198800,7.01219873046875,-0.9758453369140625,0.0635986328125,-0.1668243408203125
1772896119124166700,7.022166748046875,-0.967742919921875,0.0633544921875,-0.160919189453125
1772896119134134800,7.032134765625,-0.974822998046875,0.066375732421875,-0.1583099365234375
1772896119144103700,7.042103759765625,-0.9817657470703125,0.0686798095703125,-0.155731201171875
1772896119154071800,7.05207177734375,-0.9818267822265625,0.06402587890625,-0.1534423828125
1772896119164040000,7.0620400390625,-0.9749908447265625,0.059722900390625,-0.1573028564453125
1772896119174008300,7.07200830078125,-0.968994140625,0.056182861328125,-0.1512908935546875
1772896119183976400,7.0819765625,-0.971282958984375,0.0541229248046875,-0.1448822021484375
1772896119193945300,7.0919453125,-0.97991943359375,0.0545654296875,-0.142425537109375
1772896119203913500,7.10191357421875,-0.989501953125,0.0527191162109375,-0.1395416259765625
1772896119213881600,7.111881591796875,-0.9947052001953125,0.051177978515625,-0.1401214599609375
1772896119223850500,7.1218505859375,-0.9992218017578125,0.0482025146484375,-0.146514892578125
1772896119233818600,7.131818603515625,-0.99627685546875,0.0467529296875,-0.152801513671875
1772896119243786200,7.1417861328125,-0.99530029296875,0.0490875244140625,-0.156097412109375
1772896119253755400,7.15175537109375,-0.9965667724609375,0.054779052734375,-0.1602783203125
1772896119263723300,7.16172314453125,-0.9790496826171875,0.0589599609375,-0.1591949462890625
1772896119273691400,7.17169140625,-0.961944580078125,0.05731201171875,-0.1585845947265625
1772896119283660300,7.181660400390625,-0.9682159423828125,0.0584869384765625,-0.163482666015625
1772896119293628400,7.19162841796875,-0.9702911376953125,0.0622100830078125,-0.1641998291015625
1772896119303596500,7.201596435546875,-0.968292236328125,0.060791015625,-0.1631927490234375
1772896119313565400,7.2115654296875,-0.96160888671875,0.0629119873046875,-0.160400390625
1772896119323533600,7.221533447265625,-0.97314453125,0.0659332275390625,-0.158416748046875
1772896119333501400,7.23150146484375,-0.9899749755859375,0.06622314453125,-0.158966064453125
1772896119343470300,7.24147021484375,-0.9972686767578125,0.062957763671875,-0.15765380859375
1772896119353438500,7.2514384765625,-0.9910888671875,0.0615386962890625,-0.1566619873046875
1772896119363406300,7.26140625,-0.9859619140625,0.063079833984375,-0.152618408203125
1772896119373375500,7.27137548828125,-0.988922119140625,0.056427001953125,-0.1556549072265625
1772896119383343400,7.28134326171875,-0.9918212890625,0.055755615234375,-0.1609039306640625
1772896119393311500,7.2913115234375,-0.9850921630859375,0.053985595703125,-0.15789794921875
1772896119403280400,7.3012802734375,-0.983856201171875,0.0577392578125,-0.154022216796875
1772896119413248500,7.31124853515625,-0.989593505859375,0.0609893798828125,-0.1498870849609375
1772896119423216400,7.32121630859375,-0.9866790771484375,0.0605621337890625,-0.1538543701171875
1772896119433185300,7.331185302734375,-0.9803466796875,0.05816650390625,-0.1587066650390625
1772896119443153400,7.3411533203125,-0.9722137451171875,0.0576171875,-0.155487060546875
1772896119453121500,7.35112158203125,-0.9661712646484375,0.058624267578125,-0.154815673828125
1772896119463090400,7.36109033203125,-0.9667510986328125,0.0587921142578125,-0.154083251953125
1772896119473058600,7.37105859375,-0.980194091796875,0.0611419677734375,-0.1522064208984375
1772896119483026400,7.3810263671875,-0.9893035888671875,0.06396484375,-0.15228271484375
1772896119492995600,7.39099560546875,-0.9809112548828125,0.063262939453125,-0.1497955322265625
1772896119502963200,7.400963134765625,-0.9766693115234375,0.06048583984375,-0.148406982421875
1772896119512931300,7.410931396484375,-0.9837188720703125,0.0629119873046875,-0.1542205810546875
1772896119522900200,7.420900146484375,-0.9892425537109375,0.0634918212890625,-0.151641845703125
1772896119532868400,7.430868408203125,-0.9965972900390625,0.0637359619140625,-0.1539459228515625
1772896119542836500,7.44083642578125,-0.9902801513671875,0.0626220703125,-0.1537933349609375
1772896119552805400,7.450805419921875,-0.97479248046875,0.062744140625,-0.148681640625
1772896119562773500,7.4607734375,-0.9770660400390625,0.064178466796875,-0.150115966796875
1772896119572741600,7.47074169921875,-0.9911346435546875,0.0634765625,-0.1511077880859375
1772896119582710500,7.48071044921875,-1.000152587890625,0.064239501953125,-0.148956298828125
1772896119592678400,7.490678466796875,-0.9948883056640625,0.0647735595703125,-0.1469879150390625
1772896119602646300,7.500646240234375,-0.981689453125,0.0633544921875,-0.1437530517578125
1772896119612615400,7.510615478515625,-0.9765472412109375,0.0643768310546875,-0.14190673828125
1772896119622583300,7.520583251953125,-0.97845458984375,0.0638580322265625,-0.14276123046875
1772896119632551400,7.530551513671875,-0.9907684326171875,0.0634918212890625,-0.150299072265625
1772896119642520300,7.540520263671875,-0.99005126953125,0.06231689453125,-0.157440185546875
1772896119652488400,7.550488525390625,-0.973876953125,0.0608673095703125,-0.157867431640625
1772896119662456600,7.56045654296875,-0.963531494140625,0.0599212646484375,-0.1543121337890625
1772896119672425500,7.570425537109375,-0.964111328125,0.061614990234375,-0.14434814453125
1772896119682393300,7.580393310546875,-0.987060546875,0.0689239501953125,-0.1474151611328125
1772896119692361500,7.590361572265625,-1.0084991455078125,0.067047119140625,-0.146148681640625
1772896119702330400,7.600330322265625,-1.00177001953125,0.06781005859375,-0.14617919921875
1772896119712298500,7.610298583984375,-0.9777069091796875,0.06793212890625,-0.1461029052734375
1772896119722266400,7.620266357421875,-0.963958740234375,0.0661468505859375,-0.1466064453125
1772896119732235500,7.630235595703125,-0.96038818359375,0.063934326171875,-0.1443328857421875
1772896119742203400,7.640203369140625,-0.9770355224609375,0.063720703125,-0.1451873779296875
1772896119752171500,7.650171630859375,-1.0004730224609375,0.062103271484375,-0.14422607421875
1772896119762140400,7.660140380859375,-1.002349853515625,0.061676025390625,-0.144439697265625
1772896119772108300,7.6701083984375,-0.9936370849609375,0.0598297119140625,-0.1457977294921875
1772896119782076400,7.680076416015625,-0.993133544921875,0.06207275390625,-0.1446990966796875
1772896119792045300,7.69004541015625,-0.9955902099609375,0.0647430419921875,-0.1455078125
1772896119802013400,7.700013427734375,-0.9939727783203125,0.068084716796875,-0.14593505859375
1772896119811981300,7.709981201171875,-0.9911041259765625,0.0662384033203125,-0.147552490234375
1772896119821950500,7.719950439453125,-0.977020263671875,0.0667724609375,-0.1545562744140625
1772896119831918600,7.729918701171875,-0.964447021484375,0.0670623779296875,-0.1536865234375
1772896119841886500,7.739886474609375,-0.9597625732421875,0.0697479248046875,-0.15032958984375
1772896119851855600,7.749855712890625,-0.9655609130859375,0.071502685546875,-0.1478271484375
1772896119861823200,7.7598232421875,-0.977264404296875,0.073028564453125,-0.144012451171875
1772896119871791400,7.769791259765625,-0.988311767578125,0.0712890625,-0.146759033203125
1772896119881760300,7.77976025390625,-0.988372802734375,0.0683135986328125,-0.1512603759765625
1772896119891728400,7.789728271484375,-0.9821014404296875,0.0666656494140625,-0.1527557373046875
1772896119901696500,7.799696533203125,-0.97735595703125,0.0677642822265625,-0.151031494140625
1772896119911665400,7.80966552734375,-0.987030029296875,0.0692901611328125,-0.1495208740234375
1772896119921633500,7.819633544921875,-0.9969329833984375,0.0676116943359375,-0.1483612060546875
1772896119931601400,7.829601318359375,-0.989837646484375,0.0687408447265625,-0.147125244140625
1772896119941570600,7.839570556640625,-0.9862213134765625,0.06793212890625,-0.1451263427734375
1772896119951538400,7.849538330078125,-0.986541748046875,0.068939208984375,-0.145782470703125
1772896119961506300,7.85950634765625,-0.990631103515625,0.0706787109375,-0.1493988037109375
1772896119971475500,7.869475341796875,-0.9939727783203125,0.07080078125,-0.15264892578125
1772896119981443300,7.879443359375,-0.9906005859375,0.0718841552734375,-0.156036376953125
1772896119991411500,7.889411376953125,-0.9845123291015625,0.0731201171875,-0.160308837890625
1772896120001380400,7.89938037109375,-0.9723968505859375,0.0715484619140625,-0.16064453125
1772896120011348500,7.909348388671875,-0.97412109375,0.0701141357421875,-0.1633148193359375
1772896120021316600,7.919316650390625,-0.9721221923828125,0.0679931640625,-0.1632537841796875
1772896120031285500,7.929285400390625,-0.9671478271484375,0.0668792724609375,-0.1593017578125
1772896120041253400,7.93925341796875,-0.9743804931640625,0.067291259765625,-0.155029296875
1772896120051221200,7.94922119140625,-0.9811248779296875,0.069000244140625,-0.1518707275390625
1772896120061190400,7.9591904296875,-0.9830780029296875,0.067108154296875,-0.1481781005859375
1772896120071158500,7.969158447265625,-0.9903564453125,0.06591796875,-0.14727783203125
1772896120081126400,7.97912646484375,-0.9929046630859375,0.066619873046875,-0.1477203369140625
1772896120091095600,7.989095458984375,-0.9840087890625,0.0678253173828125,-0.1476593017578125
1772896120101063400,7.9990634765625,-0.9794921875,0.0676116943359375,-0.1521453857421875
1772896120111031600,8.009031494140626,-0.9821319580078125,0.0698699951171875,-0.1585845947265625
1772896120121000400,8.01900048828125,-0.9805908203125,0.0715484619140625,-0.16168212890625
1772896120130968300,8.02896826171875,-0.981658935546875,0.0730438232421875,-0.1634521484375
1772896120140936400,8.0389365234375,-0.9870758056640625,0.0731048583984375,-0.16552734375
1772896120150905300,8.0489052734375,-0.983001708984375,0.0717620849609375,-0.167755126953125
1772896120160873500,8.05887353515625,-0.9748687744140625,0.0719757080078125,-0.165252685546875
1772896120170841300,8.06884130859375,-0.9760284423828125,0.072174072265625,-0.1649322509765625
1772896120180810200,8.078810302734375,-0.9781646728515625,0.071868896484375,-0.1628265380859375
1772896120190778400,8.0887783203125,-0.9730224609375,0.07049560546875,-0.1578521728515625
1772896120200746000,8.09874609375,-0.969024658203125,0.0684051513671875,-0.154327392578125
1772896120210715100,8.108715087890625,-0.971710205078125,0.064727783203125,-0.1474609375
1772896120220683000,8.11868310546875,-0.986114501953125,0.06903076171875,-0.1577301025390625
1772896120230651100,8.128651123046875,-0.995513916015625,0.0640106201171875,-0.152130126953125
1772896120240620000,8.1386201171875,-0.997894287109375,0.0621337890625,-0.150848388671875
1772896120250588200,8.148588134765625,-0.9812164306640625,0.062042236328125,-0.1509246826171875
1772896120260556300,8.158556396484375,-0.9684295654296875,0.05828857421875,-0.1429595947265625
1772896120270525200,8.168525146484376,-0.97210693359375,0.059356689453125,-0.143829345703125
1772896120280493300,8.178493408203124,-0.9879608154296875,0.0604095458984375,-0.14849853515625
1772896120290461200,8.188461181640625,-0.9953765869140625,0.0615386962890625,-0.1516571044921875
1772896120300430000,8.19843017578125,-0.99981689453125,0.062957763671875,-0.1577911376953125
1772896120310398200,8.208398193359375,-0.9995269775390625,0.0618133544921875,-0.1610107421875
1772896120320366000,8.218365966796876,-0.9864654541015625,0.0654296875,-0.163177490234375
1772896120330335200,8.228335205078125,-0.979156494140625,0.0684814453125,-0.1633453369140625
1772896120340303000,8.23830322265625,-0.9744110107421875,0.0682830810546875,-0.162841796875
1772896120350271200,8.248271240234375,-0.961090087890625,0.0684051513671875,-0.161651611328125
1772896120360240000,8.258240234375,-0.9585113525390625,0.069580078125,-0.1565093994140625
1772896120370208300,8.268208251953125,-0.97052001953125,0.0702362060546875,-0.1551971435546875
1772896120380176100,8.278176025390625,-0.9727325439453125,0.0676422119140625,-0.152252197265625
1772896120390145000,8.28814501953125,-0.975921630859375,0.068145751953125,-0.1529388427734375
1772896120400113200,8.298113037109376,-0.980621337890625,0.068450927734375,-0.15283203125
1772896120410081000,8.3080810546875,-0.982879638671875,0.066009521484375,-0.1528167724609375
1772896120420050200,8.31805029296875,-0.9874420166015625,0.06549072265625,-0.155029296875
1772896120430018300,8.328018310546875,-0.9894866943359375,0.066680908203125,-0.15533447265625
1772896120439986200,8.337986083984376,-0.99188232421875,0.06707763671875,-0.152496337890625
1772896120449955300,8.347955322265625,-0.9929351806640625,0.0674591064453125,-0.1519012451171875
1772896120459923200,8.357923095703125,-0.990081787109375,0.0663299560546875,-0.154693603515625
1772896120469891000,8.36789111328125,-0.983795166015625,0.066253662109375,-0.1547698974609375
1772896120479860000,8.37785986328125,-0.97662353515625,0.0665283203125,-0.156097412109375
1772896120489828000,8.387828125,-0.980621337890625,0.066436767578125,-0.15716552734375
1772896120499796200,8.397796142578125,-0.9901885986328125,0.0638427734375,-0.1557159423828125
1772896120509765000,8.40776513671875,-0.9938507080078125,0.062530517578125,-0.1554107666015625
1772896120519733200,8.417733154296876,-0.9843902587890625,0.06134033203125,-0.15411376953125
1772896120529701000,8.427701171875,-0.973419189453125,0.0647430419921875,-0.1523284912109375
1772896120539670300,8.437670166015625,-0.976318359375,0.0695648193359375,-0.14935302734375
1772896120549638100,8.44763818359375,-0.9892578125,0.0742950439453125,-0.15081787109375
1772896120559606000,8.45760595703125,-0.98126220703125,0.0733642578125,-0.147979736328125
1772896120569575200,8.4675751953125,-0.9656219482421875,0.0684356689453125,-0.1534271240234375
1772896120579543000,8.47754296875,-0.963348388671875,0.065399169921875,-0.160614013671875
1772896120589511200,8.48751123046875,-0.9727325439453125,0.06427001953125,-0.1628265380859375
1772896120599480000,8.49747998046875,-0.9840087890625,0.065582275390625,-0.164398193359375
1772896120609448200,8.5074482421875,-0.98858642578125,0.0678863525390625,-0.16070556640625
1772896120619416300,8.517416259765625,-0.97979736328125,0.0678863525390625,-0.152099609375
1772896120629385200,8.52738525390625,-0.978546142578125,0.0706329345703125,-0.149261474609375
1772896120639353300,8.537353271484376,-0.992828369140625,0.0718841552734375,-0.154022216796875
1772896120649321000,8.547321044921874,-0.995819091796875,0.07318115234375,-0.1540679931640625
1772896120659290000,8.5572900390625,-0.9823150634765625,0.0718841552734375,-0.1521453857421875
1772896120669258200,8.56725830078125,-0.9756927490234375,0.0685882568359375,-0.158599853515625
1772896120679226000,8.57722607421875,-0.978790283203125,0.068389892578125,-0.1590576171875
1772896120689195300,8.5871953125,-0.976654052734375,0.0680084228515625,-0.1611480712890625
1772896120699163100,8.5971630859375,-0.97857666015625,0.065155029296875,-0.16009521484375
1772896120709131300,8.60713134765625,-0.98291015625,0.0673065185546875,-0.1570587158203125
1772896120719100200,8.61710009765625,-0.986419677734375,0.0696258544921875,-0.1573944091796875
1772896120729068300,8.627068359375,-0.9850006103515625,0.0724029541015625,-0.1576995849609375
1772896120739036200,8.6370361328125,-0.9806365966796875,0.0747833251953125,-0.157012939453125
1772896120749005000,8.647005126953125,-0.975341796875,0.074493408203125,-0.15655517578125
1772896120758973200,8.65697314453125,-0.9781646728515625,0.075927734375,-0.1649627685546875
1772896120768941000,8.666941162109374,-0.9824981689453125,0.07415771484375,-0.1678924560546875
1772896120778910200,8.67691015625,-0.99066162109375,0.0695343017578125,-0.1640167236328125
1772896120788878000,8.686878173828125,-0.97857666015625,0.0688018798828125,-0.1636199951171875
1772896120798846200,8.69684619140625,-0.9691925048828125,0.0667724609375,-0.161865234375
1772896120808815400,8.7068154296875,-0.968963623046875,0.065216064453125,-0.1540374755859375
1772896120818783200,8.716783203125,-0.9821624755859375,0.0642852783203125,-0.1533355712890625
1772896120828751000,8.726751220703125,-0.9932403564453125,0.0624542236328125,-0.1517791748046875
1772896120838720000,8.736719970703126,-0.9927825927734375,0.057861328125,-0.1532745361328125
1772896120848688000,8.746688232421874,-0.9928131103515625,0.0548553466796875,-0.156005859375
1772896120858657000,8.756656982421875,-0.99517822265625,0.0550689697265625,-0.15716552734375
1772896120868625200,8.766625244140625,-0.988800048828125,0.057464599609375,-0.1546478271484375
1772896120878593300,8.77659326171875,-0.977630615234375,0.0592193603515625,-0.15447998046875
1772896120888562200,8.786562255859375,-0.969024658203125,0.057220458984375,-0.1523895263671875
1772896120898530300,8.7965302734375,-0.97119140625,0.0560150146484375,-0.15673828125
1772896120908498200,8.806498291015625,-0.9714508056640625,0.0570068359375,-0.1560211181640625
1772896120918467300,8.81646728515625,-0.973236083984375,0.0613861083984375,-0.1523284912109375
1772896120928435200,8.826435302734374,-0.97357177734375,0.0673370361328125,-0.152191162109375
1772896120938403000,8.836403076171875,-0.9789581298828125,0.06390380859375,-0.15264892578125
1772896120948372200,8.846372314453125,-0.979583740234375,0.0693817138671875,-0.1612396240234375
1772896120958340000,8.856340087890626,-0.978759765625,0.0702667236328125,-0.1634063720703125
1772896120968308200,8.86630810546875,-0.9892578125,0.0711517333984375,-0.16290283203125
1772896120978277000,8.876277099609375,-0.99224853515625,0.0732269287109375,-0.1624908447265625
1772896120988245200,8.886245361328125,-0.9902801513671875,0.072479248046875,-0.1641082763671875
1772896120998213000,8.896213134765626,-0.9902191162109375,0.0731201171875,-0.165069580078125
1772896121008182300,8.906182373046875,-0.9844512939453125,0.0741119384765625,-0.1650390625
1772896121018150100,8.916150146484375,-0.979248046875,0.0729827880859375,-0.1654205322265625
1772896121028118000,8.926117919921875,-0.97796630859375,0.072967529296875,-0.1656951904296875
1772896121038087200,8.936087158203126,-0.977691650390625,0.0727081298828125,-0.163818359375
1772896121048055300,8.94605517578125,-0.97894287109375,0.0709991455078125,-0.160614013671875
1772896121058023200,8.956023193359375,-0.9837188720703125,0.06732177734375,-0.1603546142578125
1772896121067992300,8.965992431640625,-0.98223876953125,0.0648193359375,-0.158782958984375
1772896121077960200,8.975960205078126,-0.9794158935546875,0.066375732421875,-0.15411376953125
1772896121087928000,8.985927978515624,-0.9848175048828125,0.06707763671875,-0.150543212890625
1772896121097897000,8.99589697265625,-0.9847564697265625,0.067657470703125,-0.1519622802734375
1772896121107865000,9.005864990234375,-0.987548828125,0.0682220458984375,-0.1546173095703125
1772896121117833200,9.015833251953126,-0.981964111328125,0.067962646484375,-0.1538543701171875
1772896121127802000,9.025802001953124,-0.973846435546875,0.067474365234375,-0.1555328369140625
1772896121137770200,9.035770263671875,-0.9764862060546875,0.06573486328125,-0.1592559814453125
1772896121147738000,9.045738037109375,-0.982330322265625,0.0669097900390625,-0.1609649658203125
1772896121157707300,9.055707275390626,-0.9774017333984375,0.0678253173828125,-0.1575775146484375
1772896121167675100,9.065675048828124,-0.9715728759765625,0.0684051513671875,-0.1559906005859375
1772896121177643500,9.0756435546875,-0.97869873046875,0.0704498291015625,-0.155181884765625
1772896121187612400,9.0856123046875,-0.9853973388671875,0.0722808837890625,-0.1531219482421875
1772896121197580500,9.09558056640625,-0.989349365234375,0.075439453125,-0.153350830078125
1772896121207548700,9.105548583984374,-0.9883575439453125,0.074005126953125,-0.1557769775390625
1772896121217517600,9.115517578125,-0.9886016845703125,0.07269287109375,-0.1652374267578125
1772896121227485400,9.1254853515625,-0.9886016845703125,0.0717010498046875,-0.16656494140625
1772896121237453600,9.13545361328125,-0.9843902587890625,0.0744171142578125,-0.164825439453125
1772896121247422500,9.14542236328125,-0.97772216796875,0.0736541748046875,-0.1638641357421875
1772896121257390600,9.155390625,-0.9661712646484375,0.071319580078125,-0.16583251953125
1772896121267358500,9.1653583984375,-0.9678192138671875,0.07318115234375,-0.1688079833984375
1772896121277327600,9.17532763671875,-0.9829559326171875,0.0758819580078125,-0.1660919189453125
1772896121287295500,9.18529541015625,-0.9872589111328125,0.0770263671875,-0.1628265380859375
1772896121297263600,9.195263671875,-0.9850616455078125,0.076690673828125,-0.1650848388671875
1772896121307232500,9.205232421875,-0.9797821044921875,0.072784423828125,-0.167694091796875
1772896121317200400,9.215200439453126,-0.9779815673828125,0.072265625,-0.1696014404296875
1772896121327168500,9.22516845703125,-0.980743408203125,0.070159912109375,-0.1678466796875
1772896121337137400,9.235137451171875,-0.97064208984375,0.0692596435546875,-0.15985107421875
1772896121347105500,9.24510546875,-0.970550537109375,0.0686187744140625,-0.1555633544921875
1772896121357073700,9.25507373046875,-0.9781036376953125,0.0684814453125,-0.1554107666015625
1772896121367042600,9.26504248046875,-0.993988037109375,0.068939208984375,-0.15484619140625
1772896121377010700,9.2750107421875,-1.0125885009765625,0.070648193359375,-0.1604156494140625
1772896121386978300,9.284978271484375,-1.004058837890625,0.0728759765625,-0.162750244140625
1772896121396947700,9.29494775390625,-0.977874755859375,0.0681610107421875,-0.1643829345703125
1772896121406915300,9.304915283203124,-0.9685516357421875,0.0669097900390625,-0.1684112548828125
1772896121416883500,9.314883544921875,-0.960845947265625,0.065673828125,-0.168304443359375
1772896121426852400,9.324852294921875,-0.95550537109375,0.066680908203125,-0.1670379638671875
1772896121436820500,9.334820556640626,-0.9718170166015625,0.0684661865234375,-0.165740966796875
1772896121446788600,9.34478857421875,-0.978546142578125,0.069854736328125,-0.1600799560546875
1772896121456757500,9.354757568359375,-0.964508056640625,0.069732666015625,-0.151397705078125
1772896121466725600,9.3647255859375,-0.9697723388671875,0.07037353515625,-0.1503448486328125
1772896121476693500,9.374693603515626,-0.980560302734375,0.07110595703125,-0.153778076171875
1772896121486662400,9.384662353515624,-0.9843292236328125,0.072174072265625,-0.1570587158203125
1772896121496630500,9.394630615234375,-0.9927825927734375,0.07421875,-0.164794921875
1772896121506598400,9.404598388671875,-0.9904632568359375,0.0720672607421875,-0.164642333984375
1772896121516567600,9.414567626953126,-0.9820098876953125,0.071319580078125,-0.16668701171875
1772896121526535400,9.424535400390624,-0.9747772216796875,0.06915283203125,-0.166168212890625
1772896121536503600,9.434503662109375,-0.9736328125,0.0693511962890625,-0.1619873046875
1772896121546472400,9.444472412109375,-0.977783203125,0.0725250244140625,-0.1593780517578125
1772896121556440600,9.454440673828126,-0.9852294921875,0.0733184814453125,-0.1565093994140625
1772896121566408400,9.464408447265624,-0.9908294677734375,0.0716094970703125,-0.1562957763671875
1772896121576377300,9.47437744140625,-0.985870361328125,0.06939697265625,-0.1591949462890625
1772896121586345500,9.484345458984375,-0.9856719970703125,0.068572998046875,-0.1613922119140625
1772896121596313600,9.494313720703126,-0.9848175048828125,0.068115234375,-0.1592864990234375
1772896121606282500,9.504282470703124,-0.9783172607421875,0.06689453125,-0.1583251953125
1772896121616250600,9.514250732421875,-0.9764862060546875,0.064483642578125,-0.156829833984375
1772896121626218500,9.524218505859375,-0.981292724609375,0.0642547607421875,-0.1563568115234375
1772896121636187600,9.534187744140626,-0.98236083984375,0.063934326171875,-0.1557159423828125
1772896121646155500,9.544155517578124,-0.9801788330078125,0.0631103515625,-0.156646728515625
1772896121656123400,9.554123291015625,-0.9748992919921875,0.06549072265625,-0.1564483642578125
1772896121666092300,9.56409228515625,-0.976531982421875,0.0669403076171875,-0.1563262939453125
1772896121676060400,9.574060302734376,-0.9820709228515625,0.0698394775390625,-0.156494140625
1772896121686028500,9.584028564453124,-0.9846343994140625,0.0708465576171875,-0.154876708984375
1772896121695997400,9.59399755859375,-0.9896087646484375,0.0699615478515625,-0.155517578125
1772896121705965600,9.603965576171875,-0.98760986328125,0.0704345703125,-0.1565704345703125
1772896121715933400,9.613933349609376,-0.982330322265625,0.07147216796875,-0.1580810546875
1772896121725902600,9.623902587890624,-0.9789581298828125,0.0718231201171875,-0.1587066650390625
1772896121735870700,9.63387060546875,-0.9822845458984375,0.0705718994140625,-0.161468505859375
1772896121745838300,9.64383837890625,-0.9864501953125,0.07061767578125,-0.1633148193359375
1772896121755807500,9.653807373046876,-0.9852752685546875,0.071807861328125,-0.162628173828125
1772896121765775400,9.663775390625,-0.9783477783203125,0.07257080078125,-0.158538818359375
1772896121775743500,9.673743408203125,-0.9733428955078125,0.07318115234375,-0.1605987548828125
1772896121785712400,9.68371240234375,-0.9805908203125,0.071441650390625,-0.161346435546875
1772896121795680500,9.693680419921876,-0.975799560546875,0.0717620849609375,-0.1600799560546875
1772896121805648600,9.703648681640624,-0.9730377197265625,0.07110595703125,-0.1583404541015625
1772896121815617500,9.713617431640625,-0.9816131591796875,0.0707855224609375,-0.1595306396484375
1772896121825585700,9.723585693359375,-0.9904022216796875,0.0695343017578125,-0.1592864990234375
1772896121835553300,9.73355322265625,-0.9958343505859375,0.0701904296875,-0.1544647216796875
1772896121845522400,9.7435224609375,-0.9902801513671875,0.0703582763671875,-0.15081787109375
1772896121855490600,9.753490478515625,-0.9770050048828125,0.068206787109375,-0.1524505615234375
1772896121865459500,9.76345947265625,-0.9646759033203125,0.066375732421875,-0.1558837890625
1772896121875427600,9.773427490234376,-0.9644622802734375,0.0643768310546875,-0.1544036865234375
1772896121885395500,9.7833955078125,-0.9773406982421875,0.0668792724609375,-0.155792236328125
1772896121895363600,9.793363525390625,-0.9902801513671875,0.0674285888671875,-0.1566162109375
1772896121905332500,9.80333251953125,-0.9923248291015625,0.0673065185546875,-0.1601715087890625
1772896121915300600,9.813300537109376,-0.9934234619140625,0.068359375,-0.1587677001953125
1772896121925269500,9.82326953125,-1.001190185546875,0.07257080078125,-0.1590728759765625
1772896121935237400,9.8332373046875,-0.9974365234375,0.0740814208984375,-0.160797119140625
1772896121945205500,9.84320556640625,-0.9797821044921875,0.068267822265625,-0.1584625244140625
1772896121955174400,9.85317431640625,-0.970916748046875,0.0667724609375,-0.1617889404296875
1772896121965142500,9.863142578125,-0.96197509765625,0.0667724609375,-0.1616058349609375
1772896121975110700,9.873110595703125,-0.9551849365234375,0.0649261474609375,-0.1602325439453125
1772896121985079600,9.88307958984375,-0.958404541015625,0.0663604736328125,-0.1591033935546875
1772896121995047700,9.893047607421876,-0.96759033203125,0.0684051513671875,-0.1558074951171875
1772896122005015600,9.903015625,-0.9705352783203125,0.0699920654296875,-0.152984619140625
1772896122014984700,9.912984619140625,-0.974212646484375,0.0684356689453125,-0.1527557373046875
1772896122024952300,9.922952392578125,-0.98748779296875,0.0648345947265625,-0.158233642578125
1772896122034920400,9.93292041015625,-1.0000457763671875,0.0645904541015625,-0.1607818603515625
1772896122044889300,9.942889404296874,-1.0023040771484375,0.06524658203125,-0.155517578125
1772896122054857500,9.952857421875,-0.992340087890625,0.0680694580078125,-0.1528778076171875
1772896122064825600,9.96282568359375,-0.98394775390625,0.0678253173828125,-0.153839111328125
1772896122074794500,9.97279443359375,-0.9847869873046875,0.0687103271484375,-0.1558990478515625
1772896122084762600,9.9827626953125,-0.986480712890625,0.06939697265625,-0.1573638916015625
1772896122094730500,9.99273046875,-0.982757568359375,0.0692138671875,-0.15936279296875
1772896122104699600,10.00269970703125,-0.984344482421875,0.0681610107421875,-0.164825439453125
1772896122114665500,10.01266552734375,-0.9855499267578125,0.0654754638671875,-0.1686248779296875
1772896122124633600,10.022633544921876,-0.982269287109375,0.0646209716796875,-0.1699676513671875
1772896122134602500,10.0326025390625,-0.973846435546875,0.067535400390625,-0.1638336181640625
1772896122144570600,10.042570556640625,-0.971710205078125,0.067474365234375,-0.15740966796875
1772896122154538500,10.05253857421875,-0.9754486083984375,0.06573486328125,-0.156158447265625
1772896122164506400,10.06250634765625,-0.9826812744140625,0.0620880126953125,-0.1536865234375
1772896122174475500,10.0724755859375,-0.985504150390625,0.0592498779296875,-0.150054931640625
1772896122184443000,10.08244287109375,-0.9828033447265625,0.0559844970703125,-0.1519622802734375
1772896122194410800,10.09241064453125,-0.9770660400390625,0.0574798583984375,-0.1536102294921875
1772896122204380000,10.1023798828125,-0.9732513427734375,0.058013916015625,-0.1528472900390625
1772896122214347800,10.11234765625,-0.9808197021484375,0.0591583251953125,-0.154541015625
1772896122224317000,10.12231689453125,-0.986907958984375,0.063751220703125,-0.1579437255859375
1772896122234284800,10.132284912109375,-0.98126220703125,0.0659332275390625,-0.1547393798828125
1772896122244253000,10.1422529296875,-0.974365234375,0.0670318603515625,-0.156646728515625
1772896122254221800,10.152221923828124,-0.9820556640625,0.0652008056640625,-0.160919189453125
1772896122264190000,10.16218994140625,-0.9850921630859375,0.062652587890625,-0.16314697265625
1772896122274157800,10.17215771484375,-0.9861297607421875,0.0627288818359375,-0.16357421875
1772896122284127000,10.182126953125,-0.9810943603515625,0.0643157958984375,-0.16534423828125
1772896122294094800,10.1920947265625,-0.9696807861328125,0.064422607421875,-0.15869140625
1772896122304062700,10.202062744140624,-0.970123291015625,0.065643310546875,-0.1577911376953125
1772896122314031900,10.212031982421875,-0.9790802001953125,0.0657958984375,-0.158172607421875
1772896122324000000,10.222,-0.986663818359375,0.063690185546875,-0.156219482421875
1772896122333968000,10.2319677734375,-0.9894256591796875,0.0613861083984375,-0.1565093994140625
1772896122343937000,10.24193701171875,-0.984588623046875,0.0608367919921875,-0.1553955078125
1772896122353905000,10.25190478515625,-0.9820556640625,0.0611114501953125,-0.152008056640625
1772896122363872800,10.261872802734375,-0.9848175048828125,0.06353759765625,-0.14886474609375
1772896122373841700,10.271841552734376,-0.982147216796875,0.0672760009765625,-0.146026611328125
1772896122383809800,10.281809814453124,-0.9826202392578125,0.0674591064453125,-0.147003173828125
1772896122393778000,10.29177783203125,-0.9851531982421875,0.065185546875,-0.1526336669921875
1772896122403746800,10.301746826171875,-0.98211669921875,0.0646820068359375,-0.1593017578125
1772896122413715000,10.31171484375,-0.9822998046875,0.064239501953125,-0.1628265380859375
1772896122423682800,10.321682861328124,-0.99072265625,0.06414794921875,-0.15838623046875
1772896122433652000,10.33165185546875,-0.992767333984375,0.068878173828125,-0.1562957763671875
1772896122443619800,10.341619873046875,-0.9927520751953125,0.0683746337890625,-0.1522674560546875
1772896122453587700,10.351587646484376,-0.9887237548828125,0.0678863525390625,-0.156402587890625
1772896122463556900,10.361556884765625,-0.9894256591796875,0.06646728515625,-0.1590728759765625
1772896122473524700,10.371524658203125,-0.9881744384765625,0.069671630859375,-0.15972900390625
1772896122483492900,10.381492919921875,-0.9788360595703125,0.0707244873046875,-0.165863037109375
1772896122493461800,10.391461669921876,-0.96624755859375,0.066558837890625,-0.1661834716796875
1772896122503430000,10.401429931640624,-0.9595794677734375,0.0672760009765625,-0.1671295166015625
1772896122513398000,10.41139794921875,-0.9566802978515625,0.064361572265625,-0.1644287109375
1772896122523367000,10.421366943359375,-0.9654388427734375,0.0643157958984375,-0.1636199951171875
1772896122533336800,10.4313369140625,-0.9740753173828125,0.0641632080078125,-0.1587677001953125
1772896122543305000,10.441304931640625,-0.977142333984375,0.0633697509765625,-0.1486663818359375
1772896122553273900,10.45127392578125,-0.981842041015625,0.0640411376953125,-0.1433563232421875
1772896122563242000,10.461241943359376,-0.9880828857421875,0.0650177001953125,-0.146209716796875
1772896122573209900,10.4712099609375,-0.9949188232421875,0.0645904541015625,-0.149658203125
1772896122583179000,10.481178955078125,-1.0015106201171875,0.0650177001953125,-0.15850830078125
1772896122593147000,10.49114697265625,-0.99603271484375,0.0642242431640625,-0.1631317138671875
1772896122603114800,10.50111474609375,-0.983795166015625,0.0657196044921875,-0.164459228515625
1772896122613084000,10.511083984375,-0.973602294921875,0.0685882568359375,-0.16400146484375
1772896122623051800,10.5210517578125,-0.969268798828125,0.0714111328125,-0.16192626953125
1772896122633020000,10.53102001953125,-0.97552490234375,0.0741729736328125,-0.162872314453125
1772896122642988800,10.54098876953125,-0.9739837646484375,0.0738067626953125,-0.162109375
1772896122652957000,10.55095703125,-0.9675445556640625,0.073760986328125,-0.1611785888671875
1772896122662924800,10.5609248046875,-0.9716796875,0.069244384765625,-0.162322998046875
1772896122672893700,10.570893798828125,-0.9771270751953125,0.064788818359375,-0.164947509765625
1772896122682861800,10.58086181640625,-0.9810943603515625,0.0626068115234375,-0.1639404296875
1772896122692830000,10.590829833984374,-0.98626708984375,0.0632476806640625,-0.159942626953125
1772896122702798800,10.600798828125,-0.9906463623046875,0.0650177001953125,-0.153656005859375
1772896122712767000,10.61076708984375,-0.98895263671875,0.067138671875,-0.149749755859375
1772896122722735900,10.62073583984375,-0.9915008544921875,0.0683746337890625,-0.1494598388671875
1772896122732704000,10.6307041015625,-0.99334716796875,0.0667877197265625,-0.15008544921875
1772896122742672000,10.640671875,-0.9880218505859375,0.0655059814453125,-0.1549224853515625
1772896122752639700,10.6506396484375,-0.9828643798828125,0.0657806396484375,-0.1588287353515625
1772896122762608600,10.660608642578126,-0.9836578369140625,0.0685577392578125,-0.1599578857421875
1772896122772576800,10.67057666015625,-0.9843292236328125,0.072967529296875,-0.1591949462890625
1772896122782545000,10.680544921875,-0.97491455078125,0.0760955810546875,-0.1569976806640625
1772896122792513800,10.690513671875,-0.96734619140625,0.076507568359375,-0.1583404541015625
1772896122802482000,10.70048193359375,-0.967437744140625,0.0753021240234375,-0.1614532470703125
1772896122812450800,10.710450927734374,-0.9729156494140625,0.07366943359375,-0.159088134765625
1772896122822419000,10.7204189453125,-0.980377197265625,0.074127197265625,-0.15771484375
1772896122832387000,10.730386962890625,-0.9891357421875,0.0726776123046875,-0.155517578125
1772896122842356000,10.74035595703125,-0.990570068359375,0.0712127685546875,-0.1548004150390625
1772896122852323800,10.75032373046875,-0.9866790771484375,0.0707855224609375,-0.1554107666015625
1772896122862291700,10.760291748046875,-0.98040771484375,0.0709991455078125,-0.153564453125
1772896122872260900,10.7702607421875,-0.97857666015625,0.06903076171875,-0.1551055908203125
1772896122882228700,10.780228759765626,-0.9809417724609375,0.065673828125,-0.1607818603515625
1772896122892196900,10.79019677734375,-0.98431396484375,0.0645904541015625,-0.160400390625
1772896122902166000,10.800166015625,-0.9833831787109375,0.067779541015625,-0.1573638916015625
1772896122912134000,10.8101337890625,-0.9840545654296875,0.068939208984375,-0.15576171875
1772896122922102000,10.82010205078125,-0.986083984375,0.069000244140625,-0.1564788818359375
1772896122932071000,10.83007080078125,-0.98760986328125,0.06707763671875,-0.1584625244140625
1772896122942038800,10.840038818359375,-0.98797607421875,0.0686187744140625,-0.159149169921875
1772896122952007000,10.8500068359375,-0.9931182861328125,0.068023681640625,-0.163360595703125
1772896122961975800,10.859975830078126,-0.98138427734375,0.0667877197265625,-0.1639404296875
1772896122971944000,10.86994384765625,-0.956878662109375,0.069061279296875,-0.163543701171875
1772896122981911800,10.879911865234375,-0.9495849609375,0.0681610107421875,-0.161773681640625
1772896122991881000,10.889880859375,-0.9617767333984375,0.0694580078125,-0.1595458984375
1772896123001848800,10.899848876953126,-0.97479248046875,0.068389892578125,-0.1532440185546875
1772896123011817000,10.90981689453125,-0.986663818359375,0.066650390625,-0.15155029296875
1772896123021785900,10.919785888671875,-0.9951019287109375,0.0638275146484375,-0.151824951171875
1772896123031753700,10.929753662109375,-1.00714111328125,0.06494140625,-0.1537017822265625
1772896123041721900,10.939721923828126,-1.0021820068359375,0.06494140625,-0.155975341796875
1772896123051690800,10.949690673828124,-0.99041748046875,0.0654144287109375,-0.1631622314453125
1772896123061659000,10.959658935546875,-0.9716644287109375,0.0648193359375,-0.1668548583984375
1772896123071627000,10.969626953125,-0.9709320068359375,0.0680999755859375,-0.1692047119140625
1772896123081596000,10.979595947265626,-0.970672607421875,0.069488525390625,-0.1702117919921875
1772896123091564000,10.98956396484375,-0.97052001953125,0.072021484375,-0.1662139892578125
1772896123101532000,10.999531982421875,-0.9784698486328125,0.07464599609375,-0.1627349853515625
1772896123111501000,11.0095009765625,-0.9768524169921875,0.0740203857421875,-0.1545257568359375
1772896123121468700,11.01946875,-0.9830322265625,0.072479248046875,-0.1505584716796875
1772896123131436800,11.029436767578124,-0.9880523681640625,0.071868896484375,-0.15509033203125
1772896123141405700,11.03940576171875,-0.9915008544921875,0.0699310302734375,-0.1577911376953125
1772896123151373800,11.049373779296875,-0.9931793212890625,0.0674896240234375,-0.1606903076171875
1772896123161342000,11.059342041015626,-0.979827880859375,0.0650634765625,-0.1589202880859375
1772896123171310800,11.069310791015624,-0.988555908203125,0.0712127685546875,-0.1707611083984375
1772896123181281500,11.079281494140625,-0.9816741943359375,0.066558837890625,-0.1600799560546875
1772896123191249700,11.089249755859376,-0.980377197265625,0.0683746337890625,-0.159332275390625
1772896123201218600,11.099218505859374,-0.9866790771484375,0.0711212158203125,-0.1612091064453125
1772896123211186700,11.109186767578125,-0.9848785400390625,0.07177734375,-0.1587371826171875
1772896123221154800,11.11915478515625,-0.9701995849609375,0.0676116943359375,-0.1568145751953125
1772896123231123700,11.129123779296876,-0.9664459228515625,0.0648193359375,-0.1602020263671875
1772896123241091800,11.139091796875,-0.9718017578125,0.063720703125,-0.1623077392578125
1772896123251059500,11.1490595703125,-0.9846954345703125,0.0657196044921875,-0.1633148193359375
1772896123261028600,11.159028564453125,-0.985321044921875,0.0670013427734375,-0.1590576171875
1772896123270996500,11.16899658203125,-0.9930419921875,0.070587158203125,-0.159881591796875
1772896123280964600,11.178964599609374,-0.9815826416015625,0.0693206787109375,-0.15753173828125
1772896123290933500,11.18893359375,-0.970428466796875,0.0675506591796875,-0.15911865234375
1772896123300901600,11.198901611328125,-0.975921630859375,0.067626953125,-0.163299560546875
1772896123310869800,11.208869873046876,-0.980377197265625,0.06927490234375,-0.1644744873046875
1772896123320838700,11.218838623046874,-0.9801483154296875,0.072265625,-0.165008544921875
1772896123330806800,11.228806884765625,-0.97357177734375,0.074127197265625,-0.16650390625
1772896123340774700,11.238774658203125,-0.9741973876953125,0.0743408203125,-0.1682281494140625
1772896123350743600,11.24874365234375,-0.9763336181640625,0.0744171142578125,-0.1699371337890625
1772896123360711700,11.258711669921874,-0.9785003662109375,0.0751495361328125,-0.1707763671875
1772896123370679600,11.268679443359375,-0.979888916015625,0.0756988525390625,-0.1700592041015625
1772896123380648700,11.278648681640625,-0.9749908447265625,0.0757293701171875,-0.1662139892578125
1772896123390616600,11.288616455078126,-0.9678497314453125,0.0748748779296875,-0.1649322509765625
1772896123400584700,11.298584716796874,-0.964569091796875,0.074188232421875,-0.16522216796875
1772896123410553600,11.3085537109375,-0.9652862548828125,0.074005126953125,-0.16168212890625
1772896123420521700,11.318521728515625,-0.96954345703125,0.0730133056640625,-0.163330078125
1772896123430489600,11.328489501953126,-0.9781494140625,0.0714263916015625,-0.1657257080078125
1772896123440458500,11.33845849609375,-0.9858551025390625,0.0730133056640625,-0.165557861328125
1772896123450426600,11.348426513671875,-0.992889404296875,0.073455810546875,-0.16558837890625
1772896123460395500,11.3583955078125,-0.99713134765625,0.074127197265625,-0.1684417724609375
1772896123470363600,11.36836376953125,-0.993560791015625,0.073028564453125,-0.166595458984375
1772896123480331800,11.378331787109374,-0.98883056640625,0.07275390625,-0.1675872802734375
1772896123490300700,11.38830078125,-0.9880828857421875,0.073333740234375,-0.170379638671875
1772896123500268800,11.398268798828125,-0.9790802001953125,0.073089599609375,-0.1682891845703125
1772896123510236700,11.408236572265626,-0.9785308837890625,0.075225830078125,-0.1672515869140625
1772896123520205800,11.418205810546874,-0.978485107421875,0.074127197265625,-0.1637115478515625
1772896123530173400,11.42817333984375,-0.9734954833984375,0.07525634765625,-0.1645355224609375
1772896123540141600,11.4381416015625,-0.97454833984375,0.071258544921875,-0.161865234375
1772896123550110500,11.4481103515625,-0.976409912109375,0.0717620849609375,-0.161224365234375
1772896123560078600,11.45807861328125,-0.9766845703125,0.0709686279296875,-0.1601409912109375
1772896123570046700,11.468046630859375,-0.9728240966796875,0.07080078125,-0.1573944091796875
1772896123580015600,11.478015625,-0.9779510498046875,0.0709991455078125,-0.1602783203125
1772896123589983700,11.487983642578126,-0.9873046875,0.0703887939453125,-0.16082763671875
1772896123599952000,11.497951904296874,-0.99615478515625,0.0689239501953125,-0.16107177734375
1772896123609920800,11.507920654296875,-0.99609375,0.0688018798828125,-0.164276123046875
1772896123619888600,11.517888671875,-0.9870452880859375,0.067535400390625,-0.1652374267578125
1772896123629856500,11.5278564453125,-0.9858245849609375,0.06988525390625,-0.165008544921875
1772896123639825700,11.53782568359375,-0.987335205078125,0.0709991455078125,-0.1645660400390625
1772896123649793500,11.54779345703125,-0.9802398681640625,0.0707855224609375,-0.163177490234375
1772896123659761700,11.55776171875,-0.96929931640625,0.0680389404296875,-0.1638946533203125
1772896123669730600,11.56773046875,-0.964111328125,0.0684661865234375,-0.1618194580078125
1772896123679698700,11.57769873046875,-0.969818115234375,0.0709228515625,-0.1640625
1772896123689666800,11.587666748046875,-0.9740447998046875,0.071380615234375,-0.1619415283203125
1772896123699635700,11.5976357421875,-0.9748687744140625,0.0694580078125,-0.156494140625
1772896123709603600,11.607603515625,-0.9740447998046875,0.070831298828125,-0.1595458984375
1772896123719571700,11.61757177734375,-0.9776611328125,0.0675048828125,-0.15899658203125
1772896123729540600,11.62754052734375,-0.98895263671875,0.0686798095703125,-0.1626739501953125
1772896123739508700,11.6375087890625,-0.99102783203125,0.070526123046875,-0.159423828125
1772896123749476600,11.6474765625,-0.97998046875,0.0726165771484375,-0.1598968505859375
1772896123759445800,11.65744580078125,-0.975067138671875,0.0720367431640625,-0.1637420654296875
1772896123769413600,11.66741357421875,-0.976806640625,0.0699615478515625,-0.1650848388671875
1772896123779381500,11.677381591796875,-0.9805755615234375,0.0717315673828125,-0.1659393310546875
1772896123789350700,11.6873505859375,-0.9821319580078125,0.0716552734375,-0.1631622314453125
1772896123799318500,11.697318603515624,-0.9836578369140625,0.07122802734375,-0.16387939453125
1772896123809286700,11.70728662109375,-0.984100341796875,0.0718841552734375,-0.163726806640625
1772896123819255600,11.717255615234375,-0.9859466552734375,0.0694427490234375,-0.1622161865234375
1772896123829223700,11.7272236328125,-0.9862213134765625,0.071868896484375,-0.1628570556640625
1772896123839191600,11.737191650390624,-0.98284912109375,0.069854736328125,-0.158721923828125
1772896123849160700,11.74716064453125,-0.9782867431640625,0.0713348388671875,-0.156707763671875
1772896123859128800,11.75712890625,-0.977142333984375,0.0728302001953125,-0.154266357421875
1772896123869096400,11.767096435546875,-0.9785614013671875,0.0702362060546875,-0.1534576416015625
1772896123879065600,11.777065673828124,-0.9802093505859375,0.067169189453125,-0.15771484375
1772896123889033500,11.787033447265625,-0.984039306640625,0.0667266845703125,-0.1597137451171875
1772896123899001600,11.797001708984375,-0.9886627197265625,0.068084716796875,-0.1612701416015625
1772896123908970500,11.806970458984376,-0.986419677734375,0.0716552734375,-0.1624755859375
1772896123918938600,11.816938720703124,-0.980224609375,0.0750732421875,-0.16156005859375
1772896123928906800,11.82690673828125,-0.984832763671875,0.0765380859375,-0.165618896484375
1772896123938875600,11.836875732421875,-0.9888763427734375,0.0788116455078125,-0.171478271484375
1772896123948843800,11.84684375,-0.9843597412109375,0.0782318115234375,-0.1719818115234375
1772896123958811600,11.856811767578124,-0.99127197265625,0.07269287109375,-0.1705169677734375
1772896123968780500,11.866780517578125,-0.995330810546875,0.0744171142578125,-0.17449951171875
1772896123978748700,11.876748779296875,-0.983642578125,0.0726776123046875,-0.1717529296875
1772896123988716500,11.886716552734375,-0.9666748046875,0.06939697265625,-0.172119140625
1772896123998685700,11.896685791015624,-0.9589691162109375,0.0684051513671875,-0.1703643798828125
1772896124008653600,11.906653564453125,-0.962310791015625,0.0695953369140625,-0.167144775390625
1772896124018621700,11.91662158203125,-0.9567413330078125,0.070587158203125,-0.162078857421875
1772896124028590600,11.926590576171876,-0.956695556640625,0.0706787109375,-0.16009521484375
1772896124038558700,11.936558837890624,-0.9635162353515625,0.0681915283203125,-0.161224365234375
1772896124048526600,11.946526611328125,-0.97113037109375,0.065216064453125,-0.163726806640625
1772896124058495500,11.95649560546875,-0.98211669921875,0.063385009765625,-0.1627655029296875
1772896124068463600,11.966463623046875,-0.98724365234375,0.0631561279296875,-0.1659088134765625
1772896124078431500,11.976431396484376,-0.9815216064453125,0.060943603515625,-0.1622314453125
1772896124088400600,11.986400634765625,-0.9791412353515625,0.0631103515625,-0.159271240234375
1772896124098368800,11.99636865234375,-0.98077392578125,0.0649261474609375,-0.158050537109375
1772896124108336600,12.006336669921875,-0.988616943359375,0.069580078125,-0.15802001953125
1772896124118305800,12.016305908203124,-0.990570068359375,0.073516845703125,-0.16070556640625
1772896124128273700,12.026273681640625,-0.99114990234375,0.0747222900390625,-0.1638336181640625
1772896124138241500,12.036241455078125,-0.985198974609375,0.0734710693359375,-0.167633056640625
1772896124148210400,12.04621044921875,-0.9781951904296875,0.07196044921875,-0.171539306640625
1772896124158178600,12.056178466796876,-0.971527099609375,0.07415771484375,-0.166046142578125
1772896124168146700,12.066146728515625,-0.9688568115234375,0.0762786865234375,-0.16217041015625
1772896124178113300,12.07611328125,-0.982818603515625,0.0761871337890625,-0.16046142578125
1772896124188081200,12.0860810546875,-0.98992919921875,0.073638916015625,-0.1576385498046875
1772896124198049300,12.09604931640625,-0.9923248291015625,0.071990966796875,-0.161468505859375
1772896124208018200,12.10601806640625,-0.99224853515625,0.0691070556640625,-0.163543701171875
1772896124217986300,12.115986328125,-0.9910888671875,0.067657470703125,-0.163909912109375
1772896124227954400,12.125954345703125,-0.9783477783203125,0.066619873046875,-0.164093017578125
1772896124237923300,12.13592333984375,-0.97369384765625,0.0634613037109375,-0.1631927490234375
1772896124247891200,12.14589111328125,-0.972991943359375,0.0658416748046875,-0.1587371826171875
1772896124257860000,12.155860107421875,-0.9706878662109375,0.0688323974609375,-0.154571533203125
1772896124267828200,12.165828125,-0.9690399169921875,0.070587158203125,-0.1494598388671875
1772896124277796400,12.17579638671875,-0.971343994140625,0.0729217529296875,-0.1455841064453125
1772896124287765200,12.18576513671875,-0.978057861328125,0.0733642578125,-0.150848388671875
1772896124297733400,12.1957333984375,-0.9858551025390625,0.0695953369140625,-0.1572265625
1772896124307701200,12.205701171875,-0.9885101318359375,0.0693206787109375,-0.160491943359375
1772896124317670400,12.21567041015625,-0.9905242919921875,0.0694580078125,-0.164520263671875
1772896124327638300,12.22563818359375,-0.993896484375,0.0699462890625,-0.165557861328125
1772896124337606100,12.235606201171874,-0.9906158447265625,0.0706634521484375,-0.165008544921875
1772896124347575300,12.2455751953125,-0.9822540283203125,0.070465087890625,-0.1600189208984375
1772896124357543200,12.255543212890625,-0.97845458984375,0.0705718994140625,-0.1566162109375
1772896124367511300,12.26551123046875,-0.9812164306640625,0.0700531005859375,-0.1552734375
1772896124377480200,12.275480224609375,-0.984832763671875,0.0713653564453125,-0.1545562744140625
1772896124387448300,12.2854482421875,-0.9817962646484375,0.070587158203125,-0.1529693603515625
1772896124397416400,12.29541650390625,-0.9771270751953125,0.069488525390625,-0.1522064208984375
1772896124407385300,12.30538525390625,-0.975799560546875,0.070037841796875,-0.1537933349609375
1772896124417353500,12.315353515625,-0.985748291015625,0.070587158203125,-0.1544342041015625
1772896124427321000,12.325321044921875,-0.9897613525390625,0.0694427490234375,-0.1547088623046875
1772896124437290200,12.335290283203125,-0.9867095947265625,0.0668792724609375,-0.1544036865234375
1772896124447258000,12.345258056640626,-0.9794158935546875,0.06378173828125,-0.1546783447265625
1772896124457226200,12.355226318359374,-0.9804229736328125,0.06365966796875,-0.1578521728515625
1772896124467195400,12.3651953125,-0.9898681640625,0.0677490234375,-0.1542205810546875
1772896124477163300,12.375163330078125,-0.9854888916015625,0.071533203125,-0.144989013671875
1772896124487131400,12.38513134765625,-0.9797515869140625,0.0741424560546875,-0.1453857421875
1772896124497100300,12.395100341796875,-0.975128173828125,0.0718841552734375,-0.1493988037109375
1772896124507068400,12.405068359375,-0.970062255859375,0.06964111328125,-0.1536712646484375
1772896124517036300,12.415036376953125,-0.9772796630859375,0.069091796875,-0.1587066650390625
1772896124527005200,12.425005126953126,-0.996856689453125,0.0699615478515625,-0.158782958984375
1772896124536973300,12.434973388671875,-0.9997406005859375,0.0704193115234375,-0.1604461669921875
1772896124546941200,12.444941162109375,-0.9729156494140625,0.0713043212890625,-0.1553192138671875
1772896124556910300,12.454910400390625,-0.9673919677734375,0.0711517333984375,-0.153228759765625
1772896124566878200,12.464878173828126,-0.97711181640625,0.071380615234375,-0.153289794921875
1772896124576846300,12.474846435546874,-0.982513427734375,0.070068359375,-0.1531524658203125
1772896124586815200,12.484815185546875,-0.98077392578125,0.069061279296875,-0.15167236328125
1772896124596783400,12.494783447265625,-0.9774627685546875,0.065887451171875,-0.1520233154296875
1772896124606751200,12.504751220703126,-0.9806365966796875,0.0638580322265625,-0.153228759765625
1772896124616720100,12.51472021484375,-0.982208251953125,0.06475830078125,-0.1512908935546875
1772896124626688300,12.524688232421875,-0.9867401123046875,0.0681304931640625,-0.152313232421875
1772896124636656400,12.534656494140625,-0.9878082275390625,0.0726165771484375,-0.151214599609375
1772896124646625300,12.544625244140626,-0.9811248779296875,0.07342529296875,-0.149993896484375
1772896124656593400,12.554593505859375,-0.97503662109375,0.06939697265625,-0.1585540771484375
1772896124666561300,12.564561279296875,-0.979736328125,0.067962646484375,-0.1656951904296875
1772896124676530400,12.574530517578125,-0.9811248779296875,0.06719970703125,-0.163055419921875
1772896124686498300,12.584498291015626,-0.9801025390625,0.0690460205078125,-0.161590576171875
1772896124696466200,12.594466064453124,-0.9795989990234375,0.072021484375,-0.160552978515625
1772896124706435300,12.604435302734375,-0.977508544921875,0.0733795166015625,-0.1551666259765625
1772896124716403200,12.6144033203125,-0.9813079833984375,0.0768585205078125,-0.1534423828125
1772896124726371300,12.624371337890626,-0.9897613525390625,0.0773773193359375,-0.156707763671875
1772896124736340200,12.63434033203125,-0.9816436767578125,0.072296142578125,-0.1556243896484375
1772896124746308400,12.644308349609375,-0.9747467041015625,0.06787109375,-0.1582489013671875
1772896124756276500,12.6542763671875,-0.9755706787109375,0.0661163330078125,-0.15802001953125
1772896124766245400,12.664245361328126,-0.9849700927734375,0.0663909912109375,-0.1545562744140625
1772896124776213500,12.674213623046874,-0.99212646484375,0.0653228759765625,-0.145721435546875
1772896124786181000,12.68418115234375,-0.9976959228515625,0.066192626953125,-0.14398193359375
1772896124796150300,12.694150390625,-0.9990997314453125,0.0669097900390625,-0.1459503173828125
1772896124806118100,12.7041181640625,-0.9924163818359375,0.068359375,-0.15240478515625
1772896124816086300,12.714086181640624,-0.986663818359375,0.06884765625,-0.1605987548828125
1772896124826055200,12.72405517578125,-0.98284912109375,0.0706939697265625,-0.16827392578125
1772896124836023300,12.734023193359375,-0.9712982177734375,0.071624755859375,-0.1692657470703125
1772896124845991400,12.743991455078126,-0.9541778564453125,0.073272705078125,-0.16912841796875
1772896124855960300,12.753960205078124,-0.95074462890625,0.0722198486328125,-0.1675872802734375
1772896124865928400,12.763928466796875,-0.9667816162109375,0.074127197265625,-0.163360595703125
1772896124875896300,12.773896240234375,-0.98333740234375,0.075469970703125,-0.1568603515625
1772896124885865200,12.783865234375,-0.97442626953125,0.0742645263671875,-0.149658203125
1772896124895833300,12.793833251953124,-0.9715423583984375,0.07177734375,-0.145355224609375
1772896124905801200,12.80380126953125,-0.984588623046875,0.069091796875,-0.14501953125
1772896124915770400,12.813770263671875,-0.9991912841796875,0.063079833984375,-0.15087890625
1772896124925738200,12.82373828125,-1.006622314453125,0.060760498046875,-0.157440185546875
1772896124935706400,12.833706298828124,-1.0034942626953125,0.06231689453125,-0.158050537109375
1772896124945675300,12.84367529296875,-0.996734619140625,0.0643310546875,-0.1573944091796875
1772896124955643400,12.853643310546875,-0.983673095703125,0.067901611328125,-0.155731201171875
1772896124965611300,12.863611328125,-0.9741668701171875,0.06951904296875,-0.15277099609375
