time,seconds_elapsed,z,y,x
1772896112187454700,0.085454833984375,0.25137773031294347,0.6492419068783521,-0.20625585529953241
1772896112197422800,0.0954228515625,0.08296469893455505,0.5684291252806782,-0.1927764151971787
1772896112207390700,0.105390625,-0.30938334455788136,1.0990116272479296,-0.08622085118629037
1772896112217360000,0.11535986328125,-0.8358347380697727,1.677058183440566,0.0871161195255816
1772896112227327500,0.125327392578125,-1.3778040187090634,2.0413842475414277,-0.33279410382695496
1772896112237295600,0.135295654296875,-0.9886106398552655,1.8995222462192176,-0.4827317134466022
1772896112247264500,0.145264404296875,0.06824293062090873,1.5330992098391054,-0.6598096973177046
1772896112257232600,0.155232666015625,1.3915905519992113,0.7173055354095995,-0.7988966809686273
1772896112267200800,0.16520068359375,2.265351992881298,0.1447302502349019,-0.7833603814017027
1772896112277168600,0.175168701171875,1.8381249437093734,0.8329512915879488,-1.1816248093310744
1772896112287137800,0.1851376953125,0.09153028270602226,1.3081285710670054,-0.7777368424315005
1772896112297105700,0.195105712890625,-0.8920394403725862,1.469570448258519,-0.7751833585564046
1772896112307074800,0.20507470703125,-1.1612994488567112,1.9571087582692503,-1.2382282286278903
1772896112317042700,0.215042724609375,-1.0442267286151647,1.9954992792010307,-1.23113242514804
1772896112327010600,0.225010498046875,-0.8838070340782404,2.1283044061034917,-1.808043109178543
1772896112336979700,0.234979736328125,-1.1532248634725808,2.958246871264279,-2.3798070779703555
1772896112346947600,0.244947509765625,-0.7742015809774399,3.728544138279557,-3.0600352208733557
1772896112356915700,0.254915771484375,0.1267635086506605,3.8388624158248303,-3.727674954229593
1772896112366883800,0.2648837890625,1.0301946961313486,2.9718951651275156,-4.38981375208199
1772896112376852700,0.274852783203125,2.4265625455349684,1.5425813239336013,-5.079858793991804
1772896112386820600,0.284820556640625,3.4956717864722013,0.29653730698823927,-4.630808912329376
1772896112396788500,0.29478857421875,4.304205260640383,-0.26792057657390833,-3.6929777348577972
1772896112406757600,0.304757568359375,5.05233774985969,-0.35113340505063534,-2.710564196076989
1772896112416725800,0.314725830078125,4.329200001165271,0.28598697914034127,-1.42895815962404
1772896112426693600,0.324693603515625,2.43235924911499,-2.1153926098212597,8.553641404739022
1772896112436662800,0.334662841796875,-1.3328794198334217,-7.513491131782532,22.385299200248717
1772896112446630700,0.344630615234375,1.156976909482479,-6.755963622230291,9.558893382793665
1772896112456598800,0.354598876953125,2.23944364464283,0.7056240115746856,-5.543429076176881
1772896112466567700,0.364567626953125,1.4398358197301626,1.8591750382617116,-2.6430466571211815
1772896112476535600,0.37453564453125,1.3807938481748103,0.237439513592422,1.4781041755869984
1772896112486503700,0.384503662109375,0.9177063810706138,1.0149629324689506,-0.9317809375219046
1772896112496472600,0.39447265625,-0.43909167448878283,0.5750435749843716,-1.025885600760579
1772896112506440700,0.404440673828125,-2.0294722759515045,-0.6006129005268216,-0.13651399135775863
1772896112516408600,0.41440869140625,-2.5694232025057078,-0.9511056695863604,-0.1730346998296678
1772896112526377700,0.424377685546875,-2.1257535525768994,-0.5990829144805669,-1.118889390085265
1772896112536345600,0.434345703125,-1.4883499675303697,0.14963555793315172,-1.1279877655591815
1772896112546313700,0.444313720703125,-0.33542496378719805,0.1521326354458928,0.4864507339697331
1772896112556283000,0.454282958984375,0.45612814948558805,0.4829748014874756,1.0684047459296881
1772896112566250500,0.46425048828125,0.5875234095901251,0.8389673370070755,1.20996454943493
1772896112576218600,0.474218505859375,0.20132395185530186,0.49171369599923487,1.9731512537926434
1772896112586187500,0.4841875,-1.358205584269762,0.33213410554826256,1.6491691827788948
1772896112596155600,0.49415576171875,-6.441392061379552,-0.08062631911486387,0.8351615880485623
1772896112606123800,0.504123779296875,-1.745852318203449,-0.5442844257138669,0.9481927047491073
1772896112616092700,0.5140927734375,-1.0556126305043696,-0.21539836217612027,1.086783721576631
1772896112626060800,0.524060791015625,-1.0282248573631048,-0.09350055986568331,2.137429377323389
1772896112636028700,0.534028564453125,0.30641514240205286,0.3659863985285163,0.9623344812177121
1772896112645997800,0.543997802734375,1.8319085534125565,-0.19677301055267452,0.49689898968264457
1772896112655965400,0.55396533203125,1.4740911405533552,-1.0613112805373965,0.5260740846320986
1772896112665933600,0.56393359375,0.16413725375533103,-1.8334321097180246,0.6714025930210947
1772896112675902700,0.57390283203125,-0.27217735723555087,-1.9559166258752345,0.5576939423851669
1772896112685870600,0.58387060546875,0.3774263686925173,-2.244001161816716,-0.2964329698309302
1772896112695838700,0.593838623046875,0.825543061158061,-2.1584107905536887,-0.6608562106959521
1772896112705807600,0.6038076171875,-0.9682266079962253,-0.6894668036304414,0.6005135318055749
1772896112715775700,0.613775634765625,-3.042147682005167,0.415658995648846,0.33218320538699625
1772896112725743900,0.623743896484375,-3.8497307235807177,-0.6036482496347279,0.12666516284272075
1772896112735712800,0.633712646484375,-4.518401553550362,-0.8294301317244768,0.6568203793086111
1772896112745680600,0.6436806640625,-4.962358203727007,-0.819921348818764,1.3405080150157211
1772896112755648500,0.6536484375,-3.785697519609332,-0.08482241909783333,1.4525648067913948
1772896112765617700,0.66361767578125,-2.2743945465147495,0.474234043812193,1.674748299062997
1772896112775585500,0.67358544921875,-1.2789870861262083,0.039163149272091684,1.921371236064285
1772896112785553700,0.6835537109375,-1.0787953531712293,-0.3835050675516948,2.3078913040556013
1772896112795522800,0.693522705078125,-1.2115595635414123,-0.3514479508925229,2.5521254462242124
1772896112805490700,0.70349072265625,-1.2919359995484352,-0.48286257328465576,1.9080320081502198
1772896112815458800,0.713458740234375,-1.7978741818636654,-1.022235480755195,1.3390792973868548
1772896112825427700,0.723427734375,-1.7142068876177072,-1.1210155884589998,0.8873214719399809
1772896112835395600,0.7333955078125,-1.592774803122878,-0.7431386995200068,0.9465266712330281
1772896112845363700,0.74336376953125,-1.4984575200468302,-0.5579627493891864,1.3370032217651604
1772896112855332600,0.75333251953125,-1.2800152601301669,-0.46910800603535024,1.6261206078857182
1772896112865300700,0.76330078125,-0.8078308788567781,-0.08727032370660454,1.7172135220877824
1772896112875268600,0.7732685546875,-0.2014566383242607,0.26968952247519046,1.467190859645605
1772896112885237800,0.78323779296875,0.3054734776377678,0.30118235631510615,1.3254703126206993
1772896112895205600,0.79320556640625,0.5872872627466916,0.19064608863759785,1.4424704060174525
1772896112905173800,0.803173828125,0.5632137287199497,0.012491525043547154,1.3184453824199736
1772896112915142700,0.813142578125,0.27250644305944444,-0.21004662588462233,0.9316231896769255
1772896112925110500,0.823110595703125,0.11480886696279048,-0.35136900390479714,0.5355296760458499
1772896112935078700,0.83307861328125,-0.0020569325298070906,-0.3129859356271103,0.1900209607428871
1772896112945047600,0.843047607421875,-0.25657120730280875,-0.0841876283256337,-0.05623707020245492
1772896112955015700,0.853015625,-0.30682956842184067,0.10906312638502567,-0.06558702755095437
1772896112964983800,0.86298388671875,-0.05885901620388031,0.32806444495655596,-0.13586391168488188
1772896112974952700,0.87295263671875,0.12090016957521438,0.5516556120689958,-0.5254445910895243
1772896112984920800,0.8829208984375,-3.9975124703407285,-0.3615050153307616,-4.876751173590123
1772896112994888700,0.892888671875,-0.3280892140716314,0.14548209151551125,-0.4328662971679121
1772896113004857900,0.90285791015625,-1.3336299459397791,-1.3904061645202337,-5.315804561895132
1772896113014825500,0.912825439453125,1.086826683935523,-1.2549948006421328,-0.7432147604309022
1772896113024793600,0.922793701171875,1.4549796128481625,0.5066130859021097,-2.3007119139455257
1772896113034762500,0.932762451171875,0.9054027798146009,1.1661389978423713,-4.094840041148663
1772896113044730600,0.942730712890625,0.03888707227706909,0.35810974686928093,-1.061523169722408
1772896113054698800,0.95269873046875,-0.7921037328928708,0.9428871456868946,0.2939730094581842
1772896113064667600,0.962667724609375,-0.7508043387770652,1.8478377978198228,0.16224683689884842
1772896113074635800,0.9726357421875,-0.04242109162211418,1.8387800466172397,0.05017777016349136
1772896113084604000,0.98260400390625,0.8818243358284235,1.521926950700581,0.11854951479583978
1772896113094572800,0.99257275390625,1.6409972745001316,1.273810268010199,-0.03531155187785625
1772896113104540700,1.002540771484375,1.738420706897974,1.2129283676765859,-0.23536789495013652
1772896113114508500,1.012508544921875,1.7121926251858473,1.1899788692437112,-0.24199089328646659
1772896113124477700,1.022477783203125,1.7876894724577663,1.1964300912097097,-0.2545104753807187
1772896113134445600,1.032445556640625,1.7579408154040574,1.1217325776219367,-0.3234391963087022
1772896113144413700,1.04241357421875,1.5769845287948845,0.9838980782501399,-0.41061563118677585
1772896113154382600,1.052382568359375,1.2949801895499229,0.8729990782074629,-0.5705950346102938
1772896113164350700,1.062350830078125,1.2336778718471526,0.8183176399491727,-0.6069191610641778
1772896113174318600,1.072318603515625,1.2570727759599685,0.6862823283754289,-0.6407461004074663
1772896113184287500,1.08228759765625,1.2501374237388372,0.479065957480669,-0.680282503438741
1772896113194255600,1.092255615234375,1.2047241645634175,0.3113686731562018,-0.6793221339739859
1772896113204223500,1.102223388671875,1.0205155981600285,0.31886648156568403,-0.6521535565413534
1772896113214192400,1.1121923828125,0.6469272001951932,0.22364771960526703,-0.622752032424882
1772896113224160500,1.122160400390625,0.3165653650164604,0.04334112907648086,-0.6356747154273092
1772896113234128400,1.13212841796875,0.007263853523135185,0.03157338826283812,-0.6695371644753962
1772896113244097500,1.14209765625,-0.11412906800508499,0.20500527071654795,-0.6104206298464909
1772896113254065400,1.1520654296875,0.2884276502907276,0.2669752585478127,-0.42306170965339984
1772896113264033500,1.162033447265625,-0.19290040690302848,0.20513693427219987,-0.3208887446409091
1772896113274002400,1.17200244140625,-0.19074819730520248,0.19793767041787505,-0.29239417930152267
1772896113283970600,1.181970458984375,-0.2125152079552412,0.1946915281035006,-0.27307843426112083
1772896113293938400,1.1919384765625,-0.5354951161891222,0.08146876128837466,-0.4308966045301407
1772896113303907300,1.2019072265625,-0.8136836965382098,-0.04897416652739048,-0.6391121425300836
1772896113313875500,1.21187548828125,-0.9403174413293599,-0.003193243083357811,-0.5620524298556149
1772896113323843600,1.221843505859375,-0.9277572349637746,-0.07488090733066201,-0.29142595532387494
1772896113333812500,1.2318125,-0.7048124029308557,0.0706643125489354,-0.05568659671284258
1772896113343780600,1.241780517578125,-0.4335702807188034,0.290659354865551,0.16984799608495085
1772896113353748500,1.25174853515625,-0.27839550109803674,0.34183146982863544,0.35085509956590827
1772896113363717600,1.261717529296875,-0.24542379034459588,0.24883213748335836,0.34626083057820795
1772896113373685500,1.271685546875,-0.3547100944936275,0.149152888982743,0.256385183211416
1772896113383653400,1.2816533203125,-0.28801205522716045,0.04408580996394157,0.11776369818039238
1772896113393622300,1.291622314453125,-0.17307693153619766,-0.0955905178822577,-0.059421983848884696
1772896113403590400,1.30159033203125,-0.058628714579343794,-0.15018179363906384,-0.044976877052150664
1772896113413558500,1.31155859375,0.0847398919135332,-0.180135325615108,0.06047452510911971
1772896113423527400,1.32152734375,0.05240589454174041,-0.01209098141863942,0.17993530953098089
1772896113433495600,1.33149560546875,0.1782037730306387,0.0021148001968860626,0.010949190972372888
1772896113443463700,1.341463623046875,0.25403379777967927,-0.18946926341056822,0.2062005083831027
1772896113453432600,1.3514326171875,0.2590396432429552,-0.21745164144411683,0.2638327227383852
1772896113463400700,1.361400634765625,0.15053367581665514,-0.147317782510072,0.26461360745038837
1772896113473368300,1.371368408203125,0.07056289800107479,-0.10206906624659895,0.20982987786140292
1772896113483337500,1.38133740234375,-0.01324409697651863,-0.06354366688877344,0.3371845573382452
1772896113493305300,1.391305419921875,-0.06601648674309253,-0.05986410159319639,0.1761629879180342
1772896113503273500,1.4012734375,0.1672930874377489,-0.1792334083393216,0.04868504738770425
1772896113513242400,1.411242431640625,0.25486440338492394,-0.2609596515201032,-0.1860368778090924
1772896113523210500,1.42121044921875,0.13162263911962507,-0.1931355308331549,-0.12324121627602726
1772896113533178600,1.4311787109375,0.07036766768991946,-0.045880292165279384,0.020192016418278218
1772896113543147500,1.4411474609375,0.15185294172167776,0.07268778120055794,0.16062690754681824
1772896113553115600,1.45111572265625,0.13446341550350188,0.06933890916407108,0.04402213361058384
1772896113563083500,1.46108349609375,-0.03202595433592796,0.029576223096251485,0.015596651452034711
1772896113573052400,1.471052490234375,-0.1347322955727577,0.06385229444652796,0.05876870757192373
1772896113583020500,1.4810205078125,-0.25438801804482936,0.19626126163825391,0.0013773893004283308
1772896113592988400,1.490988525390625,-0.3939350204229355,0.5675304228752851,-0.4917035764640197
1772896113602957600,1.50095751953125,-0.003736848440766334,1.0151873888745904,-0.9183104844436049
1772896113612925400,1.510925537109375,-0.5668301656514406,-0.07678411060348153,0.4434651768652722
1772896113622893600,1.5208935546875,-0.2849725414007902,-0.4809874270625412,0.45746151698119936
1772896113632862500,1.530862548828125,0.47053836763203144,0.1482123932622373,-0.2484921284066513
1772896113642830600,1.54083056640625,0.4447884248256683,0.535059062859416,-0.23497933402396737
1772896113652798500,1.550798583984375,0.17498071933090686,0.4442665929086506,0.1028288716379553
1772896113662767400,1.560767333984375,-0.024830489873886107,0.29301380903720853,0.3354782283443957
1772896113672735500,1.570735595703125,-0.26389175944924353,0.33553755731619894,0.3797747219169512
1772896113682703600,1.58070361328125,-0.28829963999688624,0.40327809137292203,0.274442233427614
1772896113692672500,1.590672607421875,-0.10304010323584079,0.45554070498645305,0.10022497274987399
1772896113702640600,1.600640625,0.002160977426171303,0.3696449210360646,-0.004121829170361161
1772896113712608500,1.6106083984375,-0.01631809759438038,0.11988996961936355,-0.15514935291856527
1772896113722577700,1.62057763671875,0.1316051034629345,-0.11415113370642066,-0.5365765912828967
1772896113732545500,1.630545654296875,0.03621522271931171,-0.12648980627581477,-0.42197468160167334
1772896113742513400,1.640513427734375,-0.06932312707304954,0.06422638845592737,-0.07598718807213008
1772896113752482300,1.650482421875,0.0025490999609231947,0.2824133584372699,-0.14916315464843063
1772896113762450400,1.660450439453125,-0.1984282304137945,0.41526305513381956,0.14144547467688098
1772896113772418600,1.67041845703125,-0.014082301366329193,0.40161549192294477,0.235792257842049
1772896113782387500,1.680387451171875,0.1646405271023512,0.26957272769510743,0.27956098294714465
1772896113792355600,1.69035546875,0.15227204391658306,0.09154781836271285,0.20533537945374844
1772896113802323500,1.700323486328125,0.15561375555992127,-0.06593684563562274,0.017266246898379176
1772896113812292600,1.710292724609375,0.07320552146434783,-0.10317498166188598,-0.03307747268285602
1772896113822260700,1.7202607421875,-0.019368717336654663,-0.13803805911988018,-0.0011682583280839026
1772896113832228400,1.730228271484375,-0.08000526460707187,-0.18555369740203023,0.011961107961274683
1772896113842196500,1.740196533203125,-0.1378700090765953,-0.228356920209527,0.02357795079583302
1772896113852165400,1.750165283203125,-0.12440028665065765,-0.20318974572718143,0.039291808019904416
1772896113862133500,1.760133544921875,-0.1611316421985626,-0.21192834797799587,-0.012924902358977123
1772896113872101600,1.7701015625,-0.16164076076447964,-0.2585597507715225,0.056097223340347405
1772896113882070500,1.780070556640625,-0.12575520839095114,-0.20416326693445444,0.11244011940429918
1772896113892038700,1.79003857421875,-0.08141980758011341,-0.10468655526861548,0.15175967394765466
1772896113902006300,1.80000634765625,-0.0780477007985115,-0.06663491090238094,0.23327099573612212
1772896113911975700,1.8099755859375,-0.13824994830489157,0.018191344120353458,0.34317320329379286
1772896113921943600,1.819943603515625,-0.187653153899312,0.10463555573374032,0.350716714008525
1772896113931911400,1.829911376953125,-0.2218266416579485,0.19648031121641396,0.35409207219313826
1772896113941880600,1.839880615234375,-0.2726543270975351,0.24407938999831674,0.3199077342469245
1772896113951848400,1.849848388671875,-0.30983985615372656,0.25730916618853805,0.22076387126464395
1772896113961816600,1.859816650390625,-0.445337290880084,0.2516172381572425,0.11073825652301311
1772896113971785500,1.869785400390625,-0.4123679182142019,0.14421426353678107,0.0605773826953955
1772896113981753600,1.879753662109375,-0.2884627216041088,0.10400032657012342,0.06055442194491625
1772896113991721500,1.889721435546875,-0.1840583442777395,0.11811638407558202,0.04746043749619275
1772896114001690400,1.8996904296875,-0.13084756309390067,0.15274813699573278,0.012331219915300607
1772896114011658500,1.909658447265625,-0.07876374011337757,0.1458839503146708,-0.009853322027064858
1772896114021626400,1.91962646484375,0.09598317046165465,0.14943608983829618,0.009896357451193034
1772896114031595500,1.929595458984375,0.22336042709648607,0.17422434800565242,0.042598274819925425
1772896114041563400,1.9395634765625,0.33449615850448605,0.2361763617888093,0.005137728214636445
1772896114051531500,1.949531494140625,0.22062544917464255,0.3513973166838288,0.04114511686954647
1772896114061500700,1.959500732421875,0.32039807504713536,0.2146547042019665,0.06593600538540631
1772896114071468500,1.969468505859375,0.01600128673017025,0.025415596285462378,-0.260884723120369
1772896114081436400,1.9794365234375,-0.15891981136798858,0.230403769736737,-0.39003859750628467
1772896114091405300,1.9894052734375,-0.25520985582172867,0.2616657539628446,-0.3230754044976085
1772896114101373400,1.99937353515625,-0.5067623581796884,0.1442287304535508,-0.2664064456839114
1772896114111341600,2.009341552734375,-0.40432781962156294,0.18336919296979903,-0.15013550681192428
1772896114121310500,2.019310546875,-0.26288345918953415,0.3682306703239679,-0.11127736836839466
1772896114131278600,2.029278564453125,-0.25337737969756124,0.34319662070199847,-0.08534673523288219
1772896114141246500,2.03924658203125,-0.28780688804388044,0.23738442240431903,-0.13024462876468895
1772896114151215600,2.049215576171875,-0.3171697606503963,0.2130317791752517,-0.15597239627186207
1772896114161183500,2.05918359375,-0.28976678993999955,0.21325009810104964,-0.14355503244306891
1772896114171151600,2.069151611328125,-0.13616788133382796,0.18831424815654754,-0.1763683012317866
1772896114181120500,2.07912060546875,-0.00037350948750972747,0.23452274936288595,-0.17450827951356768
1772896114191088400,2.08908837890625,0.19298107092380523,0.2371966447472572,-0.1500635375542566
1772896114201056500,2.099056396484375,0.33789164616167544,0.2387863981567323,-0.12901431978475303
1772896114211025400,2.109025390625,0.37726913230419157,0.18575857232436538,-0.14660685776174068
1772896114220993500,2.11899365234375,0.3358803063392639,0.12265475815758109,-0.18877883346099406
1772896114230961700,2.128961669921875,0.10863280867636203,0.3764344350457191,0.15030611413847655
1772896114240930600,2.1389306640625,0.1448673206180334,0.5312680000133813,0.024900486370176077
1772896114250898700,2.148898681640625,0.39779754106998444,0.3579632510706782,0.08655567263122647
1772896114260866600,2.158866455078125,0.41971126671433445,0.2594420865640044,-0.10915359941376372
1772896114270835700,2.168835693359375,0.3734732471525669,0.22298238756433128,-0.23200872071534395
1772896114280803300,2.17880322265625,0.3651993398040533,0.15584464170634746,-0.2392949869996868
1772896114290771500,2.188771484375,0.32980829294919967,0.15258943930268287,-0.2947456925974227
1772896114300740600,2.19874072265625,0.36275954543650146,0.09584186229482293,-0.22363376414515077
1772896114310708500,2.20870849609375,0.41173371196389197,0.12180793206989765,-0.3244638631813228
1772896114320676600,2.218676513671875,0.39805823783278466,0.18496508385911584,-0.4779203676421195
1772896114330645500,2.2286455078125,0.248704127189517,0.2486987203620374,-0.44286867227684706
1772896114340613600,2.238613525390625,0.08350362811684608,0.25103885374739765,-0.259196587370336
1772896114350581800,2.248581787109375,-0.042053427353501316,0.26326836685389277,-0.1158138975531794
1772896114360550700,2.258550537109375,-0.01719604947268963,0.33678704592064024,0.05740188989785965
1772896114370518500,2.2685185546875,0.08638824364244937,0.42724458482861516,0.12115124912629835
1772896114380486400,2.278486328125,0.19910510676205156,0.4553859528161585,0.21353147232569752
1772896114390455600,2.28845556640625,0.20859598868489265,0.4663268874168396,0.2580488421073183
1772896114400423400,2.29842333984375,0.1798936258137226,0.5740710766904056,0.21542784399893133
1772896114410391600,2.3083916015625,0.07336509594023227,0.592656826955825,0.25151962300166486
1772896114420360400,2.3183603515625,-0.0156722009062767,0.42762876184061166,0.19817736092526464
1772896114430328600,2.32832861328125,0.012772387811541556,0.28520196624249217,0.2167865285988897
1772896114440296700,2.338296630859375,0.13934475780427455,0.21117752961069344,0.17639285115115344
1772896114450265600,2.348265625,0.357991600382328,0.20509820969700812,0.01455960915503092
1772896114460233500,2.3582333984375,0.3039431993305683,0.18914602280557155,-0.05427367944130674
1772896114470201600,2.36820166015625,0.16850772392451763,0.0612447422966361,0.08779442064594477
1772896114480170500,2.37817041015625,0.07115794128477573,0.05584361390545964,0.025075952534936368
1772896114490138600,2.388138671875,-0.10613105498850345,0.16848653500601649,-0.14007175690457224
1772896114500106500,2.3981064453125,-0.3116594727963209,0.29128815428838134,-0.2714647154541686
1772896114510075600,2.40807568359375,-0.4716080426901579,0.3715561614848673,-0.3350936860062182
1772896114520043500,2.41804345703125,-0.6825941413819789,0.22334522952735422,-0.4505038798630237
1772896114530011600,2.42801171875,-0.5929091942816972,0.24050065472871063,-0.43990817850343883
1772896114539980500,2.43798046875,-0.23217267910540101,0.2722187121592462,-0.38255437923073765
1772896114549948400,2.447948486328125,0.05627952110469341,0.1941590286619961,-0.5244579546723515
1772896114559916500,2.45791650390625,0.16231412998139857,0.17143237919956444,-0.5994684066668152
1772896114569885400,2.467885498046875,0.23344810586869716,0.2946351266287267,-0.5777031495824456
1772896114579853600,2.477853515625,0.20833236931264398,0.46479631684869527,-0.5841201039526611
1772896114589821700,2.48782177734375,0.253937351667881,1.307452279240638,-0.22933098940607158
1772896114599790600,2.49779052734375,-0.12942308324873447,0.3346276759296655,-0.5608570095259696
1772896114609758700,2.5077587890625,-0.15034312168061734,0.027248656931519507,-0.9706281161800027
1772896114619726600,2.5177265625,-0.04247545215785503,0.8602206990465522,-1.0600807158291339
1772896114629695700,2.52769580078125,0.5734978068470955,0.629920535814762,-0.5533752754684538
1772896114639663400,2.537663330078125,1.3654495640486477,0.397597780714184,-0.6436370726086199
1772896114649631500,2.547631591796875,1.7007003403127192,0.9812311971284449,-0.5324311255086213
1772896114659600400,2.557600341796875,1.2306430341958998,1.9421032045781612,-1.0529263140298426
1772896114669568500,2.567568603515625,0.4835141690611839,2.193845676550269,-2.1214996945247053
1772896114679536600,2.57753662109375,0.24380057305693625,0.2995660071596503,-1.7319130785696208
1772896114689505500,2.587505615234375,-0.8009224146425724,-0.7434186124399303,0.49647130232248454
1772896114699473700,2.5974736328125,-1.0271756405711174,0.3987617099270224,0.1859727995969355
1772896114709441500,2.607441650390625,-0.3125000152736902,1.6277195675149558,-1.1122495136793702
1772896114719410700,2.61741064453125,0.2447358080804348,1.1944824642732739,-0.7026094860590993
1772896114729378600,2.627378662109375,0.5175543858289718,0.9013685558624565,-0.2950504659639671
1772896114739346400,2.637346435546875,0.7171066518366337,1.2340708166874945,-0.7337317695535719
1772896114749315600,2.647315673828125,0.213164611774683,1.1653557385101914,-0.9348417133320123
1772896114759283500,2.657283447265625,-0.15057342330515383,0.3583132335521281,-0.9469477461893111
1772896114769251600,2.66725146484375,0.04793137947618961,-1.8790525819033383,-2.0311194586366415
1772896114779219700,2.6772197265625,0.6639069765686988,-6.041319561114907,-4.701609418478608
1772896114789188600,2.687188720703125,0.9663152214169501,-5.06544916036725,-5.5673044572830195
1772896114799156500,2.697156494140625,0.4154004177778959,0.9966939930677413,-2.9243861027166247
1772896114809125600,2.707125732421875,0.08343465453386306,3.659246437908709,0.011498531950823962
1772896114819093500,2.717093505859375,1.0936410401254892,2.735707989683747,3.0416873710170385
1772896114829061600,2.7270615234375,1.686517501181364,2.070316473645717,3.632886546510458
1772896114839029500,2.737029541015625,1.1676543708413838,3.0530843788221476,2.396827332484722
1772896114848998700,2.74699853515625,0.5946002161085605,2.787350498637557,1.7203610263332723
1772896114858966500,2.756966552734375,0.12700374714732168,1.7568907218292356,1.8722632140241562
1772896114868934700,2.7669345703125,-0.7570213135957717,1.5657164080664514,1.4216085275135935
1772896114878903600,2.776903564453125,-1.0325339527338742,1.2131217713568359,0.2997476473368704
1772896114888871400,2.786871337890625,-0.9611918870538473,0.3015398645158857,-1.6050522470243274
1772896114898839600,2.796839599609375,-0.6540846707344055,-0.37834735599495467,-1.3061479186438023
1772896114908808400,2.806808349609375,0.3820516904056072,-1.4895494064480066,-1.3504612537533045
1772896114918776600,2.816776611328125,1.4349083002001046,-1.2204977069523184,-1.5978203960746526
1772896114928744400,2.826744384765625,1.933802409222722,-0.0236625420730561,-1.1230078582547605
1772896114938713600,2.836713623046875,0.7811877866029739,0.6723454998943954,-0.39958552046529944
1772896114948681500,2.846681396484375,-0.9377677568465471,1.1133666811410337,0.6922996159035713
1772896114958649600,2.856649658203125,-1.1207266154497861,2.2148289894767106,2.0335195055156947
1772896114968618800,2.86661865234375,-0.6607593261927366,3.813366447779536,3.4649434707313773
1772896114978586400,2.87658642578125,-1.0800070670485495,4.620765949481726,4.320755997946858
1772896114988554500,2.886554443359375,-1.8729384829372167,4.38744526938498,4.127630257855356
1772896114998523400,2.8965234375,-2.02586285328269,3.716900462237,3.3977924270004034
1772896115008491500,2.906491455078125,-1.7896669100105762,3.1717715485230085,2.649425252242386
1772896115018459600,2.916459716796875,-0.6408855819433927,2.1570814416460693,3.2108865843370555
1772896115028428500,2.926428466796875,-0.07655074023902415,2.016982942865044,2.534634213197231
1772896115038396700,2.936396728515625,-0.09477613275945186,1.5520207679301499,1.9919841106869278
1772896115048364500,2.946364501953125,-1.1413041240543127,0.7316952222246677,1.3804143473379313
1772896115058333700,2.956333740234375,-1.6487784298956394,0.06174878282863647,1.442901052519679
1772896115068301300,2.96630126953125,-0.9752087219685316,-0.12854728679489344,1.8973291200891136
1772896115078269400,2.97626953125,-0.5001531691730022,0.05381280219759792,2.387343757085502
1772896115088238600,2.986238525390625,-0.09679331780076027,-0.037246501995809374,3.1982378229051824
1772896115098206500,2.99620654296875,-0.3405769397228956,-0.2981377279222011,3.281619578208029
1772896115108174600,3.006174560546875,-0.6591103899419307,-1.696275947999209,1.8185468214057385
1772896115118143500,3.0161435546875,0.1591752474337816,-3.809112297466397,-0.7803225480757653
1772896115128111600,3.026111572265625,0.3898842837274074,-5.798230351197719,-3.264454800656438
1772896115138079700,3.036079833984375,0.31344226455986496,-6.137610774612426,-3.143040251818299
1772896115148048600,3.046048583984375,0.1609147845774889,-6.647900722396374,-3.297628463722765
1772896115158016500,3.0560166015625,-0.4498784414410591,-7.799943098086119,-4.897468967448175
1772896115167984400,3.065984375,-0.36232933732569217,-7.200488427683711,-4.3212376439839595
1772896115177953500,3.07595361328125,0.15656360363066196,-4.497850056169927,-0.43522360088378187
1772896115187921400,3.08592138671875,-0.13769699059724808,-2.595897952455282,3.1765570292338725
1772896115197889500,3.0958896484375,-1.5695938340216875,-2.2695329318277535,3.9497032559394833
1772896115207858700,3.105858642578125,-2.801869437855482,-2.117259864997864,3.3247271907895803
1772896115217826600,3.11582666015625,-2.5981466081649063,-1.817493074569106,2.6792802922800183
1772896115227794700,3.125794677734375,-1.3886129974931478,-1.3708458701342343,1.9106784310057758
1772896115237763600,3.135763671875,-0.6335486631840467,-0.9501086213730275,0.8592000507619232
1772896115247731500,3.1457314453125,-0.4738251342177391,-0.499440198598057,-0.2610480604559183
1772896115257699600,3.155699462890625,-0.21951544210612772,-0.18046762630939484,-1.0823526072613894
1772896115267668500,3.16566845703125,0.5491466249227523,0.2407319792665541,-1.2141790253248066
1772896115277636600,3.17563671875,1.4749673388659954,0.5852469890907407,-1.35839555388391
1772896115287604500,3.1856044921875,1.8750024297296999,0.9583758067198097,-1.1507852152355014
1772896115297573600,3.19557373046875,1.6499305225402117,1.0959449331536888,-0.7235032210059463
1772896115307541500,3.20554150390625,0.17201719335019588,0.8351350653678178,-0.8226736432015895
1772896115317509600,3.215509521484375,-1.582629256683588,0.4372269035302102,-0.8120455739423632
1772896115327478500,3.225478515625,-1.7862503795653581,0.42982817158102987,-0.1584960329979658
1772896115337446400,3.2354462890625,-2.29136497053802,0.572884204993397,0.24379765044748783
1772896115347414500,3.24541455078125,-2.9542811825037,0.6462592378057539,0.2634222422413528
1772896115357383400,3.255383544921875,-2.0270757362037894,0.5866966033771633,0.3267904064327478
1772896115367351600,3.2653515625,-0.5186509488940239,0.14772271004915236,0.386874872778356
1772896115377319700,3.275319580078125,-0.11180793158113955,-0.47445860981568694,0.04397577371820807
1772896115387288600,3.28528857421875,-0.8985276333481073,-1.0711213114120066,-0.6446000724218786
1772896115397256700,3.295256591796875,-1.495160232067108,-1.4390955227568745,-0.936897842144221
1772896115407224600,3.305224609375,-1.3131775250196456,-1.58189801979959,-0.3628188744083047
1772896115417193700,3.31519384765625,-0.41308863370418547,-1.1272924037061631,0.1660414068762213
1772896115427161300,3.325161376953125,0.10047639022767543,-0.36928339424729345,0.7448178117133677
1772896115437129500,3.33512939453125,-0.054846273431181904,0.11378967998288571,0.956450026289001
1772896115447098400,3.345098388671875,-0.05176642759442329,0.4617869058996439,0.873380990197137
1772896115457066500,3.35506640625,0.5131225408613681,0.9228718010097742,0.9986902814514934
1772896115467034600,3.36503466796875,1.2445137386381626,0.876952784269303,0.9044028820570558
1772896115477003500,3.37500341796875,1.4606541513532398,0.29781521796956656,0.21262484234217552
1772896115486971600,3.3849716796875,1.1324568007320166,-0.8223778751254082,-1.0397365775890648
1772896115496939800,3.394939697265625,1.592840269574523,-2.1288274070642887,-2.244426255360991
1772896115506908700,3.40490869140625,2.633461667174101,-2.548987732720375,-2.56027952658534
1772896115516876500,3.41487646484375,2.7087451639562845,-0.5356528275014832,-1.1989274609833955
1772896115526844400,3.424844482421875,1.531919644665718,1.8704305917695163,1.498571501815319
1772896115536813600,3.4348134765625,-0.43000878884494304,3.1089991582676766,2.5751120617970824
1772896115546781400,3.444781494140625,-1.885998455518484,3.957922802752256,3.079617580960691
1772896115556749600,3.45474951171875,-1.7388672816216946,4.070817360526323,2.5072373799666763
1772896115566718500,3.464718505859375,-0.4691816923260689,2.7798385155722496,0.9547294130414724
1772896115576686600,3.4746865234375,0.8795768491625785,1.4558660402938723,-0.7172163958214223
1772896115586654700,3.48465478515625,0.6387351259112358,0.8712774420466274,-1.7098326180562375
1772896115596623600,3.49462353515625,-0.9269126008331775,0.36831929845549166,-1.9986404998362064
1772896115606591500,3.504591552734375,-0.6584077946305275,0.44287349458243697,-1.3852296386651695
1772896115616559600,3.5145595703125,-0.02961713962852955,0.5195888873312622,-0.7743280569013208
1772896115626528500,3.524528564453125,-0.28806641576290126,0.4392491300728172,-0.45469855507388707
1772896115636496600,3.53449658203125,-0.3308522490441799,0.42914026238210495,-0.053024574429355556
1772896115646464500,3.544464599609375,-0.42026188633441924,0.2465639733556658,0.4329692460857332
1772896115656433700,3.55443359375,-0.36919220883250237,0.043941359991952776,0.6053926821492612
1772896115666401500,3.564401611328125,-0.37643735765516756,-0.2381712619330734,0.654728448530659
1772896115676369400,3.574369384765625,-0.30325287897884845,-0.5942139932699502,0.5963141438869759
1772896115686338600,3.584338623046875,0.24259704248607158,-0.77242236941047,0.8870573411110788
1772896115696306400,3.594306396484375,0.5756295581787825,-0.8430888008512556,0.9971462668798863
1772896115706274600,3.604274658203125,-0.0202472537368536,-0.866380609915778,0.8042844384215772
1772896115716243500,3.614243408203125,-0.8551438341736793,-0.7510400472290814,0.5141052682884037
1772896115726211600,3.624211669921875,-1.169183480104804,-0.5294271944522857,0.45263132034577425
1772896115736179700,3.6341796875,-0.693785982003808,-0.4382129188928753,0.4387587162073701
1772896115746148600,3.644148681640625,-0.01937748516499996,-0.7014887384008616,0.05317424856573343
1772896115756116700,3.65411669921875,0.8874299007505178,-0.9004261604458094,0.22272125241011378
1772896115766084400,3.66408447265625,1.5192331815719604,-0.8173392964363098,0.4453129601564258
1772896115776053500,3.674053466796875,1.372390761488676,-0.8860824316643178,0.25899711927548047
1772896115786021400,3.684021484375,1.0385112735778093,-0.7664999205589293,0.13753208235912023
1772896115795989500,3.693989501953125,1.566515741750598,-0.6315239524234086,0.12107209207601845
1772896115805957600,3.70395751953125,1.815557138070464,-0.7001259256150573,-0.4384804107226431
1772896115815926500,3.713926513671875,0.7246551675200462,-1.2461676433250308,-1.3912445150405168
1772896115825894700,3.723894775390625,0.7845581398189068,-1.2707456197425722,-2.0428315237402916
1772896115835862500,3.733862548828125,0.9845400294154882,-2.1932047482982275,-2.6055171369329093
1772896115845831700,3.743831787109375,1.126144548845291,-3.6899864440873262,-3.2126579779237505
1772896115855799600,3.753799560546875,2.0378613341122866,-4.175210339675844,-3.0833158509567378
1772896115865767400,3.763767333984375,2.382897591331601,-2.489928810030222,-1.3398714706778525
1772896115875736600,3.773736572265625,1.548503115198016,0.18616971040852368,1.226863661787659
1772896115885704400,3.783704345703125,-0.17437924630641935,1.3844137922376394,3.109158440482616
1772896115895672600,3.793672607421875,-0.9910609556168317,0.20687442558929323,2.501465518566966
1772896115905641500,3.803641357421875,-0.15623568685054778,-0.48473377398401496,1.8550373539350926
1772896115915609600,3.813609619140625,0.7364093181997537,-0.05118570509701967,2.872875403448939
1772896115925577700,3.82357763671875,0.6774544404059648,0.33775742532275616,3.51221667855978
1772896115935546600,3.833546630859375,-0.6294762991786003,2.782808763554692,4.054333550976216
1772896115945514500,3.843514404296875,-2.5831851858764887,3.8543656899049874,4.3768607470065355
1772896115955482400,3.853482421875,-3.751414726257324,3.032712037400901,3.2220991754859685
1772896115965451500,3.863451416015625,-3.156479579105973,3.4427848304152486,2.0090273076854643
1772896115975419600,3.873419677734375,-2.045404004576802,2.618378372071683,0.9228414058715104
1772896115985387500,3.883387451171875,-0.960256067508459,1.675546755964309,-0.5546037212848663
1772896115995356700,3.893356689453125,-0.41230362080633637,1.191021290968731,-2.243382153135538
1772896116005324500,3.903324462890625,-1.9728262596219777,0.11332410829775034,-4.68586473685801
1772896116015292700,3.913292724609375,-3.34384397919178,-0.439770304402709,-4.39720824624747
1772896116025261600,3.923261474609375,-1.0254588997811078,0.12340681863389909,-3.05288476459682
1772896116035229400,3.9332294921875,1.2930951064556837,0.8837642178498208,-2.1090058313935995
1772896116045197600,3.943197509765625,1.066768230769038,1.0132092937346546,-1.483965614966303
1772896116055166500,3.95316650390625,-0.008210194462537766,1.1872232869252561,-1.0054772381778805
1772896116065134600,3.963134521484375,-0.27832711203694344,1.152292697189003,-0.3893742883786559
1772896116075102500,3.9731025390625,0.15358955625593662,0.9718081197448074,0.3476119529262185
1772896116085071600,3.983071533203125,0.6451905856609345,0.736088123421371,0.7186790157198906
1772896116095039500,3.99303955078125,0.6900649156540631,0.4377864371091127,0.8437319210603833
1772896116105007600,4.003007568359375,0.28599896183907986,0.1617330421578139,0.9432980645753443
1772896116114976800,4.012976806640625,-0.2858522468447685,-0.006405044736713171,0.9701765730202198
1772896116124944400,4.0229443359375,-0.6499713901966809,-0.09113536510430276,0.8839695311635732
1772896116134912500,4.03291259765625,-0.5334510431408882,-0.2845391184195876,0.7407819803260266
1772896116144881400,4.04288134765625,-0.3344914823293686,-0.44324258362315594,0.6530566428609192
1772896116154849500,4.052849609375,-0.46492052775025366,-0.5776056805573403,0.5570163353845476
1772896116164817700,4.062817626953125,-0.5153945774465799,-0.5191576563071459,0.3406691480509937
1772896116174786300,4.072786376953125,-0.3121732675373554,-0.41026583136841654,0.2325949961706996
1772896116184754400,4.08275439453125,-0.05325228223800659,-0.3694855657558888,0.1643092493213713
1772896116194722300,4.092722412109375,0.09391220940649508,-0.28905301564745606,0.10742562484368681
1772896116204691500,4.10269140625,0.15741759011149406,-0.1540991862785071,0.032796646447479726
1772896116214659300,4.112659423828125,0.09723463182747363,0.031134412323683497,0.010131079522520302
1772896116224627500,4.12262744140625,0.07758417493999004,0.02039214210025966,-0.0007176467500627041
1772896116234596600,4.1325966796875,-0.00045183542072772977,-0.07303608318157494,-0.10090835190415381
1772896116244564200,4.142564208984375,0.19576397964060305,-0.11049326878599822,-0.1169450022086501
1772896116254532400,4.152532470703125,0.3943751654058695,-0.10800517829731106,-0.10579802364185452
1772896116264501200,4.162501220703125,0.5400502952754497,-0.0381614614162594,-0.062052697678655386
1772896116274469400,4.172469482421875,0.6590946078509092,0.038459311851672826,-0.022720073591172694
1772896116284437500,4.1824375,0.5406774872630834,0.04959397892616689,-0.029588351925462483
1772896116294406400,4.192406494140625,0.37281156837344165,0.08503474667426199,-0.13297668407708405
1772896116304374500,4.20237451171875,0.4131874179035425,0.1333923156732693,-0.12075447749420999
1772896116314342400,4.21234228515625,0.45102468886673447,0.15902834977637975,-0.09181056095212697
1772896116324311600,4.2223115234375,0.35143735643327234,0.19426522898282855,-0.113950934959203
1772896116334279400,4.232279541015625,0.331413390058279,0.15794968769419937,-0.01257481941282749
1772896116344247300,4.242247314453125,0.39203883141279217,0.18112404439151286,-0.012014847442507743
1772896116354216400,4.252216552734375,0.42875206678211686,0.19330102359317242,0.007809650837630033
1772896116364184300,4.262184326171875,0.23391689242422578,0.18420228279307482,0.11200447706654668
1772896116374152400,4.27215234375,0.0742354490339756,0.1823151538722217,0.11833046521767973
1772896116384121300,4.282121337890625,-0.107291915461421,0.15058843821119516,0.0476322503991425
1772896116394089500,4.29208935546875,-0.08799100266396999,0.13121343726422638,0.01009089364260435
1772896116404057300,4.302057373046875,0.06327858621180057,0.15874598917104302,-0.03876739142015576
1772896116414026500,4.312026611328125,0.16898060213327407,0.15824951089099049,-0.045611412096023554
1772896116423994400,4.321994384765625,-0.01526362010538578,0.15018139178026466,-0.06439692271724343
1772896116433962200,4.331962158203125,-0.41057694314420223,0.1606516401292756,-0.15737287418693302
1772896116443931400,4.341931396484375,-0.5765928502529859,0.15795304869506507,-0.1574387790299952
1772896116453899300,4.351899169921875,-0.21508827331364153,0.1975747188569978,-0.015030688132345675
1772896116463867400,4.361867431640625,0.23835458261072634,0.1646762925354764,0.07477934665232897
1772896116473836500,4.37183642578125,0.40085166794359683,0.09714772072900087,0.04479541953802108
1772896116483804400,4.381804443359375,0.0771761786609888,0.01640120930057019,-0.004341244074702263
1772896116493772300,4.391772216796875,-0.1744131485760212,-0.039470790449157356,-0.042927725970000025
1772896116503741200,4.4017412109375,-0.16821838558912275,-0.06434398695360868,0.0028163725949823856
1772896116513709300,4.411709228515625,-0.006504559588432312,-0.11870711651034653,0.11920330252945423
1772896116523677400,4.421677490234375,-0.07411036134958267,-0.13123071719259022,0.08037322113662958
1772896116533646300,4.431646240234375,-0.12866203574836255,-0.19003913572039455,0.09592150340229272
1772896116543614500,4.441614501953125,0.03739595693647861,-0.1689585729645565,0.11377923165410757
1772896116553582300,4.451582275390625,0.156682846096158,-0.17184994702450931,0.11430793170332908
1772896116563551500,4.461551513671875,0.21458558448851106,-0.18317359733246266,0.1843573272243142
1772896116573519400,4.471519287109375,0.2582686588704586,-0.1457456743551418,0.23277298308610914
1772896116583487200,4.4814873046875,0.211931855109334,-0.10015694901496171,0.21454656765237448
1772896116593456400,4.491456298828125,0.1381312903612852,-0.06099138859007507,0.16075769431963563
1772896116603424300,4.50142431640625,0.09736790281832218,-0.05727233153432607,0.08487623164430261
1772896116613392400,4.511392333984375,0.08148059785664082,-0.0326338205685839,-0.022743892858177423
1772896116623361300,4.521361328125,0.06527823559641838,-0.014976729455403983,-0.10596008233577012
1772896116633329400,4.531329345703125,0.10418401257395744,0.027761026900447905,-0.0929847192980349
1772896116643297500,4.541297607421875,-0.08926993655860424,0.02216795613374561,-0.19437121010795236
1772896116653266400,4.551266357421875,-0.22144261077642438,0.11161609880346804,-0.20020459243655203
1772896116663234600,4.561234619140625,-0.01606324605047703,0.19741653262060135,0.002795914328843355
1772896116673202200,4.5712021484375,0.18508418019413947,0.25363058727364984,0.020231179384887218
1772896116683171300,4.58117138671875,0.3227478530436754,0.2432581367433071,-0.11761954046934843
1772896116693139200,4.59113916015625,0.1971130561619997,0.15802874427977948,-0.19900822225883602
1772896116703107300,4.601107421875,-0.0055693245649337765,0.12786350578181443,-0.30850057037398215
1772896116713076500,4.611076416015625,0.00036240357160568235,0.13093385313786565,-0.2841016037851572
1772896116723044400,4.62104443359375,0.12325462374687195,0.14486922031417487,-0.2516685299530625
1772896116733012500,4.631012451171875,0.17614800954461096,0.16198274260256437,-0.20562164904922245
1772896116742981400,4.6409814453125,0.10966332076787948,0.15104889532979576,-0.08369096738249063
1772896116752949500,4.650949462890625,0.0492693500816822,0.15880557387117294,-0.02844268902167678
1772896116762917400,4.66091748046875,0.07200725159049033,0.11969791764598339,0.02181947148963809
1772896116772886300,4.67088623046875,0.08428396483957767,0.10022815108764917,0.0573515342503786
1772896116782854400,4.6808544921875,0.08226502623260021,0.08307499090861528,0.07707081859037279
1772896116792822300,4.690822265625,-0.03755962306559086,0.08223970912825315,0.04829845922291279
1772896116802791400,4.70079150390625,-0.14506547353863716,0.06163472799491137,0.05758724270239472
1772896116812759300,4.71075927734375,-0.11888181549012661,-0.003980155677348375,0.11914221999198198
1772896116822727400,4.7207275390625,-0.031630233016610144,-0.019415332957357166,0.13536796312779187
1772896116832696300,4.7306962890625,-0.005870353338122368,-0.03804916014820337,0.15711115451082586
1772896116842664400,4.74066455078125,-0.05994681144058704,-0.0097361253881827,0.12914061304554342
1772896116852632300,4.75063232421875,-0.012095511463284492,0.014063888926804064,0.1080465332210064
1772896116862601200,4.760601318359375,0.03789806123971939,-0.0024222221782431003,0.07305354577302932
1772896116872569300,4.7705693359375,0.13087035944759845,-0.020316409982927143,-0.005759440309554338
1772896116882537500,4.780537353515625,0.053119011247158045,-0.02170114233959466,-0.09164704095348715
1772896116892506400,4.79050634765625,-0.03834814309477806,0.008060593391396104,-0.06513108221068978
1772896116902474500,4.800474609375,-0.021911387556791305,0.0570942715536803,-0.023752485378831623
1772896116912442400,4.8104423828125,0.05098141469657421,0.0729818322436884,0.011850596791505814
1772896116922411500,4.82041162109375,0.040643560555577274,0.06271123465262353,0.021458383092284202
1772896116932379400,4.83037939453125,0.011119359907507896,0.08452033087871968,0.0033325054235756393
1772896116942347300,4.84034716796875,0.055766310885548585,0.07560242653824388,0.06418649483695626
1772896116952316200,4.850316162109375,-0.0027788170635700223,0.05705708134844899,0.014220102401822804
1772896116962284300,4.8602841796875,-0.03734627257585525,0.0323016294721514,0.0114002226755023
1772896116972252400,4.87025244140625,0.006724339818954468,0.026593663621507585,0.0577308889567852
1772896116982221300,4.88022119140625,0.16431085675656795,0.04762527266908437,0.08269172721207141
1772896116992189400,4.890189453125,0.19502806658148764,0.05737009282037615,0.1356441497206688
1772896117002157600,4.900157470703125,0.11020634160339832,0.055849239928647876,0.13086349131539463
1772896117012126500,4.91012646484375,-0.024833997005224227,0.035902795769274236,0.1169618072129786
1772896117022094600,4.920094482421875,-0.0319762699753046,0.023953743571974336,0.12093801736757158
1772896117032062200,4.930062255859375,-0.021956980264186857,0.033596966512314974,0.10567249756604433
1772896117042031400,4.94003125,-0.08190437622666358,0.0635602526973933,0.163839878243953
1772896117051999200,4.949999267578125,-0.21383096672892568,0.07690558155868202,0.1406926652818918
1772896117061967400,4.95996728515625,-0.17167700161039828,0.07769921615440398,0.09372180140092969
1772896117071936300,4.969936279296875,0.042182022169232364,0.04927274761516601,0.06860314223542809
1772896117081904400,4.979904296875,0.26525778710544107,0.050191104569099844,0.019157851064950226
1772896117091872500,4.98987255859375,0.21226444806456565,0.04331730980947614,-0.038193244794011115
1772896117101841400,4.99984130859375,0.052989831909537315,0.07071498329024761,-0.029863661735504865
1772896117111809500,5.0098095703125,0.1316740770459175,0.07913823598157614,0.014687866044044495
1772896117121777400,5.01977734375,0.22779753276109693,0.06586107698567212,0.03776654381453991
1772896117131745300,5.029745361328125,0.24387363829314707,0.05662574072647839,0.06167626558169722
1772896117141714400,5.03971435546875,0.1291904435366392,0.07703757390789687,0.041062516620010134
1772896117151682300,5.049682373046875,0.03435878119766712,0.12086897071935236,0.03810235164016485
1772896117161651500,5.0596513671875,-0.02493278120458126,0.09269954568110406,0.012483633998036384
1772896117171619800,5.069619873046875,-0.01649754581451416,0.05719301922041922,-0.059438861918449395
1772896117181587700,5.079587646484375,0.09975099856257438,0.03464103220514953,-0.03266980519741773
1772896117191555800,5.089555908203125,0.1559557008653879,0.034542321071028705,0.030128011760115623
1772896117201524700,5.099524658203125,0.10316986709535121,0.060907034774869674,0.03476984621658921
1772896117211492900,5.109492919921875,0.011557166802883148,0.08067662452999502,0.10381050308644771
1772896117221461800,5.119461669921875,-0.01919628337919712,0.08183445279560983,0.1514521058358252
1772896117231430000,5.129429931640625,-0.06034779345691204,0.0631821766326204,0.11960238484963774
1772896117241397800,5.139397705078125,-0.07042261274755,0.03788308286629617,0.0899063347660005
1772896117251366000,5.149365966796875,-0.0890887347728014,0.03694079704750329,0.08227817797511816
1772896117261334800,5.159334716796875,-0.05273205775618553,0.042162148424983024,0.036203093890100714
1772896117271302700,5.169302734375,0.017977555239200593,0.03747052001003176,-0.006027881987392902
1772896117281271800,5.179271728515625,0.06657470514774322,0.028170630614645777,-0.0006835983499884605
1772896117291239700,5.18923974609375,0.03166530432999134,0.035141529073193664,0.03458031499385834
1772896117301207800,5.199207763671875,-0.020987842971086502,0.07337010090891272,0.06730871851071715
1772896117311176000,5.209176025390625,-0.013186229309439659,0.102805198501423,0.08498875210806726
1772896117321144800,5.219144775390625,-0.06585574322342873,0.11631233032830059,0.07238207625225186
1772896117331113000,5.229113037109375,-0.11563479639291763,0.153243811558187,-0.0029819384202361106
1772896117341081900,5.239081787109375,0.0005669862329959869,0.17809428477417677,-0.03172609460651874
1772896117351050000,5.249050048828125,0.17414894468188286,0.18057357090190052,-0.07157061373889446
1772896117361017600,5.259017578125,0.2098357596129179,0.20088208983931688,-0.14906082678511737
1772896117370985700,5.26898583984375,0.08865385048687457,0.18352862131521105,-0.15121698190569877
1772896117380954600,5.27895458984375,0.09036942223310471,0.19947543791178612,-0.09473200135678052
1772896117390922800,5.2889228515625,0.1270727207303047,0.15818181594964115,-0.02841799297183752
1772896117400891000,5.298890869140625,0.06974339831173419,0.10888024409878998,-0.008578735513985157
1772896117410859800,5.30885986328125,-0.014139584511518477,0.10619232018906623,0.002636485983431339
1772896117420828000,5.318827880859375,-0.14740473014116287,0.13047332295402883,0.020795389138907192
1772896117430796000,5.328796142578125,-0.13270108200609684,0.14103987128436565,0.10805383974462747
1772896117440765000,5.338764892578125,-0.06750643303990364,0.12307280090656131,0.05713759923875331
1772896117450732800,5.34873291015625,0.07560849095284938,0.09347571768537163,0.04096533985584974
1772896117460700700,5.35870068359375,0.18947160149812697,0.11296853632573038,0.012122253339737652
1772896117470669800,5.368669921875,0.199675015604496,0.13701861641164867,-0.031534809818118806
1772896117480637700,5.3786376953125,0.17542144883573055,0.10852836192119866,-0.025506927830725907
1772896117490606800,5.38860693359375,0.12261691036522387,0.080191069502756,-0.025668548133224247
1772896117500574700,5.39857470703125,0.11893383793830871,0.06171831462513655,0.017554507521539926
1772896117510542800,5.40854296875,0.10932605163753031,0.07123564616348595,0.043893210001289845
1772896117520511000,5.418510986328125,0.01987725138068199,0.08439111500848084,0.01588876626640558
1772896117530479900,5.42847998046875,-0.14346037642955778,0.09184884713590144,0.015915508142858744
1772896117540447700,5.43844775390625,-0.14405191258192063,0.07978405960444361,0.051054918324202295
1772896117550416000,5.448415771484375,-0.007263269001245499,0.08123451414108276,0.0427121835231781
1772896117560384800,5.458384765625,0.012552607581019401,0.05779354239683598,0.02850508673340082
1772896117570353000,5.468352783203125,0.08901216240525245,0.020439744101651013,0.06816328951343893
1772896117580320800,5.47832080078125,0.07780687777996063,-0.008594371474534273,0.07582169531211257
1772896117590290000,5.4882900390625,-0.010592121163010596,-0.0220463755806908,0.08725465121343731
1772896117600257800,5.4982578125,-0.0936935982197523,-0.043075683073326945,0.10398030669540166
1772896117610225700,5.5082255859375,-0.10064180992245673,-0.022790033554844557,0.08531476919203997
1772896117620194800,5.51819482421875,-0.01159106907248497,-0.010690466970950364,0.11527531543076038
1772896117630162700,5.52816259765625,0.052879357272386546,-0.019372370598465204,0.12615619040727616
1772896117640130800,5.538130859375,0.0414443555444479,-0.020996318538486956,0.1372442783936858
1772896117650099700,5.548099609375,0.08252747656106948,-0.030930925640836358,0.10555135540440679
1772896117660067800,5.55806787109375,0.20437047994434832,-0.01662515424955636,0.10612097198590635
1772896117670036700,5.56803662109375,0.21342180140614508,-0.03708495475854724,0.0733064976207912
1772896117680004900,5.5780048828125,0.10804302608966827,0.004577427450753748,0.06178425600081682
1772896117689973000,5.587972900390625,0.00001695113480091095,0.06482168746795505,0.01860518561825156
1772896117699940600,5.597940673828125,-0.04379413354098797,0.12989026236906648,0.043438890362530944
1772896117709909800,5.60790966796875,0.09807575882673263,0.17239439263213424,0.05359130493402481
1772896117719877600,5.617877685546875,0.1542442207723856,0.18860818960182368,0.03349149684384465
1772896117729845800,5.627845703125,0.12673545159995556,0.1394537711367011,0.0375086235307157
1772896117739814700,5.637814697265625,0.033277415701746936,0.10310651953555643,-0.014724252531677483
1772896117749782800,5.64778271484375,-0.10252513945102691,0.07578717198800296,-0.04803717793822288
1772896117759751000,5.6577509765625,-0.12585574615597725,0.049364846345409746,-0.016873393389582634
1772896117769719800,5.6677197265625,-0.06131985335946083,0.06496149779744446,-0.009008505233377219
1772896117779688000,5.67768798828125,0.017785247537493706,0.06699256523363292,-0.007054448556154966
1772896117789655800,5.68765576171875,0.032011341288685796,0.06758285927698016,0.011685761618614196
1772896117799624700,5.697624755859375,-0.045506782677769655,0.0832972188245505,0.021539777765423058
1772896117809592800,5.7075927734375,-0.11892390106618404,0.07888780488446355,0.03159881496503949
1772896117819560700,5.717560791015625,0.03399637762606144,0.05235602751802653,0.07286153033226728
1772896117829529900,5.72752978515625,0.20551205119490623,0.027788061037845906,0.07980608877316117
1772896117839497700,5.737497802734375,0.1700122832685709,0.042897951886244116,0.03459741225913167
1772896117849465900,5.7474658203125,0.16173077713549136,0.05253953085877001,0.11762202468737959
1772896117859434800,5.757434814453125,0.07032499759197235,0.04064093020707368,0.09399316568821668
1772896117869403000,5.76740283203125,0.020675708281993863,0.06236592834629118,0.016242255879193545
1772896117879370800,5.777370849609375,0.11642623903155326,0.04642075571753084,0.05571501908972859
1772896117889339600,5.787339599609375,0.14229834691286086,0.07361344467811286,-0.027338234911113975
1772896117899307800,5.797307861328125,0.18939093747735022,0.05410053309779614,-0.027855098392069337
1772896117909275600,5.807275634765625,0.06420446888506412,0.045061523128300904,-0.03053542351722717
1772896117919244800,5.817244873046875,-0.07284253337085246,0.03721877373866737,-0.07806772067323327
1772896117929213000,5.827212890625,-0.03515548453330993,0.020356595862843094,-0.012732055801153183
1772896117939180800,5.837180908203125,0.0633732787579298,0.027050723206624386,0.0509293922483921
1772896117949150000,5.84714990234375,0.024468086302280423,0.048634303581155836,0.05611687788888812
1772896117959117800,5.857117919921875,-0.10845043784677982,0.05060037948973477,0.06159706286564469
1772896117969085700,5.867085693359375,-0.16415946558713912,0.010848580142110585,0.06496054794937371
1772896117979054600,5.8770546875,-0.056954059365391725,-0.014493768244050442,0.03766206052675843
1772896117989022700,5.887022705078125,0.06013444296717643,-0.01475486686564982,0.016265344493836164
1772896117998990800,5.896990966796875,0.03839081319272518,0.0010835939856246113,0.003119593325257301
1772896118008959700,5.906959716796875,-0.015218611919879912,0.04161704523023218,0.050187341709434986
1772896118018927900,5.916927978515625,-0.012521043398976325,0.037343788357824086,0.0669337477184832
1772896118028895700,5.926895751953125,0.019447043269872663,0.05108271964658052,0.03592734568864107
1772896118038865000,5.936864990234375,0.11120236690342426,0.05032174521144479,0.023809037871658802
1772896118048832800,5.946832763671875,0.049124973174929615,0.05086308554653078,-0.02525660633146763
1772896118058800600,5.956800537109375,-0.035216859331727024,0.1102338871974498,-0.05165478391349315
1772896118068769800,5.966769775390625,-0.12248363937437534,0.11019998492784798,-0.032375936817377805
1772896118078737700,5.976737548828125,-0.07188800912499427,0.08238726437278092,-0.049692543929815286
1772896118088705800,5.986705810546875,0.13880992027521133,0.034540896298922596,-0.01775266044214368
1772896118098674700,5.9966748046875,0.23243746752142905,0.009250460763089358,-0.027182313697040078
1772896118108642800,6.006642822265625,0.19829437490105628,-0.0024192265035584567,0.027815204773098227
1772896118118608600,6.016608642578125,0.12406710917353629,0.01606927393246442,0.09933043506294488
1772896118128577800,6.026577880859375,0.05845978775322437,0.025991825270839035,0.14741057536005972
1772896118138545700,6.036545654296875,0.020650573840737343,0.012669585024192928,0.17373115766122937
1772896118148513800,6.046513671875,-0.017660159853100776,0.0007257569912821054,0.16635653723999858
1772896118158482700,6.056482666015625,-0.11413315965831279,-0.0032901641191914674,0.18071882459148764
1772896118168450800,6.066450927734375,-0.15711714586019515,-0.005190590913034975,0.16566636301875112
1772896118178418700,6.076418701171875,-0.21735855633318424,-0.03156794490274042,0.0742908324830234
1772896118188387800,6.086387939453125,-0.1465063199967146,-0.06073021690323949,0.032929332916438576
1772896118198355700,6.096355712890625,0.09361702585220337,-0.057631629833392796,0.04691358073577285
1772896118208323800,6.10632373046875,0.24860885012149808,-0.039342926285788414,0.036626141607761384
1772896118218292700,6.116292724609375,0.24947861869335172,-0.001853665042668581,0.018138298758864402
1772896118228260900,6.1262607421875,0.18927111048996448,0.01328318687789142,0.03025660657584667
1772896118238228700,6.136228759765625,0.18856325448155403,0.044921384005248546,0.08849822153374552
1772896118248198000,6.146197998046875,0.13402794669568538,0.06833901140652597,0.09260039615556598
1772896118258165800,6.156165771484375,0.04122515983581543,0.06942695277370511,0.06645633946508168
1772896118268133600,6.166133544921875,0.008142974445223808,0.06626611412260681,0.03863324364647269
1772896118278102500,6.1761025390625,-0.08581716575622558,0.08329024109449237,0.037937078075855966
1772896118288070700,6.186070556640625,-0.05532908851206302,0.06523973021693527,0.04395926097482442
1772896118298038800,6.196038818359375,0.043377953955531116,0.04767448210567236,0.05201061161383986
1772896118308007700,6.206007568359375,0.09955109207630157,0.027987127273902294,0.026008009220659732
1772896118317975800,6.215975830078125,0.015937573844194412,0.027642807348258792,-0.0018109949447214601
1772896118327943700,6.225943603515625,-0.156164375180006,0.05787504666782915,0.010629530563950537
1772896118337912800,6.235912841796875,-0.1359492701470852,0.10662661995310335,0.04939268420040607
1772896118347881000,6.245880859375,-0.04277706545293331,0.11796678300444036,0.040142625296115876
1772896118357848600,6.2558486328125,0.07115268058776855,0.09289959829784929,0.0034068858340382574
1772896118367817700,6.265817626953125,0.15143091691732405,0.07649469920285046,-0.027712913442403075
1772896118377785600,6.27578564453125,0.1538730493724346,0.08768690515086054,-0.05676233618557453
1772896118387753700,6.285753662109375,0.13234627721905706,0.09091883627679198,-0.04232069998756051
1772896118397722600,6.29572265625,0.1515595117330551,0.06732029935065656,-0.008894523464888334
1772896118407690800,6.305690673828125,0.1508452259838581,0.058337622678279875,-0.0014195114091038704
1772896118417659000,6.315658935546875,0.14784838225543498,0.036876682302728295,0.00755903707742691
1772896118427627800,6.325627685546875,0.09102584031522273,0.05667089504245668,0.017871172255277634
1772896118437596000,6.335595947265625,-0.03305588190555572,0.07872596538625658,0.04684299971759319
1772896118447563800,6.345563720703125,-0.03412263435423374,0.07918664170056582,0.01834843437820673
1772896118457532700,6.35553271484375,0.007059855383634567,0.044549408887699246,-0.013552724534273147
1772896118467500800,6.365500732421875,0.07058744792044162,0.014505970138497649,-0.006720540426671504
1772896118477468700,6.37546875,0.024647534522414204,0.009176372613571585,-0.06428104125261307
1772896118487437800,6.385437744140625,-0.048020226803421974,-0.0004756912203505635,-0.07235138885304332
1772896118497405700,6.39540576171875,-0.10468962400853633,0.03745488404948264,-0.06032514323368668
1772896118507373800,6.405373779296875,-0.034783728611469264,0.053831616495922205,-0.04185658960714936
1772896118517342700,6.4153427734375,0.10711480532884597,0.06674491061549634,0.004198182342201471
1772896118527310800,6.425310791015625,0.16926584881544113,0.09803195621762424,-0.030706542300432918
1772896118537279700,6.43527978515625,0.1614373471468687,0.08562277569528669,-0.058996817239373917
1772896118547249000,6.445248779296875,0.0779518392086029,0.09085596364103257,-0.13112214225158095
1772896118557216800,6.455216796875,0.04882102179229259,0.06683258889894932,-0.1278219316624105
1772896118567184600,6.4651845703125,0.053853755262494085,0.04006302072126418,-0.0810119574315846
1772896118577153800,6.47515380859375,-0.03899579334855079,0.06470270073078573,-0.07814268560558557
1772896118587121700,6.48512158203125,-0.05915186167061329,0.0679024466201663,0.006984744320809841
1772896118597089800,6.49508984375,-0.13018646883666515,0.06652184244934468,0.04530132323354483
1772896118607058700,6.50505859375,-0.22773031274378297,0.08991221651751548,0.022948037128150463
1772896118617026800,6.51502685546875,-0.22259470342099666,0.04975658560935407,0.04540463747754693
1772896118626995000,6.524994873046875,-0.06037760407328605,0.025674868276156483,0.016531886475533247
1772896118636963800,6.5349638671875,0.10212824908792972,0.033331995433196426,0.002003010385483503
1772896118646931700,6.544931640625,0.13093991755247114,0.03660626786351204,0.019528291812539098
1772896118656899600,6.554899658203125,0.07718377744555473,0.03963277607783675,0.013706307660788297
1772896118666868700,6.56486865234375,0.06679623894393444,0.029594452872686087,0.032926702567934986
1772896118676836600,6.574836669921875,0.05832593224048614,0.04164575986806303,0.03995455537810921
1772896118686804700,6.5848046875,0.014867314264178276,0.06044252253565937,0.05261529950872063
1772896118696774000,6.59477392578125,0.044917584612965585,0.07067940052021295,0.07921104548946023
1772896118706741800,6.60474169921875,-0.004164133942127227,0.06782744515519588,0.030635961282253262
1772896118716710000,6.6147099609375,0.008960720568895339,0.07717979539018124,0.012863719356805085
1772896118726678800,6.6246787109375,0.04110065667331218,0.06935618909243493,-0.012572627455741166
1772896118736646700,6.634646728515625,0.08981646452546119,0.07877396924644708,-0.058265580355376004
1772896118746614800,6.64461474609375,0.183906368586421,0.07171849777698516,-0.00020370587855577467
1772896118756583700,6.654583740234375,0.23721593396961688,0.04136738131809979,0.05496610041856766
1772896118766551800,6.6645517578125,0.17533084794282913,0.05729852542150765,0.048221740724891424
1772896118776519700,6.674519775390625,0.14531857151687144,0.07241908379439264,0.14784122186228632
1772896118786488800,6.68448876953125,-0.022311200529336928,0.11929255171548575,0.18018486384525895
1772896118796456700,6.694456787109375,-0.1326362000763416,0.14008129191789775,0.19061857957616446
1772896118806424800,6.7044248046875,-0.07854337536096573,0.14079418942760674,0.17025062206909058
1772896118816393700,6.714393798828125,-0.040271220111846924,0.12493304182048887,0.09143427498564123
1772896118826361600,6.724361572265625,-0.028472645768523215,0.10748330984767526,0.031110300795733927
1772896118836329700,6.734329833984375,-0.059065352430939674,0.10410941296778618,0.007125321835279464
1772896118846298600,6.744298583984375,-0.03158814744055271,0.10456099266018717,-0.01939253660365939
1772896118856266800,6.754266845703125,0.0847317086070776,0.1344851158786565,-0.0014981296032667158
1772896118866235000,6.76423486328125,0.09630758011043071,0.15200992238167674,0.033160657454282046
1772896118876203800,6.774203857421875,0.016088965013623238,0.16039675205275417,0.031031390340626238
1772896118886172000,6.784171875,-0.016906711137294767,0.1647939275657758,-0.0036538463324308395
1772896118896139800,6.794139892578125,0.018097382226586342,0.11335000992398708,0.006486585540324449
1772896118906109000,6.80410888671875,0.07800152356922627,0.0837096355503425,-0.016946458625793456
1772896118916076500,6.81407666015625,0.06607318536639213,0.06244341402929276,-0.015311697030812501
1772896118926044700,6.824044677734375,0.043159342768788335,0.044260801204666494,0.039014936440438026
1772896118936013800,6.834013916015625,0.015585691666603087,0.050930890085734426,0.0714237526141107
1772896118945981700,6.843981689453125,0.037162732702493664,0.05673278129752725,0.13262640933468936
1772896118955949800,6.85394970703125,0.07307458856105804,0.05798047980368137,0.1703054209962487
1772896118965918700,6.863918701171875,0.05122048414945602,0.07944328334275633,0.1655311923317611
1772896118975886800,6.873886962890625,0.053446343505382535,0.07992522164080292,0.13098507186844943
1772896118985855000,6.88385498046875,0.03361643839776516,0.07970430889911949,0.07473316942304373
1772896118995823900,6.893823974609375,0.003565583527088165,0.08906436751652508,-0.013695347875356673
1772896119005791700,6.903791748046875,0.03505553129017353,0.0989350060045719,-0.027737609492242334
1772896119015759600,6.913759521484375,0.04619885659515857,0.13401022837590426,0.018973580539226532
1772896119025728800,6.923728759765625,0.012242226457595824,0.18175920048989355,0.004094575837254524
1772896119035696600,6.933696533203125,0.038843233135342596,0.18137491388004273,0.01351312317624688
1772896119045664800,6.943664794921875,0.10412205325365066,0.1833709465354681,0.013496756563335656
1772896119055633700,6.953633544921875,0.11232990962862968,0.20023750832546502,-0.011364566840231419
1772896119065601800,6.963601806640625,0.12680500970482825,0.21508896743338554,0.0077484221696853635
1772896119075570000,6.97356982421875,0.07736030305624007,0.23768713167794048,0.01982756702005863
1772896119085538800,6.983538818359375,-0.03434066101908684,0.2493776790695265,-0.000175502697378397
1772896119095506700,6.993506591796875,-0.07450608266890049,0.222831179057993,-0.02335164949297905
1772896119105474800,7.003474853515625,-0.0283773687005043,0.16309037505090235,-0.05016995218321681
1772896119115443700,7.013443603515625,0.06317337227165698,0.12214085381869226,-0.09643617492616176
1772896119125411800,7.023411865234375,0.1695902584642172,0.1061543627988547,-0.059346361329406495
1772896119135379700,7.033379638671875,0.1404185245156288,0.12171692931819707,-0.005856617073714733
1772896119145348900,7.043348876953125,0.06462590916752815,0.15725699272230267,0.005692074161767959
1772896119155316700,7.053316650390625,0.028600656062364577,0.13213146542459725,0.04428761614635587
1772896119165284900,7.063284912109375,0.07672843489348888,0.07622994731944054,0.0183496034219861
1772896119175253500,7.07325341796875,0.15420271971821783,0.043014929329417646,0.03292860226407647
1772896119185221400,7.083221435546875,0.15804828923046588,0.0054383551290258765,0.11169175785556434
1772896119195190500,7.0931904296875,0.10260171181857586,0.006132730601355433,0.1394422268293798
1772896119205158400,7.103158447265625,-0.0104220252931118,-0.012460472318157553,0.17201280943602323
1772896119215126500,7.11312646484375,-0.06635317135155201,-0.028795484514720738,0.1763391482025385
1772896119225095400,7.123095458984375,-0.12283610607385635,-0.057188891034573315,0.14014189953133463
1772896119235063300,7.133063232421875,-0.11617957079410553,-0.080970164116472,0.06194309982433915
1772896119245031400,7.143031494140625,-0.08516893098056316,-0.07447696617227047,0.03235211755037307
1772896119255000300,7.153000244140625,-0.11192717404663562,-0.022757190731167793,-0.012254209156334399
1772896119264968400,7.162968505859375,-0.020462357792258263,0.029921237141638992,-0.015846534559875725
1772896119274936300,7.172936279296875,0.20709669003784656,0.04018244584985077,0.0008382043898105621
1772896119284905500,7.182905517578125,0.19558570046424864,0.026635055077821015,-0.03113368167132139
1772896119294873600,7.19287353515625,0.1605348453491926,0.06864610459432005,-0.05972746960148215
1772896119304841500,7.202841552734375,0.15289982042610645,0.06052932403627783,-0.06283873348981142
1772896119314810600,7.212810546875,0.22825638244450092,0.06651007894631475,-0.038423984809964895
1772896119324778200,7.2227783203125,0.18416180465221405,0.09454462555851786,-0.02179229122176766
1772896119334746400,7.232746337890625,0.020503274324536323,0.10592570514213293,-0.01139496197849512
1772896119344715300,7.24271533203125,-0.10007833082079887,0.08600972918625921,-0.022074907555431126
1772896119354683400,7.252683349609375,-0.08069558495879173,0.050119171844050285,-0.004444996710121631
1772896119364651500,7.262651611328125,-0.006285948401689529,0.06888616042789071,0.016637392676621676
1772896119374620400,7.272620361328125,-0.009716507372260094,0.030629495008848606,0.03281754310503602
1772896119384588500,7.282588623046875,-0.056951136755943293,-0.00976874901615083,-0.03963964421004057
1772896119394556400,7.292556396484375,-0.015378770917654036,-0.019382709329389035,-0.034406419731676574
1772896119404525600,7.302525634765625,0.03157236534953117,-0.004286554745398461,0.007845452803373336
1772896119414493400,7.312493408203125,-0.016778700843453405,0.03729888977017253,0.048258419473469254
1772896119424461300,7.32246142578125,-0.02596095520853996,0.047886846214719114,0.0499133470736444
1772896119434430500,7.332430419921875,0.03294190013706684,0.027582199734821913,-0.018730711694061757
1772896119444398300,7.3423984375,0.10637655418217182,0.014478716805391013,-0.010533376713097094
1772896119454366500,7.352366455078125,0.17314765868484974,0.021043774409405885,0.01551321095228195
1772896119464335400,7.36233544921875,0.2111170315951109,0.020767185957729816,0.009235299726575613
1772896119474303500,7.372303466796875,0.11686112331748008,0.03703622024599462,0.02683978386968374
1772896119484271600,7.382271728515625,-0.01801145750880241,0.06399305462408811,0.02408683189973235
1772896119494240500,7.392240478515625,0.010330255356431006,0.07303191846311093,0.03220233381614089
1772896119504208400,7.40220849609375,0.0983779566437006,0.04580211236253381,0.05708455387726426
1772896119514176300,7.41217626953125,0.05170446827411651,0.04647343575283885,0.01593991193175316
1772896119524145400,7.4221455078125,-0.0030517887860536572,0.06742321173585951,-0.0042591187492012975
1772896119534113300,7.43211328125,-0.07960662067830562,0.06414199810810386,0.011790244906395674
1772896119544081400,7.442081298828125,-0.08172901965975761,0.06407517994958907,-0.02359758707806468
1772896119554050600,7.452050537109375,0.07151566868126392,0.051647367792017757,0.02377601238489151
1772896119564018400,7.462018310546875,0.12652151658833027,0.06412840797416866,0.035136195310950274
1772896119573986600,7.471986572265625,0.010360065972805022,0.06469345797840506,0.01215031039044261
1772896119583955500,7.48195556640625,-0.11466449005603789,0.05944938331246376,0.0282673324547708
1772896119593923300,7.49192333984375,-0.11642214737832546,0.08059121126886457,0.037970541954040524
1772896119603891500,7.501891357421875,0.006958148574829101,0.05632657511681318,0.08016849234476685
1772896119613860400,7.5118603515625,0.0873719939827919,0.07018401821870357,0.09883914441466331
1772896119623828500,7.521828369140625,0.09673369656801223,0.05939937015827745,0.10802315234541893
1772896119633796400,7.53179638671875,0.010976736566424368,0.06602054186370224,0.058265288094431156
1772896119643765500,7.541765625,-0.07245674892365932,0.052752004565671085,-0.02745484702810645
1772896119653733400,7.5517333984375,0.07207505612969398,0.04398450501393526,-0.05782996541708708
1772896119663701500,7.561701416015625,0.19840426501631736,0.02346628884859383,-0.04080255050957202
1772896119673670700,7.571670654296875,0.23364976592063902,0.02629734755605459,0.04024681632295251
1772896119683638300,7.58163818359375,0.10393442172706127,0.08301043777242302,0.06270999254360794
1772896119693606400,7.5916064453125,-0.1544394510835409,0.09916191009562463,0.058284431186318396
1772896119703575300,7.6015751953125,-0.21677695705294608,0.09032656947206705,0.05566738055571913
1772896119713543400,7.61154345703125,0.014056582403182983,0.09899890155363827,0.06013415070623159
1772896119723511600,7.621511474609375,0.17671558029949663,0.08535144794061779,0.0476714133657515
1772896119733480400,7.63148046875,0.2685375394284725,0.058044740678928786,0.06214212952777743
1772896119743448600,7.641448486328125,0.17751637528836725,0.04641958667375147,0.06518851148635149
1772896119753416400,7.65141650390625,-0.0607762480020523,0.03097860070746392,0.05954772912040353
1772896119763385600,7.661385498046875,-0.1727127743989229,0.022334691002778708,0.06672434275150299
1772896119773353200,7.671353271484375,-0.09315174642801284,0.003346570481546223,0.05287628853246569
1772896119783321300,7.6813212890625,-0.05570435156524181,0.012024784314632416,0.05522372844144702
1772896119793290500,7.69129052734375,-0.08052841169834137,0.03425250781159848,0.0683791242212057
1772896119803258400,7.70125830078125,-0.08421908290982245,0.0766475516770035,0.05978314531147479
1772896119813226500,7.7112265625,-0.05534194799363613,0.07222882191929966,0.06295899886861443
1772896119823195400,7.7211953125,0.0243166951328516,0.07068093489017337,0.009274316562712192
1772896119833163500,7.73116357421875,0.18383096526265144,0.07386292592715471,-0.020964900486916304
1772896119843131400,7.74113134765625,0.24935528457462786,0.09018332507647574,0.015571078619360922
1772896119853100500,7.7511005859375,0.24358196187019346,0.10611289827730506,0.03708659872636199
1772896119863068400,7.761068359375,0.12829495600163937,0.12496526358965783,0.07809446254968642
1772896119873036300,7.771036376953125,0.019647534278035162,0.11228106551822274,0.07960413646027445
1772896119883005400,7.78100537109375,-0.03481003209650516,0.08823785356450825,0.029383623133599757
1772896119892973300,7.790973388671875,0.015782675543427466,0.05836242832597345,0.005914046349376439
1772896119902941400,7.80094140625,0.08072598009705544,0.058560471648722884,0.01111716795042157
1772896119912910300,7.810910400390625,0.04596855497062206,0.0803969673383981,0.02790390596985817
1772896119922878500,7.82087841796875,-0.08755378029048443,0.06640311144050211,0.04102744530662894
1772896119932846300,7.830846435546875,-0.06545008503198624,0.06629121203124523,0.05103343714475631
1772896119942815200,7.840815185546875,-0.00036240357160568235,0.07034863419588655,0.06639584144949913
1772896119952783400,7.850783447265625,-0.00043079263269901275,0.06686064594965428,0.07478723769783974
1772896119962751500,7.86075146484375,-0.022771803778409958,0.08402114918492734,0.053163581041246646
1772896119972720400,7.870720458984375,-0.07524784094691277,0.09546353050172328,0.014808862075209617
1772896119982688500,7.8806884765625,-0.053527007526159284,0.09677841249257325,0.000199029703438282
1772896119992656400,7.890656494140625,-0.021654197925329206,0.11693575945626944,-0.05462386285215616
1772896120002625500,7.90062548828125,0.1010229181945324,0.11387304741740226,-0.05414017098844051
1772896120012593400,7.910593505859375,0.1310387017518282,0.09496222991608083,-0.07455445185527206
1772896120022561300,7.920561279296875,0.12178922736942767,0.07761241465378552,-0.08698051044717431
1772896120032530400,7.930530517578125,0.17077566885650156,0.06427420965302735,-0.05711421836316585
1772896120042498300,7.940498291015625,0.15841244636774063,0.05588869515620172,-0.013008388524502515
1772896120052466400,7.950466552734375,0.057660161808133124,0.07767265694104135,0.02209814230054617
1772896120062435300,7.960435302734375,0.03919920696616173,0.06395067678708583,0.05352919948324561
1772896120072403500,7.970403564453125,-0.01390811384320259,0.050321964407153426,0.08506240186616777
1772896120082371600,7.98037158203125,-0.07134791089892387,0.047068552101776004,0.07550371540412307
1772896120092340500,7.990340576171875,-0.016633739414811135,0.06367412486802786,0.08255874848216771
1772896120102308600,8.00030859375,0.055848728471994395,0.06405863067358732,0.05754384195208549
1772896120112276200,8.010276123046875,0.04765782323181629,0.07763440728988498,-0.002777355758845806
1772896120122245400,8.020245361328126,0.03822130184471607,0.09657273385263979,-0.04310907388627529
1772896120132213200,8.030213134765624,0.059548167511820786,0.1130470449220389,-0.06581731090918183
1772896120142181400,8.040181396484375,-0.0024310265392065047,0.12044047964159399,-0.07531374578997492
1772896120152150300,8.050150390625,-0.00027180267870426176,0.11178181075919419,-0.10291399263814091
1772896120162118400,8.060118408203126,0.0838163473278284,0.10830978726707398,-0.09060717651173472
1772896120172086500,8.07008642578125,0.10720131456851958,0.10835936202984303,-0.07101341824755072
1772896120182055200,8.08005517578125,0.07400280932188033,0.11182060839962213,-0.06071604224741459
1772896120192023300,8.090023193359375,0.0987304233431816,0.10001531205456703,-0.017049334478378295
1772896120201991200,8.0999912109375,0.157855981528759,0.08505922352839261,0.02378331890851259
1772896120211960000,8.1099599609375,0.15297054757475853,0.042422297198511656,0.082977850677073
1772896120221928200,8.11992822265625,0.04549216963052749,0.06109046505037695,0.046602907351404425
1772896120231896000,8.12989599609375,-0.06318214010000228,0.05088021934442222,0.026843437131494282
1772896120241865200,8.139865234375,-0.13741057487130165,0.0063244537811726325,0.08688084946498274
1772896120251833000,8.1498330078125,-0.028290859460830688,0.012850677212141453,0.061978317268192765
1772896120261801200,8.15980126953125,0.13520692734718323,-0.018328816362284124,0.1327913906380534
1772896120271770000,8.16977001953125,0.1662736812621355,-0.029448906922154128,0.15804478209912776
1772896120281738200,8.17973828125,0.027995675906538963,-0.011403547143749892,0.11510507343038916
1772896120291706000,8.1897060546875,-0.07845686612129212,-0.008830737513676285,0.09127484664022922
1772896120301675000,8.199675048828125,-0.1257435179531574,0.014299451248347759,0.034408173297345634
1772896120311643100,8.20964306640625,-0.1548883638948202,0.00782448308058083,-0.0014485913731157778
1772896120321611300,8.219611328125,-0.0671206485927105,0.023835341356694698,-0.024776421599090097
1772896120331580200,8.229580078125,0.04382569772303104,0.06837079478427767,-0.030542583910375832
1772896120341548300,8.23954833984375,0.07947334968745708,0.07627842610366642,-0.01728080514669418
1772896120351516200,8.24951611328125,0.17720307155549525,0.07573902199734002,-0.018819705151766536
1772896120361485300,8.2594853515625,0.2820826651781797,0.08052574481721966,0.03534910740926862
1772896120371453200,8.269453125,0.18161095112562178,0.09698496791534125,0.051846799354255194
1772896120381421000,8.279421142578125,0.11564064161181449,0.07366148507092148,0.08107420901283621
1772896120391390200,8.28939013671875,0.11129472136199474,0.06471373358145356,0.08501227911412715
1772896120401358000,8.299358154296876,0.054798927158117294,0.07251819678731262,0.07588453141525388
1772896120411326200,8.309326171875,0.030889059260487555,0.05363123508561402,0.08017199947610497
1772896120421295000,8.319295166015625,-0.004186345773935318,0.03739756437167525,0.06462459399327636
1772896120431263200,8.32926318359375,-0.04168868569433689,0.044214112518727776,0.04523512612953782
1772896120441231400,8.3392314453125,-0.052666006782650945,0.05156659417338669,0.06896408450230955
1772896120451200300,8.3492001953125,-0.08113982159495353,0.054817558793351054,0.08699848449528216
1772896120461168400,8.35916845703125,-0.06490121897757054,0.051295083755627274,0.06651800652444362
1772896120471136000,8.369135986328125,-0.015530162087082862,0.04321410516332835,0.05037818810641765
1772896120481105200,8.379105224609376,0.06496084021031856,0.04571534739453345,0.05116203196048736
1772896120491073000,8.389072998046874,0.06845102041363715,0.050925921649672086,0.03482347609996796
1772896120501041200,8.399041259765625,-0.014303835162520408,0.030886246248893436,0.044238954699039455
1772896120511010000,8.409010009765625,-0.08848433913886547,0.011741729589551686,0.05135974648967385
1772896120520978200,8.418978271484375,-0.03818389244377613,0.004903334936872125,0.06069675302505493
1772896120530946300,8.4289462890625,0.07935060009062289,0.011940138238482176,0.07849310647845267
1772896120540915200,8.438915283203125,0.1199760404676199,0.06740680859033019,0.10866218090131878
1772896120550883000,8.448883056640625,-0.0008744447469711303,0.11086403832715004,0.11025646435543894
1772896120560851200,8.458851318359375,-0.022438041779398916,0.13721633094083516,0.11816723747998475
1772896120570820000,8.468820068359374,0.14659750541150568,0.08812924209088087,0.10494535233527422
1772896120580788200,8.478788330078125,0.21907763521075246,0.05184932010490447,0.02743102776110172
1772896120590756000,8.488756103515625,0.1632055258631706,0.028454708253033457,-0.014243191016465425
1772896120600725200,8.498725341796876,0.05205225879848003,0.032515710614249106,-0.029848756427317855
1772896120610693000,8.508693115234376,-0.036841245663166045,0.05330485267546028,-0.021541823592036963
1772896120620661200,8.5186611328125,0.014850363129377365,0.05820497274193912,0.05143997211903333
1772896120630630100,8.528630126953125,0.08215104446411133,0.07342296360731125,0.10984174607470631
1772896120640598000,8.538597900390625,-0.018574352088570594,0.09311013577599078,0.08479279114454984
1772896120650566100,8.548566162109376,-0.12523615295290946,0.10468151376731694,0.052332975436002016
1772896120660535000,8.55853515625,-0.02049158388674259,0.10590473541934042,0.0885318315424025
1772896120670503200,8.568503173828125,0.07676759786009787,0.07640271007046102,0.04171703500598669
1772896120680471300,8.57847119140625,0.07588730789422989,0.05807546461075544,0.011503975310921668
1772896120690440200,8.588440185546874,0.07141805352568625,0.06548384117111564,0.006958294705301523
1772896120700408300,8.598408203125,0.07932371208369732,0.03656571665741503,-0.005079202960431575
1772896120710376200,8.608376220703125,0.038494273567199706,0.03991820542309433,0.029135201330482956
1772896120720345300,8.618345458984376,-0.007727963903546333,0.0660439592719078,0.029490152247995137
1772896120730313000,8.62831298828125,-0.004349427381157875,0.09312730610650032,0.026141426341980693
1772896120740281000,8.638281005859374,0.020018705677986144,0.12000837183464318,0.027494156125187873
1772896120750250000,8.64825,0.07637421462833881,0.13007723630852996,0.030665625768154858
1772896120760218000,8.658218017578125,0.09169920953214168,0.13000311162639408,-0.006074497608095407
1772896120770186200,8.668186279296876,0.04851414780020714,0.13865677554011344,-0.08513868197277188
1772896120780155100,8.678155029296875,-0.03498889579474926,0.08784816012717783,-0.04926964234262705
1772896120790123300,8.688123291015625,0.00017009586989879608,0.07245773530434817,-0.034989334186166524
1772896120800091400,8.69809130859375,0.14292612342238425,0.05731741278506815,-0.02575549576431513
1772896120810060300,8.708060302734374,0.161729608091712,0.03795523478705436,0.03079465897530317
1772896120820028200,8.718028076171874,0.0967570774435997,0.01935362936537713,0.07312514970451593
1772896120829996000,8.72799609375,-0.06139291859567165,0.010408215963467955,0.07326163556575775
1772896120839965200,8.737965087890625,-0.07964344555735588,-0.028938071323186158,0.0806893013484776
1772896120849933000,8.74793310546875,-0.07470072845816612,-0.07383702430091797,0.053946840373426674
1772896120859902200,8.757902099609375,-0.09074877693951129,-0.07896540016531944,0.03530293017998338
1772896120869870000,8.7678701171875,-0.07744856586158275,-0.06545337296761572,0.056456777367740865
1772896120879838200,8.777838134765625,0.027345103043317793,-0.03108202454932034,0.06520180935934186
1772896120889807000,8.78780712890625,0.13472820391952992,-0.048306277203187344,0.08831468166038393
1772896120899775200,8.797775146484375,0.1478127264201641,-0.06445639781951903,0.06675605306401848
1772896120909743000,8.8077431640625,0.12540624882280826,-0.06311294732131063,0.04342632314190268
1772896120919712000,8.8177119140625,0.1258873103380203,-0.034081937017664314,0.08271028578206896
1772896120929680100,8.82768017578125,0.10306640672087669,0.025749139088764784,0.0945887934938073
1772896120939648300,8.837648193359374,0.09328969359397887,0.0240345171906054,0.09519421204105019
1772896120949617200,8.8476171875,0.031095395487546917,0.03131488345712423,0.03423573933988809
1772896120959585300,8.857585205078125,0.08135843278169631,0.07521393867731094,-0.022782617433369158
1772896120969553200,8.86755322265625,-0.009448796346783637,0.06553557135835289,-0.016626871282607317
1772896120979522300,8.877522216796875,-0.07186170563995838,0.0909324629433453,-0.019043869296461343
1772896120989490200,8.887490234375,-0.05737842225730419,0.09114464438930153,-0.022159370968490837
1772896120999458000,8.8974580078125,-0.05429273120164871,0.09075944446399807,-0.04260331632122397
1772896121009427000,8.907427001953126,-0.022845453536510466,0.1049715827550739,-0.042985301376134155
1772896121019395000,8.91739501953125,0.04557809434831142,0.10186514117233454,-0.04294759971424937
1772896121029363200,8.92736328125,0.06529518673121928,0.09571487491428851,-0.050974838825315234
1772896121039332000,8.93733203125,0.07267477558851242,0.0989957232158631,-0.03700798053219914
1772896121049300200,8.94730029296875,0.06752396869659423,0.08557268947586416,-0.008813128791749477
1772896121059268400,8.957268310546874,0.028951369196176528,0.06090009357742965,0.007367606158554554
1772896121069237200,8.9672373046875,0.011495792004466055,0.02146810076870024,0.01572173913642764
1772896121079205400,8.977205322265625,0.05146832143068313,0.025780411009863016,0.051615913207828996
1772896121089173000,8.987173095703126,0.021635493224859238,0.03813552325740456,0.10237959350049496
1772896121099142100,8.99714208984375,-0.007933131086826323,0.042274961149692536,0.10471139744892716
1772896121109110000,9.007110107421875,-0.01114274078309536,0.048209027373790736,0.0804841341651976
1772896121119078100,9.017078125,-0.010063128852844237,0.05535780314989388,0.07026625314205885
1772896121129047000,9.027047119140626,0.08985679653584956,0.046265492090582845,0.08214812185466289
1772896121139015200,9.03701513671875,0.09906360082030295,0.03701119540259242,0.03604863398075103
1772896121148983300,9.0469833984375,0.04209960458278656,0.03164491912908852,0.015080957014858723
1772896121158952200,9.0569521484375,0.03796937291026115,0.051030660665780304,0.028612200369685887
1772896121168920300,9.06692041015625,0.12400281176567077,0.046954497268050906,0.059483139451593156
1772896121178888400,9.076888427734374,0.08968436257839202,0.0704535924077034,0.05828326214253902
1772896121188857600,9.086857666015625,0.014632336464524269,0.07927249335311352,0.08307254322320222
1772896121198825500,9.096825439453125,-0.037975218129158016,0.11352416091449558,0.08633870541229843
1772896121208793300,9.10679345703125,-0.0424070630967617,0.11410597939044237,0.08025047153979539
1772896121218762500,9.116762451171875,-0.0309872589379549,0.09823401812836527,0.007596446478366851
1772896121228730400,9.12673046875,-0.04532499637007713,0.08875774925276636,-0.05176233594119548
1772896121238698500,9.136698486328125,-0.011013561445474624,0.10048318529464303,-0.025593729331344364
1772896121248667400,9.14666748046875,0.03702010936141014,0.11929441487900912,-0.015560703355818986
1772896121258635500,9.156635498046874,0.14150105905532837,0.08703194837346673,-0.01821370208263397
1772896121268603600,9.166603759765625,0.1966770028322935,0.09513670970015227,-0.05053440158143639
1772896121278572500,9.176572509765625,0.06889701061546802,0.1196311725527048,-0.04581541023552418
1772896121288540700,9.186540771484376,-0.026835399955511093,0.13974259801544248,0.0013097674243152141
1772896121298508300,9.19650830078125,-0.01298749186694622,0.145558590817824,-0.007308569447696208
1772896121308477400,9.2064775390625,0.02089724207818508,0.11261574083268641,-0.030113837104290723
1772896121318445600,9.216445556640625,0.07179740823209285,0.09875281783808022,-0.05227759198695421
1772896121328413400,9.226413330078126,0.03533610179722309,0.0881585047179833,-0.05542874949425459
1772896121338382600,9.236382568359375,0.09933481897711753,0.0683668857941404,0.004629997888207435
1772896121348350500,9.2463505859375,0.14928221445083617,0.06636336395200342,0.07166121463179588
1772896121358318600,9.256318603515625,0.10173603489995002,0.05527772365100681,0.08074497705847024
1772896121368287500,9.26628759765625,-0.030023382341861724,0.059650970299169416,0.08771393928825855
1772896121378255600,9.276255615234374,-0.21390578553080558,0.06700513245426118,0.06292670403420925
1772896121388223500,9.286223388671875,-0.26934651772379875,0.1071224771786481,0.013995499865710734
1772896121398192400,9.2961923828125,-0.01706511656939983,0.07476122647374868,0.015751549752801654
1772896121408160500,9.306160400390626,0.12840016994178294,0.055751369044743475,-0.026151509344577786
1772896121418128400,9.31612841796875,0.2033516582906246,0.04142232637573033,-0.028383360049873588
1772896121428097500,9.32609765625,0.2716653160601854,0.04661196744069457,-0.02792275680080056
1772896121438065400,9.3360654296875,0.21264847894608974,0.05770736195072532,-0.006020429333299398
1772896121448033500,9.346033447265626,0.03518529514968395,0.08487363782841711,0.013023293832689523
1772896121458002700,9.356002685546875,0.1554717167407274,0.07898213210441171,0.10306114602386951
1772896121467970600,9.365970458984375,0.18635902243554592,0.08427424716316163,0.13857158147469162
1772896121477938400,9.3759384765625,0.06609422815442084,0.09196045428421348,0.1095000930301845
1772896121487907300,9.3859072265625,0.023177461969852445,0.09460073965992778,0.07865384999811649
1772896121497875500,9.39587548828125,-0.05168342548608779,0.12075929979979991,0.007841799541562795
1772896121507843600,9.405843505859375,-0.07838613897264003,0.11476363958157598,-0.02279883791580796
1772896121517812500,9.4158125,-0.003904606223106384,0.10021733743268996,-0.03204758164584637
1772896121527780600,9.425780517578126,0.07402852828502654,0.08870788222905247,-0.05380085603147745
1772896121537748500,9.43574853515625,0.11978139467835426,0.06988459688071161,-0.0161623225107789
1772896121547717600,9.445717529296875,0.08519523446559905,0.09928528074696659,0.009503303012996912
1772896121557685500,9.455685546875,0.0304208572268486,0.11608648568317294,0.03689502167701721
1772896121567653400,9.4656533203125,-0.04983692083656788,0.10501622561439872,0.050615211732685565
1772896121577622500,9.47562255859375,-0.02277764899730682,0.08930723636168986,0.030477994241565463
1772896121587590400,9.48559033203125,-0.0038502456873655317,0.07225223932750523,-0.0023009704187512397
1772896121597558500,9.49555859375,-0.009106851041316985,0.07322521254550665,0.009333061012625694
1772896121607527400,9.50552734375,0.040517303827404975,0.06020597383342683,0.022602438560873267
1772896121617495600,9.51549560546875,0.09120938018858432,0.043618009789101776,0.039081133544445035
1772896121627463700,9.525463623046875,0.0522235237121582,0.03013345512021333,0.04065247451439499
1772896121637432600,9.5354326171875,0.02711947759389877,0.03083225103933364,0.04915975222736597
1772896121647400700,9.545400634765626,0.03503858015537262,0.02252926372680813,0.03827902338132262
1772896121657368300,9.555368408203124,0.08399170389473437,0.03606956717092544,0.0351592839255929
1772896121667337500,9.56533740234375,0.10456687441170215,0.05307425878997892,0.03835997966304421
1772896121677305300,9.575305419921875,0.04613923536241054,0.07788947802949696,0.03654109367281198
1772896121687273500,9.5852734375,0.015531915652751922,0.10164364390876143,0.0385334365338087
1772896121697242600,9.59524267578125,-0.026885668838024138,0.09095029086098075,0.05234291230812668
1772896121707210500,9.60521044921875,-0.041508068430423734,0.09479275510068982,0.02873670353218913
1772896121717178600,9.6151787109375,0.014580314016342162,0.10167466010153293,0.025954087076336143
1772896121727147500,9.6251474609375,0.05149404039382934,0.11505074942726641,0.006121551620215177
1772896121737115600,9.63511572265625,0.052122985947132106,0.10033606844153255,-0.0019132862754166124
1772896121747083500,9.64508349609375,-0.004271101447939872,0.10392700560558586,-0.033692572373896834
1772896121757052400,9.655052490234375,-0.004722352346777915,0.10481507701911032,-0.03339402781873941
1772896121767020500,9.6650205078125,0.03131517571806908,0.12083463005833327,0.00354381008669734
1772896121776988400,9.674988525390624,0.11388064620196818,0.12978249114565552,0.010126549477875233
1772896121786957600,9.68495751953125,0.07088847669363021,0.11832476612925528,-0.012386749494820833
1772896121796925400,9.694925537109375,0.05949848315119743,0.1119945036618039,-0.0043678398206830026
1772896121806893600,9.7048935546875,0.1313613578349352,0.11549670309647916,0.0150187054336071
1772896121816862500,9.714862548828124,0.07014905650317668,0.10036145861111581,0.01481529181599617
1772896121826830300,9.724830322265625,-0.020051438903808592,0.09938914298024028,0.008352963934093714
1772896121836798500,9.734798583984375,-0.09259118993580341,0.09361220354661345,0.041404608055949206
1772896121846767400,9.744767333984376,-0.08164601755142212,0.10576532694865018,0.09148249804154038
1772896121856735500,9.754735595703124,0.025898411366343497,0.08974394727852195,0.09708017191812396
1772896121866704400,9.764704345703125,0.16435995659530162,0.07222666649483143,0.05788666404038667
1772896121876672500,9.774672607421875,0.22221067253947258,0.046766281219571826,0.058693742639571424
1772896121886640600,9.784640625,0.12739713037908076,0.05116813290771097,0.06112023913413286
1772896121896608500,9.7946083984375,-0.013368600139021873,0.07568404040709137,0.05354717353135347
1772896121906577700,9.80457763671875,-0.0747889912635088,0.06483308564480393,0.020715455770492552
1772896121916545300,9.814545166015625,-0.07110591883659362,0.07298676414713264,0.02336070958226919
1772896121926514400,9.824514404296876,-0.12964987774193287,0.09899396965019404,0.03805953541174531
1772896121936482300,9.834482421875,-0.16317629976868628,0.14519370302818715,0.013666998563706874
1772896121946450400,9.844450439453125,-0.011491115829348563,0.10301292296797036,0.042245735055208206
1772896121956419600,9.854419677734375,0.11192658952474593,0.06913907574303448,0.028897154790908097
1772896121966387500,9.864387451171876,0.18643851741254328,0.07768621054235846,0.01157075693681836
1772896121976355600,9.87435546875,0.2757569692879915,0.05468479925915599,0.027418022149056195
1772896121986324500,9.884324462890625,0.2830979797005653,0.0553640502275899,0.03151727416142821
1772896121996292600,9.894292724609375,0.20278525657951832,0.07479805135279893,0.05594926623702049
1772896122006260500,9.904260498046876,0.1418476805359125,0.09257675955165177,0.08549012575894593
1772896122016229400,9.9142294921875,0.12876198899149893,0.08511007693279535,0.09319237069934606
1772896122026197500,9.924197509765625,0.03392214334607124,0.045377201481349765,0.05984130523949861
1772896122036165400,9.934165283203125,-0.11103870077431201,0.032980478581786155,0.004649140980094671
1772896122046134500,9.944134521484376,-0.17945991057157515,0.031224063368514177,0.03470598720014095
1772896122056102400,9.954102294921874,-0.11685878522992134,0.05870572533831,0.07723945315554738
1772896122066070500,9.964070556640625,-0.010636544826626777,0.06094495563246309,0.07992386993393301
1772896122076039700,9.974039794921875,0.014226678273081779,0.07273399496246129,0.05457037909924984
1772896122086007600,9.984007568359376,-0.014245967495441436,0.07176222732085734,0.04103036791607737
1772896122095975400,9.993975341796874,0.005796703580021858,0.08049056390598416,0.028344781605154273
1772896122105944300,10.0039443359375,0.020706687942147254,0.0697629432624206,-0.014480799164623021
1772896122115911400,10.013911376953125,-0.006510989329218864,0.05275120084807276,-0.061399494466930625
1772896122125879600,10.023879638671875,0.010321487528085708,0.030237865342758595,-0.08121084100455045
1772896122135848400,10.033848388671874,0.07753916675448418,0.049502208989486096,-0.057244712875038385
1772896122145816600,10.043816650390625,0.13228197981119155,0.06507025540154426,0.024489275220781564
1772896122155784700,10.05378466796875,0.1124818853199482,0.051076655231975014,0.04926540455892682
1772896122165753600,10.063753662109375,0.04606090942919254,0.017282083788327872,0.0693349636413157
1772896122175721500,10.073721435546876,-0.0053010290175676345,-0.013091025306656956,0.104907504542917
1772896122185689000,10.083689208984374,0.009267594560980797,-0.045532538173533976,0.11117416372224688
1772896122195658000,10.093657958984375,0.04965688809454441,-0.04712722348645329,0.07947787973210214
1772896122205625900,10.1036259765625,0.11454700115621089,-0.03782448454685509,0.08151055460348725
1772896122215593700,10.11359375,0.07267828271985054,-0.03243687322437763,0.08086743439435959
1772896122225563000,10.12356298828125,-0.004388005825877189,0.0030930706445127724,0.04025573028177023
1772896122235530800,10.13353076171875,0.0009662146836519241,0.03884812850616872,0.04498889628350734
1772896122245499000,10.143498779296875,0.09601122751235962,0.05128094563242048,0.06292816533893346
1772896122255467800,10.1534677734375,0.0633557431012392,0.04832845250237733,0.010614186864346266
1772896122265436000,10.163435791015624,0.0012964695513248442,0.016926731012016534,-0.018257395093888042
1772896122275404000,10.173404052734375,-0.004721767824888229,0.012257643222436308,-0.019052052602916956
1772896122285373000,10.183373046875,0.004594342052936554,0.02285140835326165,-0.053173079521954054
1772896122295340800,10.1933408203125,0.11636954040825366,0.03246880273260176,-0.005312427194416523
1772896122305309000,10.203308837890624,0.1641869381159544,0.03552289307359606,0.025745558892190455
1772896122315277800,10.21327783203125,0.09647183076143265,0.043062860124371945,0.01575622592791915
1772896122325246000,10.223245849609375,0.011482348001003265,0.029319143062643705,0.032573359085619445
1772896122335213800,10.2332138671875,-0.041788638937473296,0.0015085413994267581,0.03324892025962472
1772896122345183000,10.243182861328124,-0.017598785054683683,-0.005476604780182242,0.037693040186911816
1772896122355150800,10.25315087890625,0.03199672824144363,-0.008559190563298761,0.05979147474840283
1772896122365119000,10.263118896484375,0.010717793369293212,0.007156959082558751,0.09850538241565227
1772896122375087900,10.273087890625,0.020613748961687085,0.04344360307026654,0.12050751699581741
1772896122385055700,10.2830556640625,0.03369827146232128,0.058653301031328736,0.13719737051203845
1772896122395024000,10.29302392578125,0.005309796845912933,0.046570977843180296,0.08038476544395089
1772896122404992800,10.30299267578125,-0.0007335749715566634,0.01759188038986176,0.03078384532034397
1772896122414961000,10.3129609375,0.06505787084400654,0.039062903768010436,-0.04091989327892661
1772896122424929000,10.322928955078124,-0.03706453302502632,0.010723638588190079,-0.011067483589798211
1772896122434898000,10.33289794921875,-0.06187398011088371,0.06649944795444607,0.012928601286560296
1772896122444866000,10.342865966796875,-0.08144844915270805,0.0675709861760959,0.05468056147545576
1772896122454834000,10.352833984375,-0.04170037613213062,0.06901632614620029,0.048671968710422515
1772896122464803000,10.362802978515624,-0.0311398191511631,0.056512014686316246,-0.0015441607020795344
1772896122474770700,10.372770751953125,-0.04106324727237224,0.06794402073957026,0.01600040994733572
1772896122484738800,10.38273876953125,0.01639642352759838,0.10773286416195332,-0.04908186468556523
1772896122494707700,10.392707763671876,0.1490063201189041,0.06677541535161435,-0.057228784653544425
1772896122504675800,10.40267578125,0.23001520881056783,0.06557396713998169,-0.07074643787443638
1772896122514644000,10.41264404296875,0.28187632895112036,0.0457825308792293,-0.05068155496716499
1772896122524612900,10.42261279296875,0.2338081713527441,0.02739369142539799,-0.035210575721412896
1772896122534582000,10.43258203125,0.1317173316657543,0.033048210055753584,-0.015666355687379837
1772896122544550000,10.4425498046875,0.08753624463379382,0.018062493576295673,0.07189984569326043
1772896122554519000,10.45251904296875,0.05635141729712486,0.020528262635320423,0.15092603613510727
1772896122564487000,10.46248681640625,-0.008673720321059227,0.029781974801421165,0.14474530167356134
1772896122574454800,10.472454833984376,-0.06343465355634689,0.026666874988190828,0.11117036432996391
1772896122584423700,10.482423583984374,-0.14658055427670477,0.03196078014522791,0.04705693472921848
1772896122594391800,10.492391845703125,-0.1385544842094183,0.026395364570431408,-0.028326953687518832
1772896122604360000,10.50235986328125,-0.03159749979078769,0.03317143457662314,-0.03981748499497771
1772896122614328800,10.512328857421876,0.08094283771812916,0.06027388797048479,-0.05157280471846461
1772896122624297000,10.522296875,0.15121815094947813,0.08767733360491692,-0.02618628839701414
1772896122634264800,10.532264892578125,0.12715747640430927,0.1161450474699959,-0.02477379125058651
1772896122644234000,10.54223388671875,0.08440086921751498,0.12430880897492169,-0.034814416010677814
1772896122654202000,10.5522021484375,0.16041618740558625,0.11681479995772241,-0.014229308621585368
1772896122664169700,10.562169677734374,0.15614040978252886,0.09301463951226323,-0.02333221414014697
1772896122674139000,10.572138916015625,0.09793372000753879,0.03952617389820516,-0.04441328835263848
1772896122684106800,10.582106689453125,0.05267477461099624,0.006266220787912607,-0.05413169542104006
1772896122694075000,10.592074951171876,0.013281506377458572,-0.00008870119675993918,-0.023204934498667715
1772896122704043800,10.602043701171874,-0.04727905304729938,0.011059008022397756,0.0314537074059248
1772896122714012000,10.612011962890625,-0.0390694431066513,0.03200951465778053,0.09063377225771546
1772896122723980800,10.621980712890625,-0.04827098669409752,0.052517684353142975,0.09016703152880072
1772896122733949000,10.631948974609376,-0.0803086314678192,0.04200191636197269,0.10293372025191783
1772896122743917000,10.6419169921875,-0.056304071024060244,0.02814903983734548,0.05854366664439439
1772896122753884700,10.651884765625,0.012277882292866707,0.024885507996752855,0.017487872026115656
1772896122763853800,10.661853759765625,0.022106033346056937,0.04515614260919392,-0.004253273530304432
1772896122773822000,10.671822021484376,0.0067465516507625575,0.0839317904010415,0.0019078794479370116
1772896122783789800,10.681789794921874,0.0508159950017929,0.1278515961483121,0.014149229122698306
1772896122793759000,10.691759033203125,0.1606084951072931,0.13443966930173337,0.031854251030832524
1772896122803726800,10.701726806640625,0.17629297097325325,0.13326105397641658,-0.016656828029453754
1772896122813696000,10.711696044921876,0.14514672208130358,0.10550715093649923,-0.0016670564293861387
1772896122823663900,10.721663818359374,0.07789338701963425,0.11362710983231664,0.014631167420744894
1772896122833632000,10.731632080078125,-0.010855740535259246,0.0976307184729725,0.0356743938408792
1772896122843601000,10.741600830078125,-0.05486322456598282,0.09325922539047897,0.041288434330374
1772896122853568800,10.75156884765625,-0.03485737836956978,0.07018325103372335,0.05002630592882633
1772896122863537000,10.761536865234374,0.026599837633967397,0.08416917935349047,0.04434519155248999
1772896122873505800,10.771505859375,0.063398997721076,0.06466821393929421,0.061968526526540516
1772896122883474000,10.781473876953125,0.055258361363410946,0.03635879590846598,0.00439428943619132
1772896122893441800,10.79144189453125,0.017889292433857916,0.012677256873995065,-0.014667846169322728
1772896122903411000,10.801410888671874,0.012768880680203437,0.03342120808660984,0.012501461915671825
1772896122913379000,10.811379150390625,0.01661737280189991,0.05582454387880861,0.03509674008339643
1772896122923347000,10.821346923828125,-0.0047118309527635575,0.056387365393340584,0.04308613140210509
1772896122933316000,10.831316162109376,-0.01999707836806774,0.04528218014165759,0.018293050929158925
1772896122943283700,10.84128369140625,-0.02874386392533779,0.04841309857852757,0.02065934166908264
1772896122953251800,10.851251953125,-0.05887187568545341,0.0567399051580578,-0.014842472083866595
1772896122963220700,10.861220703125,-0.03814999017417431,0.04201068419031798,-0.03156301299929619
1772896122973188900,10.87118896484375,0.19085224220156669,0.052883521990850564,-0.029907500877231357
1772896122983157000,10.881156982421874,0.3535591708928346,0.06065780925415456,-0.016654343811422584
1772896122993126000,10.8911259765625,0.28126667262017724,0.05483092973157763,-0.0010753741465508936
1772896123003094000,10.901093994140625,0.14653846870064735,0.052364320422336456,0.048332799883931875
1772896123013062000,10.911061767578126,0.020782675787806508,0.038069764544814824,0.08976502659916877
1772896123023031000,10.921031005859374,-0.06473579928278923,0.0005399520955979823,0.08567322724089026
1772896123032999000,10.9309990234375,-0.1818932751983404,0.00030804303586483,0.08145444050207734
1772896123042966800,10.940966796875,-0.20795359912812708,0.008193973980098962,0.05855550321266055
1772896123052936000,10.95093603515625,-0.1013362219274044,0.0107575408577919,0.015547113221883773
1772896123062903800,10.96090380859375,0.05799392380714416,0.009517623799294233,-0.04362096893116831
1772896123072872000,10.970871826171875,0.16153905395567417,0.022179536973685025,-0.05625058727115392
1772896123082840800,10.9808408203125,0.11452362028062343,0.054665363906323906,-0.07879282007738947
1772896123092809000,10.99080908203125,0.16250176150798798,0.06303732480183244,-0.046457215270400046
1772896123102776800,11.00077685546875,0.07346329561769963,0.09713321727961301,-0.02164820657595992
1772896123112745700,11.010745849609375,0.0715951636582613,0.10183006985895335,0.051792731079459184
1772896123122713900,11.0207138671875,0.04471241742968559,0.07842727470062673,0.1181244212515652
1772896123132681700,11.030681640625,-0.021715572723746298,0.07631079400330781,0.09720379829779267
1772896123142651000,11.04065087890625,-0.05499941816627979,0.060191433851420874,0.06125614047348499
1772896123152619000,11.050618896484375,-0.0876028801292181,0.03947217868864536,0.03767068222463131
1772896123162587000,11.0605869140625,-0.0034311434924602507,0.004733019871264696,0.054038756440579885
1772896123172556000,11.07055615234375,-0.007470774272084236,0.053319575320556756,-0.045620179924368856
1772896123182526500,11.0805263671875,-0.008564999249577522,0.036413740966096515,-0.0038400165542960166
1772896123192494600,11.09049462890625,0.04015782286524772,0.028828327338397502,0.06579670651257037
1772896123202463700,11.100463623046876,0.0022726211071014404,0.05740531026422977,0.03983326708599925
1772896123212431600,11.110431640625,-0.03474105851352215,0.07939502375423908,0.047361909025162456
1772896123222399700,11.120399658203125,0.08081190481483935,0.05321165796667337,0.08754720441922545
1772896123232368600,11.13036865234375,0.18213585178256034,0.01709434266388416,0.06523790358603
1772896123242336500,11.14033642578125,0.14587503635585308,0.0008977525573223828,0.045556905429810286
1772896123252304600,11.1503046875,0.03169043877124786,0.010194938538968563,0.021241817732155322
1772896123262273500,11.1602734375,-0.009641104048490523,0.025009645833075043,0.061171969321370125
1772896123272241700,11.17024169921875,-0.06484218226671218,0.05381101209931075,0.0702322047419846
1772896123282209500,11.18020947265625,-0.043697102907299994,0.06876900032162665,0.07962254889979958
1772896123292178700,11.1901787109375,0.11865735908448695,0.037571313503384586,0.09233429256528615
1772896123302146600,11.200146484375,0.10115092848837375,0.040618645310029386,0.04629983275160193
1772896123312114700,11.21011474609375,0.052285483032464976,0.042708530261367554,0.02622092131897807
1772896123322083600,11.22008349609375,0.01917056441605091,0.07779628332071006,0.02329845800101757
1772896123332051500,11.230051513671874,0.08674947817027569,0.0968212287209928,0.010591682771593332
1772896123342019600,11.24001953125,0.09997428592443465,0.10748685351163148,-0.00602057546377182
1772896123351988500,11.249988525390625,0.0846224030137062,0.10550985435023903,-0.018846154767274855
1772896123361956600,11.25995654296875,0.06082768592834472,0.11306969514526426,-0.03653670975863933
1772896123371924700,11.2699248046875,0.03819733644723892,0.11206490201689302,-0.03452668511047959
1772896123381893600,11.2798935546875,0.06378653573393821,0.12035203417316079,-0.011885375843942165
1772896123391861800,11.28986181640625,0.13459201031923293,0.1084307832982391,0.020302929446846245
1772896123401829600,11.29982958984375,0.18403554792404173,0.10246990213245152,0.006468465361744165
1772896123411798800,11.309798828125,0.1853226651251316,0.09475772031992673,0.0345415904186666
1772896123421766400,11.319766357421875,0.16860709264576434,0.08563705994896591,0.03624985564127564
1772896123431734500,11.329734619140625,0.08234276764392852,0.06728022306859494,0.008372983808815479
1772896123441703700,11.33970361328125,0.015322072294354437,0.06863982098400592,-0.0032847207590937615
1772896123451671600,11.349671630859374,-0.06693126350045203,0.07608955246806144,0.00735664637312293
1772896123461640700,11.359640625,-0.1130693298190832,0.08136953869760036,-0.021022037501633166
1772896123471608600,11.369608642578125,-0.1197270341426134,0.07841404989287257,-0.023970950435101984
1772896123481576700,11.37957666015625,-0.053738604450225824,0.06694236941635608,-0.005265957704186439
1772896123491545600,11.389545654296874,-0.049533553975820536,0.07762494534179568,-0.05040902163609862
1772896123501513700,11.399513671875,0.014194529569149017,0.06787022485099732,-0.028050913225114344
1772896123511481600,11.409481689453125,0.06707096423208714,0.09250760330557822,-0.026760435023158786
1772896123521450500,11.419450439453126,0.044942134532332416,0.08801460273526608,0.013194558746367692
1772896123531418600,11.429418701171874,0.08846680348217487,0.09603519290983677,0.013158756780624389
1772896123541386500,11.439386474609375,0.10070260019898414,0.06657550886534154,0.028182284519821403
1772896123551355600,11.449355712890625,0.08137479939460754,0.05583375009857118,0.04540288391187787
1772896123561323500,11.459323486328126,0.06499123534858227,0.057015141902863976,0.04407601922228932
1772896123571291600,11.469291748046874,0.10216215135753154,0.047747182015702126,0.07673588754758238
1772896123581260800,11.4792607421875,0.08270049504041671,0.0457790968131274,0.06597659312412142
1772896123591228700,11.489228759765625,0.008427636605501174,0.0491343255251646,0.042822512029856444
1772896123601196500,11.499196533203126,-0.0937678324997425,0.02518697516135871,0.050860418665409086
1772896123611165400,11.50916552734375,-0.1319265905022621,0.030593583445250986,0.021664573188871144
1772896123621133600,11.519133544921875,-0.06430734473764896,0.01810425035879016,0.008020078717917203
1772896123631101700,11.529101806640625,-0.01100070196390152,0.029206001544371245,0.011322919655591249
1772896123641070600,11.539070556640626,-0.037705169016122815,0.05326894111186266,0.012770634245872497
1772896123651038700,11.549038818359374,0.0008773673564195632,0.057546764561533924,0.030485446895658967
1772896123661006600,11.559006591796875,0.10711071367561817,0.040338805455341936,0.026207915706932542
1772896123670975700,11.568975830078125,0.18683482325375078,0.022606457148864865,0.04232391485795378
1772896123680943600,11.578943603515626,0.16634966910779475,0.050326604049652814,0.03340659503936767
1772896123690911500,11.588911376953124,0.10511574046611785,0.061694312695041297,0.022522359061986207
1772896123700880600,11.598880615234375,0.0911012436389923,0.047194078177586196,0.08761340152323245
1772896123710848500,11.6088486328125,0.09035773179531097,0.05130494756251573,0.07525047129541636
1772896123720816600,11.618816650390626,0.08978080869019031,0.035030981370806694,0.06330284387022256
1772896123730785500,11.62878564453125,-0.0072726213514804836,0.019886603730916975,0.04432005711123347
1772896123740753700,11.638753662109375,-0.07974982854127884,0.043826209179684515,0.03884133343920111
1772896123750721800,11.6487216796875,-0.00029752164185047145,0.061578285099938505,0.06980974154621362
1772896123760690700,11.658690673828126,0.0818605370849371,0.07317205758616328,0.021746990775316954
1772896123770658800,11.668658935546874,0.0825613788306713,0.04695931957364082,0.00024579145461320876
1772896123780626400,11.67862646484375,0.04824702129662037,0.05084324833489954,-0.010837181965261697
1772896123790595600,11.688595703125,0.02277121925652027,0.06605557664446532,0.0031103871054947376
1772896123800563500,11.6985634765625,0.007705752071738243,0.046247810303419824,0.01285962770357728
1772896123810531600,11.708531494140624,0.0075479311615228644,0.07060330307669938,-0.0007493570625782013
1772896123820500700,11.718500732421875,-0.016325111857056616,0.03719926532059908,0.019772329701483248
1772896123830468600,11.728468505859375,-0.01907820995748043,0.05575469351299107,0.012649638214707375
1772896123840436700,11.738436767578126,-0.0035579847425222396,0.04813121289722621,0.03624839433655143
1772896123850405600,11.748405517578124,0.04328150784373283,0.04652560433149337,0.07078340888395905
1772896123860373800,11.758373779296875,0.06706511901319026,0.07325732471682131,0.0836833685979247
1772896123870341600,11.768341552734375,0.06535656152963638,0.056379620478302236,0.1087912141084671
1772896123880310500,11.778310546875,0.043053544306755065,0.025326748958230016,0.07803703327402473
1772896123890278700,11.788278564453124,0.02157353390455246,0.012315730085223912,0.046419075217097996
1772896123900246500,11.79824658203125,-0.03321136472821235,0.014998685558885335,0.036555560589581725
1772896123910215700,11.808215576171875,-0.037083822247385975,0.05201506859324872,0.01435118143558502
1772896123920183600,11.81818359375,0.018774843096733093,0.08271021271683275,0.02663110955506563
1772896123930151700,11.828151611328124,0.026514497438073156,0.1088830571103841,0.010015928710252047
1772896123940120600,11.83812060546875,-0.04856675477027893,0.12520027792192995,-0.04755626255348325
1772896123950088700,11.848088623046875,-0.01438391466140747,0.1448740426197648,-0.07742474659457803
1772896123960056600,11.858056640625,-0.0295668707460165,0.09784925659447907,-0.043256227272003886
1772896123970025500,11.868025390625,-0.12121055069863795,0.09238229642547667,-0.07254135846719145
1772896123979993600,11.87799365234375,-0.04959025259912014,0.09676825642473995,-0.0613426497131586
1772896123989961700,11.887961669921875,0.10474164645671843,0.0672672174565494,-0.04097542285844683
1772896123999930600,11.8979306640625,0.24014088150560856,0.04988075997829437,-0.03891249897927045
1772896124009898800,11.907898681640624,0.21540917583107946,0.05587430130466819,-0.011002601660043
1772896124019866600,11.91786669921875,0.23992694649398325,0.06776508397608995,0.03885667713880539
1772896124029835800,11.927835693359375,0.282805718755722,0.07326726158894598,0.06912541254386305
1772896124039803600,11.9378037109375,0.22180735243558883,0.05815905124098062,0.062046560198813674
1772896124049771500,11.947771484375,0.15963000546395778,0.025709318535029887,0.033341859240084884
1772896124059740400,11.957740478515625,0.06118716689050197,0.0019057605560868977,0.030457828236371276
1772896124069708500,11.96770849609375,-0.03141337539553642,-0.0077978873346000906,0.007183627893775701
1772896124079676700,11.9776767578125,0.008140051835775375,-0.02030249105542898,0.011005816530436276
1772896124089645600,11.9876455078125,0.03645136956274509,-0.022637363743782044,0.04314180711209774
1772896124099613700,11.99761376953125,0.059925768652558324,0.0025062106672674414,0.056141573938727374
1772896124109581800,12.007581787109375,-0.019274609312415123,0.030987843459844587,0.05539148622378707
1772896124119550700,12.01755078125,-0.052265609288215636,0.07980185098946094,0.03902370426878333
1772896124129518800,12.027518798828124,-0.0716518622815609,0.10309300246685743,0.0008323591709136962
1772896124139486500,12.037486572265625,-0.03358370517194271,0.10220270256362855,-0.03092880674898624
1772896124149455600,12.04745556640625,0.044622401058673856,0.07811455548964441,-0.0858699188567698
1772896124159423500,12.057423583984376,0.09861994870603084,0.09272468012236058,-0.07446253578811883
1772896124169391600,12.0673916015625,0.1700169594436884,0.11181005047298967,-0.011920154896378517
1772896124179358200,12.077358154296874,0.07757482258975505,0.12456987106390296,-0.008275953175127505
1772896124189326300,12.087326416015625,-0.03868482770323753,0.09745032040476799,0.029734482397884128
1772896124199294200,12.097294189453125,-0.06559387741684913,0.07944149324446916,0.008246727080643177
1772896124209263400,12.107263427734376,-0.07278700379133224,0.057641895499080414,-0.021655659230053425
1772896124219231500,12.1172314453125,-0.07858195380568504,0.031241160633787513,-0.0327944544903934
1772896124229199400,12.127199462890625,0.015081833797693251,0.027811916837468743,-0.028183161302655933
1772896124239168500,12.13716845703125,0.1045382328391075,-0.00039944764636456965,-0.02831964716389775
1772896124249136000,12.14713623046875,0.11019991186261176,0.0017063655264675617,0.0025496844828128812
1772896124259105300,12.157105224609374,0.13551555490493775,0.03580700724460184,0.047800446572899814
1772896124269073200,12.1670732421875,0.14984686259627342,0.05706972163431346,0.0836326613239944
1772896124279041300,12.177041259765625,0.15061960053443907,0.07191957330703735,0.13980974496752022
1772896124289010200,12.18701025390625,0.09761866270899772,0.09400061834231019,0.11460647625848651
1772896124298978300,12.196978271484374,0.02022445738315582,0.059742009583488104,0.03658697864115238
1772896124308946400,12.206946533203125,-0.03264028684198856,0.046956031638011334,-0.0014797171637415884
1772896124318915300,12.216915283203125,-0.034654549273848534,0.050146936633810396,-0.04559869874492287
1772896124328883500,12.226883544921876,-0.07976151897907256,0.048953635196015234,-0.06859042888432741
1772896124338851300,12.236851318359374,-0.06913783363401889,0.06244111247435212,-0.07860811116024852
1772896124348820200,12.2468203125,0.00028758476972579955,0.0609369184564799,-0.037004327270388604
1772896124358788400,12.256788330078125,0.06122925246655941,0.06544007509462535,0.003367430606484413
1772896124368756200,12.266756103515625,0.057658408242464064,0.05811601581685245,0.022302871092408895
1772896124378725400,12.276725341796874,0.010095862078666687,0.06826682295314968,0.026224428450316188
1772896124388693200,12.286693359375,0.021010639324784277,0.07095562364570795,0.04007248266935348
