time,seconds_elapsed,z,y,x
1772896112166272800,0.064272705078125,0.132961243391037,-0.1362430602312088,0.6386422514915466
1772896112176240600,0.07424072265625,0.1944432556629181,-0.06046414375305176,0.5903314352035522
1772896112186209800,0.084209716796875,0.22953225672245026,-0.06319788098335266,0.5287394523620605
1772896112196177700,0.094177734375,0.285384863615036,0.0821651741862297,0.5388842225074768
1772896112206145800,0.104145751953125,0.3311007022857666,0.2706195116043091,0.6157127022743225
1772896112216114700,0.11411474609375,0.3800993859767914,0.4726509153842926,0.7376173138618469
1772896112226082600,0.12408251953125,0.5020191669464111,0.5486652255058289,0.8991420269012451
1772896112236050700,0.13405078125,0.5989193320274353,0.5286459922790527,0.924547016620636
1772896112246019600,0.14401953125,0.5772033929824829,0.4201623797416687,0.7572735548019409
1772896112255987700,0.15398779296875,0.5286720991134644,0.2724509537220001,0.5534629225730896
1772896112265955600,0.16395556640625,0.45097702741622925,0.19396920502185822,0.440753698348999
1772896112275923700,0.173923828125,0.35230159759521484,0.05841377377510071,0.5463706851005554
1772896112285892600,0.183892578125,0.31317469477653503,-0.3523721694946289,0.7802231311798096
1772896112295860700,0.19386083984375,0.28258827328681946,-0.7105204463005066,1.0546847581863403
1772896112305830000,0.203829833984375,0.2965339422225952,-0.9794281125068665,1.324054479598999
1772896112315797500,0.213797607421875,0.25294092297554016,-1.103880524635315,1.481570839881897
1772896112325765600,0.223765625,0.20372062921524048,-1.0880354642868042,1.6133757829666138
1772896112335734500,0.233734619140625,0.17983181774616241,-1.2816555500030518,1.7038960456848145
1772896112345702700,0.24370263671875,0.1064089983701706,-1.7468129396438599,1.7564711570739746
1772896112355670800,0.2536708984375,-0.14644776284694672,-2.295337200164795,1.7347946166992188
1772896112365638700,0.263638671875,-0.6584668159484863,-2.8115687370300293,1.5579439401626587
1772896112375607800,0.27360791015625,-1.376604676246643,-3.349228858947754,1.2015631198883057
1772896112385575700,0.28357568359375,-2.1555354595184326,-3.6665148735046387,0.6861932873725891
1772896112395543600,0.29354345703125,-2.9722204208374023,-3.2123544216156006,-0.047445811331272125
1772896112405512400,0.303512451171875,-3.493943929672241,-2.1606907844543457,-0.5533502697944641
1772896112415480600,0.31348046875,-2.8516881465911865,-0.6586902737617493,-0.8125970363616943
1772896112425448700,0.32344873046875,0.0491451770067215,0.6506211757659912,-0.5354855060577393
1772896112435417600,0.33341748046875,1.729033350944519,1.5726290941238403,-0.8667678236961365
1772896112445385700,0.3433857421875,0.7946974039077759,1.1494327783584595,-1.688681721687317
1772896112455353900,0.353353759765625,0.4198524057865143,0.5719159841537476,-2.0924925804138184
1772896112465322800,0.36332275390625,0.9256654977798462,0.5386562943458557,-2.3381078243255615
1772896112475291000,0.373290771484375,0.9509756565093994,0.47879669070243835,-2.4599967002868652
1772896112485258500,0.383258544921875,0.7805312275886536,0.0974610447883606,-2.2919301986694336
1772896112495227600,0.3932275390625,0.6736425757408142,-0.25751250982284546,-1.9389375448226929
1772896112505195500,0.403195556640625,0.5913967490196228,-0.13092339038848877,-1.4872419834136963
1772896112515163600,0.41316357421875,0.47754260897636414,0.2833179831504822,-1.0270256996154785
1772896112525132500,0.423132568359375,0.2651491165161133,0.5395183563232422,-0.6327348351478577
1772896112535100700,0.4331005859375,0.27323606610298157,0.3244401216506958,-0.5423641800880432
1772896112545068800,0.44306884765625,0.35246217250823975,-0.1650451421737671,-0.6233280301094055
1772896112555037700,0.45303759765625,0.35860902070999146,-0.7464137673377991,-0.7758022546768188
1772896112565005800,0.463005859375,0.42669087648391724,-1.1780357360839844,-0.883459746837616
1772896112574973700,0.4729736328125,0.47926032543182373,-1.2823528051376343,-0.7935333251953125
1772896112584942600,0.482942626953125,0.4666880965232849,-0.6092076897621155,-0.038829952478408813
1772896112594910700,0.49291064453125,0.4343533217906952,-1.3098994493484497,0.231529101729393
1772896112604878600,0.502878662109375,0.28665468096733093,-1.1351630687713623,0.4099094867706299
1772896112614847700,0.51284765625,0.2838708758354187,-0.8715682029724121,0.4450821280479431
1772896112624815600,0.522815673828125,0.25384825468063354,-0.5601610541343689,0.191222682595253
1772896112634783700,0.53278369140625,0.22455480694770813,-0.46388670802116394,-0.2779165804386139
1772896112644752600,0.542752685546875,0.20247960090637207,-0.5013357996940613,-0.709290087223053
1772896112654720800,0.552720703125,0.1692819744348526,-0.4307580590248108,-0.9442975521087646
1772896112664688600,0.562688720703125,0.06416087597608566,-0.21732619404792786,-1.1000431776046753
1772896112674657500,0.572657470703125,-0.10637011379003525,-0.2900102436542511,-1.4328802824020386
1772896112684625700,0.582625732421875,-0.1388300508260727,-0.6331977248191833,-1.8105226755142212
1772896112694593800,0.59259375,-0.03574095293879509,-0.5557606816291809,-1.9373817443847656
1772896112704562700,0.602562744140625,-0.10224088281393051,-0.23879021406173706,-1.7567760944366455
1772896112714530800,0.61253076171875,-0.2527614235877991,0.0021907163318246603,-1.3573015928268433
1772896112724498700,0.622498779296875,-0.35564732551574707,0.12153708189725876,-0.8845833539962769
1772896112734467800,0.6324677734375,-0.3199460506439209,0.38958024978637695,-0.43415144085884094
1772896112744435700,0.642435791015625,-0.20466633141040802,0.6792128682136536,-0.1508486270904541
1772896112754403600,0.652403564453125,-0.07521672546863556,0.8821542859077454,-0.07806843519210815
1772896112764372500,0.66237255859375,0.03801529109477997,0.899523138999939,-0.18135380744934082
1772896112774340600,0.672340576171875,0.10777226835489273,0.8811920881271362,-0.37310487031936646
1772896112784308700,0.682308837890625,0.13548539578914642,1.0818873643875122,-0.5430302619934082
1772896112794277600,0.692277587890625,0.09076186269521713,1.379067063331604,-0.667231023311615
1772896112804245800,0.702245849609375,0.02117186412215233,1.5728636980056763,-0.660353422164917
1772896112814213600,0.712213623046875,-0.0011848403373733163,1.5103042125701904,-0.5079548358917236
1772896112824182800,0.722182861328125,-0.060568004846572876,1.4945266246795654,-0.3256494700908661
1772896112834150700,0.732150634765625,-0.1125854030251503,1.3804751634597778,-0.1100306287407875
1772896112844118500,0.742118408203125,-0.10546038299798965,1.276836633682251,0.10437647253274918
1772896112854087700,0.752087646484375,-0.020688233897089958,1.2686233520507812,0.26514485478401184
1772896112864055600,0.7620556640625,0.08089618384838104,1.2531986236572266,0.3473252058029175
1772896112874023700,0.772023681640625,0.1622626781463623,1.1666117906570435,0.3378605842590332
1772896112883992600,0.78199267578125,0.24220144748687744,1.0492271184921265,0.26574698090553284
1772896112893960700,0.791960693359375,0.3025191128253937,0.8844224810600281,0.1965908259153366
1772896112903928800,0.8019287109375,0.2822053134441376,0.735671877861023,0.16180647909641266
1772896112913897700,0.811897705078125,0.22448237240314484,0.6057402491569519,0.1554148942232132
1772896112923865600,0.821865478515625,0.1708681434392929,0.5074136853218079,0.18425293266773224
1772896112933833500,0.83183349609375,0.13608379662036896,0.4210455119609833,0.28332197666168213
1772896112943802600,0.841802734375,0.13411812484264374,0.34776782989501953,0.4244591295719147
1772896112953770800,0.851770751953125,0.17111502587795258,0.2738850712776184,0.5268132090568542
1772896112963738600,0.861738525390625,0.21142728626728058,0.1984739452600479,0.5458204746246338
1772896112973707800,0.871707763671875,-0.3152522146701813,0.7135977149009705,1.1470905542373657
1772896112983675600,0.881675537109375,0.1832933872938156,1.139680027961731,0.7951133847236633
1772896112993643800,0.891643798828125,-0.16385124623775482,0.6344528794288635,0.6823064088821411
1772896113003612700,0.90161279296875,-0.27747368812561035,0.18260416388511658,0.48842400312423706
1772896113013580500,0.91158056640625,-0.2110656350851059,0.5063382983207703,0.2599077522754669
1772896113023548700,0.921548583984375,-0.13389308750629425,0.5921764969825745,0.181525319814682
1772896113033517600,0.931517578125,-0.018545188009738922,0.3594186305999756,0.3459307849407196
1772896113043485700,0.941485595703125,0.1229911670088768,0.17407672107219696,0.6248087286949158
1772896113053453600,0.95145361328125,0.31678566336631775,0.009213205426931381,0.8364421725273132
1772896113063422700,0.961422607421875,0.47492924332618713,-0.11287355422973633,0.8985124826431274
1772896113073390800,0.971390869140625,0.5311078429222107,-0.21349284052848816,0.7894203066825867
1772896113083358700,0.981358642578125,0.5175241231918335,-0.22078430652618408,0.6055666208267212
1772896113093328000,0.991327880859375,0.47751784324645996,-0.18212373554706573,0.44289299845695496
1772896113103295500,1.00129541015625,0.42992207407951355,-0.17037786543369293,0.333201140165329
1772896113113263600,1.011263671875,0.3886081874370575,-0.17380455136299133,0.26958221197128296
1772896113123232500,1.021232421875,0.3310498297214508,-0.19938766956329346,0.24130502343177795
1772896113133200600,1.03120068359375,0.279181569814682,-0.2101828008890152,0.25878122448921204
1772896113143168800,1.041168701171875,0.209917813539505,-0.17246125638484955,0.2775450646877289
1772896113153137700,1.0511376953125,0.1632310003042221,-0.08803638070821762,0.22875595092773438
1772896113163105800,1.061105712890625,0.12575127184391022,0.02364913746714592,0.13002990186214447
1772896113173073400,1.071073486328125,0.09339732676744461,0.10595919191837311,0.019245600327849388
1772896113183042600,1.08104248046875,0.06413024663925171,0.1319231390953064,-0.08888939023017883
1772896113193010700,1.0910107421875,0.04320499300956726,0.12191738188266754,-0.1595262736082077
1772896113202978600,1.100978515625,0.019750002771615982,0.046663377434015274,-0.18560288846492767
1772896113212947700,1.11094775390625,0.00035366779775358737,-0.037873879075050354,-0.16836531460285187
1772896113222915300,1.120915283203125,-0.0065045044757425785,-0.08057953417301178,-0.12412194907665253
1772896113232883500,1.130883544921875,0.013036173768341541,-0.12348145991563797,-0.08539239317178726
1772896113242852400,1.140852294921875,0.04289393872022629,-0.17842699587345123,-0.04739627614617348
1772896113252820500,1.150820556640625,0.06759475916624069,-0.26982802152633667,-0.03514919802546501
1772896113262788600,1.16078857421875,0.09115094691514969,-0.2913524806499481,-0.04697389900684357
1772896113272757500,1.170757568359375,0.09935668110847473,-0.24931955337524414,-0.09074774384498596
1772896113282725600,1.1807255859375,0.08848592638969421,-0.1803511381149292,-0.12963761389255524
1772896113292693500,1.190693603515625,0.04835901036858559,-0.05871843919157982,-0.14433987438678741
1772896113302662700,1.20066259765625,-0.016933443024754524,0.03857056051492691,-0.13275964558124542
1772896113312630500,1.210630615234375,-0.05540600046515465,0.0723104178905487,-0.120620958507061
1772896113322598400,1.220598388671875,-0.06651458144187927,0.07562312483787537,-0.1255829632282257
1772896113332567600,1.230567626953125,-0.057977814227342606,0.08009776473045349,-0.13974538445472717
1772896113342535400,1.240535400390625,-0.02581615000963211,0.08245998620986938,-0.16452743113040924
1772896113352503600,1.250503662109375,0.0001728391507640481,0.07321882247924805,-0.17228016257286072
1772896113362472400,1.260472412109375,0.012093947269022465,0.10155005753040314,-0.1478392630815506
1772896113372440600,1.270440673828125,0.0027776770293712616,0.10233675688505173,-0.12496350705623627
1772896113382408700,1.28040869140625,-0.021376928314566612,0.1117534264922142,-0.09084122627973557
1772896113392377600,1.290377685546875,-0.03953436017036438,0.10932809114456177,-0.05130686238408089
1772896113402345500,1.300345458984375,-0.044932056218385696,0.09919369220733643,-0.03164208307862282
1772896113412313300,1.310313232421875,-0.011319233104586601,0.11984943598508835,-0.019331352785229683
1772896113422282500,1.320282470703125,-0.010236924514174461,0.10118041187524796,-0.021812355145812035
1772896113432250600,1.330250732421875,-0.002847185591235757,0.07025445252656937,-0.02605583518743515
1772896113442218500,1.340218505859375,-0.0007068029372021556,0.01859658770263195,-0.03381096199154854
1772896113452187600,1.350187744140625,0.00785339530557394,-0.00017257283616345376,-0.025062741711735725
1772896113462155500,1.360155517578125,0.022243253886699677,0.0011717908782884479,-0.003826962551102042
1772896113472123600,1.37012353515625,0.05405764281749725,0.01384071446955204,0.02526860497891903
1772896113482092500,1.380092529296875,0.05891657993197441,0.01672704890370369,0.06319361925125122
1772896113492060400,1.390060302734375,0.04748336225748062,0.012041749432682991,0.0647323876619339
1772896113502028500,1.400028564453125,0.006146043073385954,-0.003565173828974366,0.04303215444087982
1772896113511997400,1.40999755859375,-0.023752734065055847,0.00005326322207110934,0.024280838668346405
1772896113521965600,1.419965576171875,-0.0286505538970232,0.01924852840602398,0.0051593417301774025
1772896113531933400,1.429933349609375,-0.015749135985970497,0.03405517339706421,-0.03148548677563667
1772896113541902600,1.439902587890625,-0.01414484716951847,0.050458114594221115,-0.06952128559350967
1772896113551870500,1.449870361328125,-0.029405558481812477,0.06425142288208008,-0.07421430945396423
1772896113561838300,1.45983837890625,-0.038849130272865295,0.05011270195245743,-0.06587808579206467
1772896113571807700,1.469807861328125,-0.03911544382572174,0.010083260014653206,-0.04002491384744644
1772896113581775400,1.479775390625,-0.11225277185440063,0.025960227474570274,0.00495188171043992
1772896113591743500,1.489743408203125,-0.24182194471359253,0.1678377389907837,-0.020842164754867554
1772896113601712400,1.49971240234375,-0.14181917905807495,0.11593246459960938,-0.00022024342615623027
1772896113611680500,1.509680419921875,-0.08076462149620056,0.056175921112298965,0.006687463726848364
1772896113621648600,1.519648681640625,-0.09800539165735245,0.13195909559726715,-0.07651235163211823
1772896113631617500,1.529617431640625,-0.08292257785797119,0.20815666019916534,-0.20442424714565277
1772896113641585700,1.539585693359375,-0.02503637783229351,0.2214255928993225,-0.2806641459465027
1772896113651553300,1.54955322265625,0.040652886033058167,0.1993218958377838,-0.2858352065086365
1772896113661522400,1.5595224609375,0.10545744746923447,0.10319323092699051,-0.2115710973739624
1772896113671490300,1.569490234375,0.16190926730632782,-0.013100355863571167,-0.1016043871641159
1772896113681458400,1.57945849609375,0.21576212346553802,-0.0893048420548439,-0.0026405241806060076
1772896113691427600,1.589427490234375,0.24773629009723663,-0.16030311584472656,0.08401607722043991
1772896113701395500,1.5993955078125,0.2484486997127533,-0.22881081700325012,0.15300312638282776
1772896113711363600,1.609363525390625,0.18546253442764282,-0.3228835165500641,0.18442896008491516
1772896113721332500,1.61933251953125,0.11456333100795746,-0.32779011130332947,0.1937686651945114
1772896113731300600,1.629300537109375,0.07352960854768753,-0.3115658760070801,0.18516185879707336
1772896113741268500,1.6392685546875,0.02557060681283474,-0.258110910654068,0.14542217552661896
1772896113751237400,1.6492373046875,0.018366489559412003,-0.18374666571617126,0.11389141529798508
1772896113761205500,1.65920556640625,0.02281077392399311,-0.1499633938074112,0.06053897738456726
1772896113771173400,1.66917333984375,0.025410551577806473,-0.12140685319900513,0.010670487768948078
1772896113781142500,1.679142578125,0.02322675846517086,-0.09146919846534729,-0.016164323315024376
1772896113791110400,1.6891103515625,-0.001654622028581798,-0.0844845250248909,-0.026165291666984558
1772896113801078500,1.69907861328125,-0.03750423341989517,-0.09703920036554337,-0.005754558369517326
1772896113811047700,1.709047607421875,-0.05927557498216629,-0.14375317096710205,0.04430674389004707
1772896113821015600,1.719015625,-0.07444813847541809,-0.22598972916603088,0.1054513230919838
1772896113830983400,1.7289833984375,-0.08596976846456528,-0.29495999217033386,0.16465872526168823
1772896113840951600,1.73895166015625,-0.09663040190935135,-0.36189642548561096,0.21031835675239563
1772896113850920400,1.74892041015625,-0.12137516587972641,-0.42476433515548706,0.2485131472349167
1772896113860888600,1.758888671875,-0.14481817185878754,-0.47086843848228455,0.2660817503929138
1772896113870856400,1.7688564453125,-0.14344744384288788,-0.4944150447845459,0.2623938024044037
1772896113880825600,1.77882568359375,-0.14823180437088013,-0.49453356862068176,0.2460787445306778
1772896113890793500,1.78879345703125,-0.13970570266246796,-0.4775700271129608,0.21493308246135712
1772896113900761600,1.79876171875,-0.1229056790471077,-0.4330179989337921,0.18831372261047363
1772896113910730500,1.80873046875,-0.09547539055347443,-0.37939420342445374,0.16686861217021942
1772896113920698400,1.818698486328125,-0.05781855806708336,-0.3325001895427704,0.13516049087047577
1772896113930666500,1.82866650390625,-0.02695545181632042,-0.2888352572917938,0.12158075720071793
1772896113940635400,1.838635498046875,-0.001928128651343286,-0.25347328186035156,0.11644964665174484
1772896113950603500,1.848603515625,0.016593091189861298,-0.22549037635326385,0.13266190886497498
1772896113960571600,1.858571533203125,0.020204870030283928,-0.20911459624767303,0.14947471022605896
1772896113970540500,1.86854052734375,0.006909837480634451,-0.19928035140037537,0.17067773640155792
1772896113980508700,1.8785087890625,-0.004225371405482292,-0.20603865385055542,0.1829003095626831
1772896113990476500,1.8884765625,-0.005809952039271593,-0.2101348638534546,0.19106610119342804
1772896114000445700,1.89844580078125,-0.01221405528485775,-0.20291689038276672,0.1915808767080307
1772896114010413300,1.908413330078125,-0.013917946256697178,-0.19213934242725372,0.1636970490217209
1772896114020381400,1.91838134765625,-0.01708977110683918,-0.18782076239585876,0.1269073486328125
1772896114030350300,1.928350341796875,-0.029995715245604515,-0.18616880476474762,0.08002612739801407
1772896114040318500,1.938318359375,-0.030956318601965904,-0.15320099890232086,0.05205361545085907
1772896114050286600,1.94828662109375,-0.028112061321735382,-0.1411701738834381,0.06325966119766235
1772896114060255500,1.95825537109375,-0.05872642993927002,-0.17319707572460175,0.06420215219259262
1772896114070223600,1.9682236328125,-0.0743330866098404,-0.10613123327493668,0.04710492864251137
1772896114080191500,1.97819140625,-0.07178257405757904,0.01564580574631691,0.021075990051031113
1772896114090160600,1.98816064453125,-0.06921955198049545,0.08672744035720825,0.011245730333030224
1772896114100128500,1.99812841796875,-0.05723905563354492,0.10526090860366821,0.01110271830111742
1772896114110096400,2.008096435546875,-0.03478168323636055,0.11349274218082428,0.009619071148335934
1772896114120065500,2.0180654296875,-0.0024549018125981092,0.10382333397865295,0.02550429478287697
1772896114130033400,2.028033447265625,0.003064499469473958,0.10016388446092606,0.06771007180213928
1772896114140001500,2.03800146484375,-0.0015694007743149996,0.10642178356647491,0.10606758296489716
1772896114149970400,2.047970458984375,-0.009306682273745537,0.11402244120836258,0.12562529742717743
1772896114159938600,2.0579384765625,-0.025792447850108147,0.13981196284294128,0.12729138135910034
1772896114169906700,2.06790673828125,-0.03416542708873749,0.15734247863292694,0.11054914444684982
1772896114179875600,2.07787548828125,-0.0313589870929718,0.17406846582889557,0.07424519956111908
1772896114189843700,2.08784375,-0.024225179105997086,0.17775268852710724,0.03587304428219795
1772896114199811600,2.0978115234375,-0.02076786197721958,0.17854151129722595,0.0013377057621255517
1772896114209780500,2.107780517578125,-0.03552603721618652,0.2007751762866974,-0.03182397410273552
1772896114219748600,2.11774853515625,-0.005371862091124058,0.25799107551574707,-0.028268389403820038
1772896114229716500,2.127716552734375,0.009603891521692276,0.25843846797943115,-0.009500028565526009
1772896114239685600,2.137685546875,0.04692623019218445,0.25500139594078064,-0.007784419693052769
1772896114249653500,2.147653564453125,0.06154778227210045,0.24813896417617798,0.00019121496006846428
1772896114259621600,2.15762158203125,0.05212604999542236,0.22401978075504303,0.009729060344398022
1772896114269590500,2.167590576171875,0.0427732951939106,0.22135022282600403,0.014762434177100658
1772896114279558700,2.17755859375,0.02082938142120838,0.2150244265794754,0.014038586989045143
1772896114289526500,2.187526611328125,0.024166589602828026,0.20789115130901337,-0.0034133736044168472
1772896114299495400,2.197495361328125,0.015031414106488228,0.2153804898262024,-0.04776672273874283
1772896114309463600,2.207463623046875,-0.00788375549018383,0.2183307409286499,-0.08965132385492325
1772896114319431400,2.217431396484375,-0.021207017824053764,0.20898543298244476,-0.1156509667634964
1772896114329400600,2.227400634765625,-0.015690812841057777,0.18669424951076508,-0.10914725810289383
1772896114339368700,2.23736865234375,0.0008093346259556711,0.15414190292358398,-0.08182615786790848
1772896114349336600,2.247336669921875,0.026064623147249222,0.13278095424175262,-0.04910789057612419
1772896114359305700,2.2573056640625,0.047928910702466965,0.10278762876987457,-0.03314037621021271
1772896114369273600,2.267273681640625,0.07983384281396866,0.07543323934078217,-0.045094508677721024
1772896114379241500,2.277241455078125,0.11642780900001526,0.06524424999952316,-0.06459097564220428
1772896114389210400,2.28721044921875,0.14163462817668915,0.057366352528333664,-0.08910617232322693
1772896114399178500,2.297178466796875,0.17488020658493042,0.03075524978339672,-0.09738381206989288
1772896114409146600,2.307146728515625,0.20417363941669464,-0.0044197821989655495,-0.08019523322582245
1772896114419115500,2.317115478515625,0.22198086977005005,-0.032656479626894,-0.050812847912311554
1772896114429083600,2.327083740234375,0.22223706543445587,-0.05125173553824425,-0.04505429416894913
1772896114439051500,2.337051513671875,0.2175714671611786,-0.08667337894439697,-0.061166416853666306
1772896114449020700,2.347020751953125,0.21029146015644073,-0.15516269207000732,-0.05608510598540306
1772896114458988500,2.356988525390625,0.2103356570005417,-0.22106394171714783,-0.023453926667571068
1772896114468956400,2.366956298828125,0.20780380070209503,-0.25526824593544006,0.013293434865772724
1772896114478925600,2.376925537109375,0.20579896867275238,-0.24926787614822388,0.05219263210892677
1772896114488893400,2.3868935546875,0.20246842503547668,-0.20737849175930023,0.10324729233980179
1772896114498861600,2.396861572265625,0.19872720539569855,-0.14461177587509155,0.15983547270298004
1772896114508830500,2.40683056640625,0.19630026817321777,-0.08731359988451004,0.2269311547279358
1772896114518798600,2.416798583984375,0.19517508149147034,0.000949150591623038,0.2676655352115631
1772896114528766700,2.4267666015625,0.2017059624195099,0.08072546869516373,0.2544698417186737
1772896114538735600,2.436735595703125,0.18477463722229004,0.12116850167512894,0.1975966989994049
1772896114548703500,2.446703369140625,0.1388833224773407,0.12988103926181793,0.13993526995182037
1772896114558671400,2.45667138671875,0.10122808068990707,0.15290433168411255,0.0807046964764595
1772896114568640500,2.466640625,0.09177066385746002,0.17730793356895447,0.04300445690751076
1772896114578608600,2.476608642578125,0.2386770248413086,0.054783888161182404,0.06111741438508034
1772896114588576500,2.486576416015625,0.2854757010936737,-0.09523091465234756,0.07228165119886398
1772896114598545700,2.496545654296875,0.2052391767501831,-0.02431998774409294,0.1346704661846161
1772896114608513500,2.506513427734375,0.1846417486667633,0.13400840759277344,0.23303911089897156
1772896114618481700,2.516481689453125,0.28348737955093384,0.03532550111413002,0.20200662314891815
1772896114628450600,2.526450439453125,0.34630388021469116,-0.1005159541964531,0.07198391109704971
1772896114638418400,2.53641845703125,0.34422609210014343,-0.24337376654148102,-0.026916835457086563
1772896114648386600,2.546386474609375,0.3330860733985901,-0.40392324328422546,-0.010321347042918205
1772896114658355500,2.55635546875,0.25420325994491577,-0.6377019286155701,-0.11937273293733597
1772896114668323600,2.566323486328125,0.2904195785522461,-0.6861610412597656,-0.18286648392677307
1772896114678291500,2.57629150390625,0.5777091383934021,-0.36887016892433167,-0.04246862977743149
1772896114688260600,2.586260498046875,0.7852295637130737,0.006313023157417774,0.16033853590488434
1772896114698228500,2.596228515625,0.7850825786590576,0.045945122838020325,0.2205994874238968
1772896114708196600,2.606196533203125,0.8377715945243835,0.013137106783688068,0.1768578588962555
1772896114718165800,2.616165771484375,0.9620003700256348,0.03278031572699547,0.11746004968881607
1772896114728133400,2.62613330078125,1.07271146774292,0.08410315960645676,0.02804921194911003
1772896114738101500,2.6361015625,1.1589387655258179,0.22216223180294037,-0.05284696817398071
1772896114748070400,2.6460703125,1.1103477478027344,0.3476479947566986,-0.10630593448877335
1772896114758038500,2.65603857421875,0.6826664805412292,0.6038686037063599,-0.26594993472099304
1772896114768006700,2.666006591796875,-0.2517147958278656,1.0119801759719849,-0.7145567536354065
1772896114777974500,2.675974609375,-0.9807980060577393,1.1976964473724365,-1.0706748962402344
1772896114787943700,2.685943603515625,-0.8276692032814026,1.652968406677246,-1.2827857732772827
1772896114797911600,2.69591162109375,-0.5251798629760742,2.017162322998047,-1.3284177780151367
1772896114807880700,2.705880615234375,-0.4144291281700134,1.7508976459503174,-1.1285924911499023
1772896114817848300,2.715848388671875,-0.08398411422967911,1.1584607362747192,-1.0619360208511353
1772896114827816400,2.72581640625,0.3150218725204468,0.6704438924789429,-0.9630911946296692
1772896114837784600,2.73578466796875,0.5912513136863708,0.11614764481782913,-0.6611361503601074
1772896114847753500,2.74575341796875,0.9231930375099182,-0.7053517699241638,-0.32923728227615356
1772896114857721600,2.7557216796875,1.2225289344787598,-1.4297279119491577,0.035947881639003754
1772896114867689700,2.765689697265625,1.3611152172088623,-1.8851481676101685,0.3767366111278534
1772896114877658600,2.77565869140625,1.144735336303711,-2.24448561668396,0.5984333157539368
1772896114887626800,2.785626708984375,0.883906364440918,-2.033508539199829,0.6183117032051086
1772896114897594400,2.795594482421875,0.5595349073410034,-1.5364197492599487,0.24261024594306946
1772896114907563500,2.8055634765625,0.1605430692434311,-0.9717627167701721,-0.4554210603237152
1772896114917531400,2.815531494140625,-0.21743857860565186,-0.26621729135513306,-1.2272865772247314
1772896114927499500,2.82549951171875,-0.5568608641624451,0.22450794279575348,-1.6647379398345947
1772896114937468400,2.835468505859375,-0.7775303721427917,0.3339441418647766,-1.6526858806610107
1772896114947436500,2.8454365234375,-0.8175310492515564,0.154347226023674,-1.449891209602356
1772896114957404700,2.85540478515625,-0.5982892513275146,-0.12233603000640869,-1.2639268636703491
1772896114967373600,2.86537353515625,-0.2337014377117157,-0.4362708032131195,-1.038570523262024
1772896114977341700,2.875341796875,0.0903639867901802,-0.6664912104606628,-0.6842502355575562
1772896114987309600,2.8853095703125,0.2629013955593109,-0.8827369809150696,-0.33128872513771057
1772896114997278500,2.895278564453125,0.25473374128341675,-0.9322912096977234,-0.07836058735847473
1772896115007246600,2.90524658203125,0.2710208594799042,-0.8019206523895264,-0.14813967049121857
1772896115017214500,2.91521435546875,0.2442595362663269,-0.4217589497566223,-0.4756262004375458
1772896115027183600,2.92518359375,0.12112429738044739,0.022485068067908287,-0.8698070645332336
1772896115037151500,2.9351513671875,-0.1224212497472763,0.39067506790161133,-1.040961503982544
1772896115047119600,2.94511962890625,-0.39944806694984436,0.608204185962677,-1.0348918437957764
1772896115057088500,2.955088623046875,-0.6056281328201294,0.766741931438446,-1.0904345512390137
1772896115067056600,2.965056640625,-0.7014920711517334,0.8733461499214172,-1.208908200263977
1772896115077024500,2.9750244140625,-0.6741246581077576,0.8731266856193542,-1.2888588905334473
1772896115086993400,2.984993408203125,-0.620224118232727,0.7779503464698792,-1.2466944456100464
1772896115096961500,2.99496142578125,-0.6733807921409607,0.7540103793144226,-1.1268467903137207
1772896115106929700,3.0049296875,-0.9606866240501404,0.9332296848297119,-1.2573150396347046
1772896115116898600,3.014898681640625,-1.4328386783599854,1.2626384496688843,-1.458991527557373
1772896115126866700,3.02486669921875,-1.7994606494903564,1.4896572828292847,-1.647809386253357
1772896115136834600,3.03483447265625,-2.138782024383545,1.5201622247695923,-1.6515593528747559
1772896115146803700,3.0448037109375,-2.6585159301757812,1.4039995670318604,-1.3873436450958252
1772896115156771600,3.054771484375,-3.109178066253662,1.3060293197631836,-1.121435284614563
1772896115166739500,3.064739501953125,-3.0113866329193115,1.2448691129684448,-0.9826334714889526
1772896115176708400,3.074708251953125,-2.462296962738037,1.119584083557129,-0.7894443273544312
1772896115186676500,3.084676513671875,-1.848798155784607,0.9543730616569519,-0.40541568398475647
1772896115196644600,3.09464453125,-1.364475131034851,0.952338695526123,0.08821640908718109
1772896115206613500,3.104613525390625,-1.0054842233657837,1.0154297351837158,0.507557213306427
1772896115216581600,3.11458154296875,-0.7357072830200195,1.1037009954452515,0.6980259418487549
1772896115226549500,3.124549560546875,-0.544551432132721,1.2827730178833008,0.6888854503631592
1772896115236518700,3.1345185546875,-0.39181676506996155,1.4831290245056152,0.6068707704544067
1772896115246486800,3.14448681640625,-0.2549598515033722,1.6392922401428223,0.5102619528770447
1772896115256454400,3.154454345703125,-0.09363407641649246,1.7151950597763062,0.3465571403503418
1772896115266423600,3.164423583984375,0.03098374791443348,1.6614761352539062,0.12769991159439087
1772896115276391400,3.174391357421875,0.1320938616991043,1.5118120908737183,-0.12161165475845337
1772896115286359600,3.184359619140625,0.20135948061943054,1.321154236793518,-0.3701852560043335
1772896115296328400,3.194328369140625,0.15656085312366486,1.074580192565918,-0.4108618497848511
1772896115306296600,3.204296630859375,0.05361848697066307,0.7747814655303955,-0.2407444417476654
1772896115316264700,3.2142646484375,0.0026586337480694056,0.3976408541202545,-0.13616688549518585
1772896115326233600,3.224233642578125,0.03728771582245827,0.10854964703321457,-0.04650784656405449
1772896115336201500,3.234201416015625,0.14069905877113342,-0.054729558527469635,0.1454075276851654
1772896115346169300,3.24416943359375,0.3088188171386719,-0.19247864186763763,0.28435903787612915
1772896115356138500,3.254138427734375,0.531313955783844,-0.36868348717689514,0.2935194969177246
1772896115366106600,3.264106689453125,0.7254741191864014,-0.5685343146324158,0.28937241435050964
1772896115376074500,3.274074462890625,0.7434432506561279,-0.7472630143165588,0.4803844690322876
1772896115386043600,3.284043701171875,0.6317710280418396,-0.9708518981933594,0.8372333645820618
1772896115396011500,3.294011474609375,0.5461642742156982,-1.257869005203247,1.1229170560836792
1772896115405979600,3.303979736328125,0.5160329937934875,-1.3813321590423584,1.1549102067947388
1772896115415948500,3.313948486328125,0.5212399959564209,-1.2918720245361328,1.031685709953308
1772896115425916400,3.32391650390625,0.5363345146179199,-1.148848533630371,0.9344848394393921
1772896115435884500,3.333884521484375,0.5482234358787537,-1.0133916139602661,0.8996943831443787
1772896115445853400,3.343853515625,0.5940601825714111,-0.933370053768158,0.866880476474762
1772896115455821600,3.353821533203125,0.6508693695068359,-0.9306200742721558,0.7599338293075562
1772896115465789400,3.36378955078125,0.6110695004463196,-0.996806263923645,0.6335516571998596
1772896115475758600,3.373758544921875,0.3775582015514374,-1.1505804061889648,0.5966319441795349
1772896115485726700,3.383726806640625,-0.06927680969238281,-1.5090075731277466,0.6118695139884949
1772896115495694600,3.393694580078125,-0.5873332619667053,-1.8932867050170898,0.5032585859298706
1772896115505663700,3.403663818359375,-0.840573787689209,-1.8401992321014404,0.21291705965995789
1772896115515631400,3.41363134765625,-0.7092594504356384,-1.4621907472610474,-0.09568125009536743
1772896115525599500,3.423599609375,-0.37381672859191895,-0.9772022366523743,-0.23062148690223694
1772896115535568400,3.433568359375,0.04963120073080063,-0.4555957615375519,-0.17473052442073822
1772896115545536500,3.44353662109375,0.4114253520965576,-0.03208549693226814,-0.06569325923919678
1772896115555504600,3.453504638671875,0.5534943342208862,0.15454962849617004,-0.07196792960166931
1772896115565473500,3.4634736328125,0.4599284529685974,0.1840800940990448,-0.22221335768699646
1772896115575441700,3.473441650390625,0.21142356097698212,0.18940454721450806,-0.29957500100135803
1772896115585409500,3.483409423828125,-0.07862211018800735,0.0936545878648758,-0.17425115406513214
1772896115595378700,3.493378662109375,-0.28102579712867737,-0.005053614266216755,-0.1279475837945938
1772896115605346600,3.5033466796875,-0.3826531171798706,-0.11286609619855881,-0.2155703753232956
1772896115615314400,3.513314453125,-0.4418503940105438,-0.211151123046875,-0.2896656394004822
1772896115625283600,3.52328369140625,-0.4439510703086853,-0.32797306776046753,-0.33958178758621216
1772896115635251500,3.53325146484375,-0.39463600516319275,-0.4035162925720215,-0.3542502224445343
1772896115645219600,3.543219482421875,-0.3437264859676361,-0.46419137716293335,-0.34748604893684387
1772896115655188500,3.5531884765625,-0.30037686228752136,-0.5257010459899902,-0.3046938478946686
1772896115665156600,3.563156494140625,-0.2657909393310547,-0.5909085869789124,-0.2690865993499756
1772896115675124700,3.573124755859375,-0.1998462677001953,-0.6702806353569031,-0.319341778755188
1772896115685093600,3.58309375,-0.11361817270517349,-0.7308467626571655,-0.4424456059932709
1772896115695061500,3.5930615234375,-0.04855528473854065,-0.7297700643539429,-0.49149754643440247
1772896115705029400,3.603029296875,-0.0016343819443136454,-0.6736993193626404,-0.3901858627796173
1772896115714998500,3.61299853515625,0.04921361804008484,-0.5649496912956238,-0.1868433803319931
1772896115724966400,3.62296630859375,0.1052614375948906,-0.446585476398468,0.0021521004382520914
1772896115734934500,3.6329345703125,0.10261878371238708,-0.36875566840171814,0.13346724212169647
1772896115744903700,3.642903564453125,0.11355505883693695,-0.3169020414352417,0.10919279605150223
1772896115754871600,3.65287158203125,0.16083841025829315,-0.23804159462451935,-0.021795842796564102
1772896115764839700,3.662839599609375,0.19068925082683563,-0.10715334862470627,-0.14355529844760895
1772896115774808600,3.67280859375,0.18800824880599976,0.06926935166120529,-0.21553468704223633
1772896115784776400,3.6827763671875,0.19023358821868896,0.2004268318414688,-0.3116185963153839
1772896115794744600,3.69274462890625,0.12685568630695343,0.30565258860588074,-0.42282742261886597
1772896115804712400,3.70271240234375,-0.04602714627981186,0.33321765065193176,-0.3692297041416168
1772896115814681600,3.712681640625,-0.2933919429779053,0.3428521454334259,-0.2852487862110138
1772896115824649500,3.7226494140625,-0.6216225624084473,0.26348036527633667,-0.16334950923919678
1772896115834617600,3.73261767578125,-1.01826012134552,0.029081718996167183,-0.14929547905921936
1772896115844586500,3.74258642578125,-1.418447732925415,-0.23207370936870575,-0.28959161043167114
1772896115854554600,3.7525546875,-1.6294716596603394,-0.414124995470047,-0.4169948399066925
1772896115864522500,3.7625224609375,-1.4505013227462769,-0.36224716901779175,-0.48404842615127563
1772896115874491400,3.772491455078125,-1.0634918212890625,-0.17297764122486115,-0.46004775166511536
1772896115884459500,3.78245947265625,-0.8104560971260071,-0.27029380202293396,-0.1414221078157425
1772896115894427600,3.792427734375,-0.7549262642860413,-0.732539176940918,0.2112794816493988
1772896115904396500,3.802396484375,-0.5804620385169983,-1.2213938236236572,0.4181053638458252
1772896115914364700,3.81236474609375,-0.37655261158943176,-1.6624891757965088,0.6103206276893616
1772896115924332500,3.82233251953125,0.11088257282972336,-1.2487231492996216,0.5182122588157654
1772896115934301700,3.8323017578125,0.6905297040939331,-0.3417906165122986,0.3493196368217468
1772896115944269600,3.84226953125,1.125309944152832,0.42149850726127625,0.14751036465168
1772896115954237400,3.852237548828125,1.4376391172409058,0.9440256357192993,-0.011028416454792023
1772896115964206300,3.862206298828125,1.6435309648513794,1.0012164115905762,-0.11602886766195297
1772896115974174500,3.872174560546875,1.7180047035217285,0.9088013172149658,-0.22307835519313812
1772896115984142600,3.882142578125,1.569216251373291,0.7587186098098755,-0.25845420360565186
1772896115994111500,3.892111572265625,1.0116456747055054,0.6004070043563843,0.10860051214694977
1772896116004079600,3.90207958984375,0.46235591173171997,0.3893648087978363,0.5720834732055664
1772896116014047700,3.9120478515625,0.147397980093956,0.1052907332777977,0.6550534963607788
1772896116024016600,3.9220166015625,0.0012389025650918484,-0.13826599717140198,0.3617371618747711
1772896116033984800,3.93198486328125,-0.08923374116420746,-0.31757715344429016,0.11106180399656296
1772896116043952400,3.941952392578125,-0.1764988750219345,-0.382402241230011,0.04210431128740311
1772896116053921500,3.951921630859375,-0.23358212411403656,-0.3721080422401428,0.05480732396245003
1772896116063889400,3.961889404296875,-0.23330995440483093,-0.36483442783355713,0.0385279506444931
1772896116073857500,3.971857421875,-0.20954416692256927,-0.3863535523414612,-0.022247781977057457
1772896116083826400,3.981826416015625,-0.17555823922157288,-0.4117390811443329,-0.08469224721193314
1772896116093794600,3.991794677734375,-0.14366714656352997,-0.4211525619029999,-0.11582513898611069
1772896116103762700,4.0017626953125,-0.10472667962312698,-0.3940615653991699,-0.08541662991046906
1772896116113731600,4.011731689453125,-0.06762911379337311,-0.3296540677547455,-0.010848119854927063
1772896116123699700,4.02169970703125,-0.028779450803995132,-0.28893858194351196,0.058088336139917374
1772896116133667600,4.03166748046875,0.011485680937767029,-0.3068326413631439,0.1013425961136818
1772896116143636500,4.041636474609375,0.05224855616688728,-0.3559993803501129,0.15443271398544312
1772896116153604600,4.0516044921875,0.07636108249425888,-0.35791900753974915,0.22675670683383942
1772896116163572500,4.061572509765625,0.09346603602170944,-0.34107691049575806,0.29637253284454346
1772896116173541400,4.071541259765625,0.11242454499006271,-0.33347436785697937,0.34115147590637207
1772896116183509200,4.08150927734375,0.11945715546607971,-0.33141574263572693,0.35433995723724365
1772896116193477400,4.091477294921875,0.1176624521613121,-0.3079437017440796,0.3456519544124603
1772896116203446300,4.1014462890625,0.12163908034563065,-0.2702370882034302,0.3363039791584015
1772896116213414400,4.111414306640625,0.12494992464780807,-0.23339010775089264,0.34637099504470825
1772896116223382500,4.121382568359375,0.11047723889350891,-0.20635131001472473,0.3873903453350067
1772896116233351400,4.131351318359375,0.07976220548152924,-0.1790296733379364,0.3947126865386963
1772896116243319300,4.1413193359375,0.034027207642793655,-0.15873771905899048,0.3654322922229767
1772896116253287400,4.151287353515625,0.00293373828753829,-0.13292716443538666,0.3030672073364258
1772896116263256300,4.16125634765625,-0.018490860238671303,-0.11084982007741928,0.2151152342557907
1772896116273224400,4.171224365234375,-0.03410763666033745,-0.08951576799154282,0.14334145188331604
1772896116283192300,4.1811923828125,-0.06542108207941055,-0.050879690796136856,0.11361071467399597
1772896116293161500,4.191161376953125,-0.08337318897247314,-0.02497112937271595,0.07635016739368439
1772896116303129300,4.20112939453125,-0.08676418662071228,0.0010865697404369712,0.04405134543776512
1772896116313097500,4.211097412109375,-0.0878363773226738,0.033067673444747925,0.02461213618516922
1772896116323066400,4.22106640625,-0.07342468202114105,0.06640379130840302,0.01564527302980423
1772896116333034200,4.2310341796875,-0.059157595038414,0.101251520216465,-0.002025866648182273
1772896116343002400,4.24100244140625,-0.04760320484638214,0.11649838089942932,-0.029399167746305466
1772896116352971300,4.25097119140625,-0.02544863522052765,0.12271127104759216,-0.03835165128111839
1772896116362939400,4.260939453125,0.0010034791193902493,0.12646259367465973,-0.03690075874328613
1772896116372907500,4.270907470703125,0.011321630328893661,0.12765809893608093,-0.01564553938806057
1772896116382876400,4.28087646484375,0.01353684812784195,0.1360025703907013,-0.0040823593735694885
1772896116392844500,4.290844482421875,0.007754592224955559,0.1430775225162506,-0.004048271104693413
1772896116402812400,4.3008125,0.0035928706638514996,0.13191062211990356,-0.02484782598912716
1772896116412781600,4.310781494140625,-0.009561014361679554,0.10051329433917999,-0.028535503894090652
1772896116422749200,4.320749267578125,-0.0249082800000906,0.08925158530473709,0.010637996718287468
1772896116432717300,4.33071728515625,-0.03888082131743431,0.10039637982845306,0.0795787125825882
1772896116442686200,4.340686279296875,-0.03831969201564789,0.11995143443346024,0.09968344867229462
1772896116452654300,4.350654296875,-0.02195643074810505,0.11464029550552368,0.06684667617082596
1772896116462622500,4.36062255859375,-0.021500498056411743,0.08515750616788864,0.007730091456323862
1772896116472591400,4.37059130859375,-0.024443557485938072,0.061219681054353714,-0.01085824053734541
1772896116482559500,4.3805595703125,-0.029407156631350517,0.04506121948361397,0.003910585772246122
1772896116492527400,4.39052734375,-0.028718197718262672,0.01296267006546259,0.019522834569215775
1772896116502496500,4.40049658203125,-0.00472631212323904,-0.02905508689582348,0.017291106283664703
1772896116512464400,4.41046435546875,0.005147357936948538,-0.057921357452869415,0.027163177728652954
1772896116522432300,4.420432373046875,0.020288759842514992,-0.0684962347149849,0.050939079374074936
1772896116532401400,4.4304013671875,0.03490259125828743,-0.06556276232004166,0.0574829988181591
1772896116542369300,4.440369384765625,0.0459057055413723,-0.05085279420018196,0.061475612223148346
1772896116552337400,4.45033740234375,0.06346845626831055,-0.036555878818035126,0.056534115225076675
1772896116562306300,4.460306396484375,0.08275826275348663,-0.019837353378534317,0.04072772338986397
1772896116572274400,4.4702744140625,0.10122169554233551,0.003466104157269001,0.03255927562713623
1772896116582242600,4.48024267578125,0.11391697824001312,0.02394980750977993,0.03670927882194519
1772896116592211500,4.49021142578125,0.12264788895845413,0.04019642248749733,0.053761497139930725
1772896116602179300,4.500179443359375,0.12295734882354736,0.0498192198574543,0.06873831897974014
1772896116612147500,4.5101474609375,0.12202364206314087,0.061278536915779114,0.07257246971130371
1772896116622116400,4.520116455078125,0.12171924114227295,0.08244214206933975,0.06553613394498825
1772896116632084500,4.53008447265625,0.08704035729169846,0.09817743301391602,0.08800655603408813
1772896116642052400,4.54005224609375,0.04249446466565132,0.10170532017946243,0.12108594179153442
1772896116652021500,4.550021484375,0.0196064580231905,0.10529179871082306,0.11127699166536331
1772896116661989400,4.5599892578125,0.011502192355692387,0.11099789291620255,0.08291219174861908
1772896116671957500,4.56995751953125,-0.0020509003661572933,0.09285137802362442,0.02370879054069519
1772896116681926400,4.579926513671875,-0.022603312507271767,0.06670685857534409,-0.006173740141093731
1772896116691894300,4.589894287109375,-0.046669501811265945,0.053113020956516266,-0.009594304487109184
1772896116701862400,4.5998623046875,-0.06649833172559738,0.04911508038640022,-0.00478543434292078
1772896116711831300,4.609831298828125,-0.08563048392534256,0.038730353116989136,-0.016092151403427124
1772896116721799400,4.61979931640625,-0.10394850373268127,0.02959970384836197,-0.03411269560456276
1772896116731767300,4.629767333984375,-0.11293347924947739,0.016705211251974106,-0.047148071229457855
1772896116741736400,4.639736328125,-0.12089473009109497,0.017663948237895966,-0.04687989130616188
1772896116751704600,4.64970458984375,-0.123395174741745,0.014475878328084946,-0.05047222971916199
1772896116761672400,4.65967236328125,-0.12463274598121643,0.011089934967458248,-0.0577104352414608
1772896116771641600,4.6696416015625,-0.11801345646381378,0.006803844124078751,-0.07031650841236115
1772896116781609200,4.679609130859375,-0.10877495259046555,0.001657285145483911,-0.0629454106092453
1772896116791577300,4.689577392578125,-0.09688793122768402,0.004123106133192778,-0.04514138028025627
1772896116801546200,4.699546142578125,-0.07837523519992828,0.002286856295540929,-0.031798675656318665
1772896116811514400,4.709514404296875,-0.05818820372223854,0.0055215316824615,-0.018126539885997772
1772896116821482500,4.719482421875,-0.04364494979381561,0.0023574302904307842,-0.015571502968668938
1772896116831451400,4.729451416015625,-0.032761674374341965,0.012134959921240807,-0.0034474621061235666
1772896116841419500,4.73941943359375,-0.024237962439656258,0.023807061836123466,0.011350658722221851
1772896116851387100,4.74938720703125,-0.01848047412931919,0.031266842037439346,0.0188400000333786
1772896116861356500,4.7593564453125,-0.024337297305464745,0.03003140166401863,0.018015751615166664
1772896116871324400,4.769324462890625,-0.0442231222987175,0.033663686364889145,0.015851933509111404
1772896116881292300,4.779292236328125,-0.055029164999723434,0.03110945038497448,0.02087758481502533
1772896116891261400,4.789261474609375,-0.05667100101709366,0.03429139405488968,0.021939121186733246
1772896116901229300,4.799229248046875,-0.059414856135845184,0.03026203252375126,0.02101260796189308
1772896116911197400,4.809197509765625,-0.06005534902215004,0.02671043947339058,0.019411515444517136
1772896116921166300,4.819166259765625,-0.06179013103246689,0.02857731655240059,0.01606498658657074
1772896116931134500,4.829134521484375,-0.05888888239860535,0.027544543147087097,0.009453688748180866
1772896116941102300,4.839102294921875,-0.06028304621577263,0.021620873361825943,0.013049222528934479
1772896116951071200,4.8490712890625,-0.06626823544502258,0.012047874741256237,0.019416041672229767
1772896116961039400,4.859039306640625,-0.06646930426359177,0.00777722941711545,0.025706429034471512
1772896116971007200,4.86900732421875,-0.06362957507371902,0.006969758775085211,0.010200705379247665
1772896116980976400,4.878976318359375,-0.05965427681803703,0.008139952085912228,-0.006413424387574196
1772896116990944500,4.888944580078125,-0.04686231538653374,0.01221725158393383,-0.009505088441073895
1772896117000912400,4.898912353515625,-0.03540406376123428,0.017661817371845245,0.0035025894176214933
1772896117010881500,4.908881591796875,-0.027752002701163292,0.018435467034578323,0.010156763717532158
1772896117020849400,4.918849365234375,-0.019629627466201782,0.011067830957472324,0.008162056095898151
1772896117030817300,4.9288173828125,-0.009248625487089157,-0.0006463492172770202,0.01044252049177885
1772896117040786200,4.9387861328125,-0.0014817827614024282,-0.007964449934661388,0.033788058906793594
1772896117050754300,4.94875439453125,0.006372411735355854,-0.0016607472207397223,0.057921089231967926
1772896117060722400,4.958722412109375,0.016649549826979637,-0.005696767941117287,0.06328922510147095
1772896117070691300,4.96869140625,0.007131412625312805,-0.006934871431440115,0.04235438257455826
1772896117080659500,4.978659423828125,-0.003834951901808381,-0.003337739733979106,0.029803702607750893
1772896117090627300,4.98862744140625,-0.015207981690764427,0.011151188053190708,0.026849990710616112
1772896117100596500,4.998596435546875,-0.017728663980960846,0.039390549063682556,0.02239105850458145
1772896117110564400,5.008564453125,-0.021814217790961266,0.04635338485240936,0.005212871357798576
1772896117120532200,5.0185322265625,-0.026153840124607086,0.04695259407162666,-0.013572001829743385
1772896117130500400,5.028500244140625,-0.02773123048245907,0.05458547919988632,-0.01955319568514824
1772896117140469200,5.03846923828125,-0.026982082054018974,0.06302743405103683,-0.01624608226120472
1772896117150437400,5.048437255859375,-0.0282734502106905,0.06811992824077606,-0.005418733693659306
1772896117160406300,5.05840625,-0.03069586120545864,0.07666388154029846,0.0015060176374390721
1772896117170375000,5.068375,-0.028488099575042725,0.08281232416629791,-0.004731371998786926
1772896117180343000,5.078343017578125,-0.025353027507662773,0.08102188259363174,-0.01992443948984146
1772896117190310700,5.088310546875,-0.02448190748691559,0.08201044797897339,-0.023500531911849976
1772896117200279800,5.09827978515625,-0.019104452803730965,0.07876218855381012,-0.02244032733142376
1772896117210247700,5.10824755859375,-0.0014303837670013309,0.07303266227245331,-0.021021928638219833
1772896117220216800,5.118216796875,0.004032292403280735,0.07177858054637909,-0.01842401549220085
1772896117230184700,5.128184814453125,0.009208944626152515,0.06486900895833969,-0.009068063460290432
1772896117240152800,5.13815283203125,0.02040540613234043,0.05757221579551697,-0.0021960425656288862
1772896117250121000,5.148120849609375,0.025895247235894203,0.05302406847476959,0.005388107616454363
1772896117260089900,5.15808984375,0.03206738829612732,0.047797348350286484,0.005354018881917
1772896117270057700,5.1680576171875,0.038779351860284805,0.031988292932510376,0.0014471617760136724
1772896117280027000,5.17802685546875,0.045576006174087524,0.018185928463935852,-0.0017984326696023345
1772896117289994800,5.187994873046875,0.04963546246290207,0.00812051072716713,0.004391286056488752
1772896117299963000,5.197962890625,0.04831000789999962,0.0037438718136399984,0.007191067561507225
1772896117309930800,5.2079306640625,0.04597042128443718,0.003921770956367254,0.01870657689869404
1772896117319900000,5.21789990234375,0.036433108150959015,0.023779897019267082,0.03658837080001831
1772896117329867800,5.22786767578125,0.025727467611432076,0.036618463695049286,0.03943289443850517
1772896117339837000,5.2378369140625,0.02172793261706829,0.039326101541519165,0.02907479554414749
1772896117349804800,5.2478046875,0.0043710460886359215,0.038413435220718384,0.01315148826688528
1772896117359772700,5.257772705078125,-0.01242417935281992,0.03302958980202675,0.012313391081988811
1772896117369740800,5.26774072265625,-0.02339959889650345,0.03164554387331009,0.005797701422125101
1772896117379709700,5.277709716796875,-0.020982779562473297,0.027941087260842323,-0.010705641470849514
1772896117389677800,5.287677734375,-0.019208582118153572,0.01786608248949051,-0.015079882927238941
1772896117399645700,5.297645751953125,-0.023023827001452446,0.004968393128365278,-0.011844408698379993
1772896117409614800,5.30761474609375,-0.02611442469060421,0.0019446401856839657,0.00032570460462011397
1772896117419582700,5.317582763671875,-0.01643410138785839,-0.0016519587952643633,0.012348012998700142
1772896117429550800,5.32755078125,-0.01324043795466423,0.003278617514297366,0.02906707115471363
1772896117439520000,5.33752001953125,-0.01449638418853283,0.005147357936948538,0.026583939790725708
1772896117449487600,5.347487548828125,-0.017364609986543655,0.006739395204931498,0.010922422632575035
1772896117459455700,5.357455810546875,-0.02195802889764309,0.01744849793612957,-0.0051654670387506485
1772896117469424600,5.367424560546875,-0.026372218504548073,0.02467179112136364,-0.014517690055072308
1772896117479392800,5.377392822265625,-0.022521287202835083,0.032467395067214966,-0.022160163149237633
1772896117489361700,5.387361572265625,-0.022579343989491463,0.034455712884664536,-0.02749340981245041
1772896117499329800,5.397329833984375,-0.02497352659702301,0.025958629325032234,-0.03791462630033493
1772896117509298000,5.4072978515625,-0.031693216413259506,0.00956660695374012,-0.03574521467089653
1772896117519265800,5.417265869140625,-0.04139404371380806,0.0037172401789575815,-0.01733211800456047
1772896117529235000,5.42723486328125,-0.04748309776186943,0.016055133193731308,-0.001439971150830388
1772896117539202800,5.437202880859375,-0.05169754847884178,0.01606578566133976,-0.0003808320325333625
1772896117549170700,5.447170654296875,-0.05084400624036789,0.016320383176207542,0.002290318487212062
1772896117559139800,5.457139892578125,-0.04584338888525963,0.007227553054690361,-0.008037952706217766
1772896117569107700,5.467107666015625,-0.04386146366596222,0.0011416971683502197,-0.021502096205949783
1772896117579075800,5.477075927734375,-0.03742913156747818,-0.008723982609808445,-0.023505326360464096
1772896117589044700,5.487044677734375,-0.03406396135687828,-0.02015187405049801,-0.01423219870775938
1772896117599012900,5.497012939453125,-0.030492395162582397,-0.028004469349980354,0.002924949862062931
1772896117608981000,5.50698095703125,-0.026681944727897644,-0.03208629786968231,0.012695022858679295
1772896117618950000,5.516949951171875,-0.023510118946433067,-0.03304263949394226,0.020079169422388077
1772896117628917800,5.526917724609375,-0.019958261400461197,-0.026631344109773636,0.020002203062176704
1772896117638885600,5.5368857421875,-0.018019214272499084,-0.009214803576469421,0.019770774990320206
1772896117648854800,5.546854736328125,-0.015985891222953796,-0.0004266384057700634,0.01107422262430191
1772896117658822700,5.55682275390625,-0.013257748447358608,0.011857192032039165,-0.0017379788914695382
1772896117668791800,5.566791748046875,-0.00899509247392416,0.02683640830218792,-0.00558012118563056
1772896117678760000,5.576760009765625,-0.010698450729250908,0.037697575986385345,0.0018727348651736975
1772896117688727800,5.586727783203125,-0.010723218321800232,0.05578044056892395,0.012682239525020123
1772896117698696000,5.596696044921875,-0.008327971212565899,0.0621403343975544,0.003209641668945551
1772896117708664800,5.606664794921875,-0.010690993629395962,0.06660112738609314,-0.015277490019798279
1772896117718632700,5.6166328125,-0.011325358413159847,0.061045508831739426,-0.03491723909974098
1772896117728600800,5.626600830078125,-0.01949726790189743,0.05331355333328247,-0.03965100646018982
1772896117738569700,5.63656982421875,-0.031447138637304306,0.046900395303964615,-0.031505461782217026
1772896117748537900,5.646537841796875,-0.035897545516490936,0.028774656355381012,-0.02112898789346218
1772896117758505700,5.656505615234375,-0.03887496143579483,0.015186675824224949,-0.018011758103966713
1772896117768475000,5.666474853515625,-0.03701714053750038,-0.0017441042000427842,-0.016156865283846855
1772896117778442800,5.67644287109375,-0.038907986134290695,-0.016636766493320465,-0.019114572554826736
1772896117788411000,5.686410888671875,-0.03428899869322777,-0.01756967231631279,-0.008649680763483047
1772896117798379800,5.6963798828125,-0.031148331239819527,-0.009796970523893833,0.008371912874281406
1772896117808347600,5.70634765625,-0.01823333278298378,-0.0018034926615655422,0.013671870343387127
1772896117818315800,5.716315673828125,-0.013549630530178547,-0.004037085920572281,-0.0000977380113909021
1772896117828284700,5.72628466796875,-0.013129384256899357,0.004249606281518936,-0.012431901879608631
1772896117838252800,5.736252685546875,-0.0038421424105763435,0.025079520419239998,-0.022187860682606697
1772896117848221000,5.746220947265625,-0.006879211403429508,0.04488704726099968,-0.015001053921878338
1772896117858189800,5.75618994140625,-0.021634722128510475,0.06363862752914429,-0.0032892702147364616
1772896117868158000,5.766157958984375,-0.024519458413124084,0.06839210540056229,-0.009691509418189526
1772896117878125800,5.776125732421875,-0.02714027464389801,0.06706691533327103,-0.01727060042321682
1772896117888095000,5.786094970703125,-0.02871073968708515,0.05866411328315735,-0.03203196823596954
1772896117898062600,5.7960625,-0.024873923510313034,0.053528737276792526,-0.0338013730943203
1772896117908030700,5.80603076171875,-0.032893769443035126,0.05846890062093735,-0.023253390565514565
1772896117917999900,5.815999755859375,-0.03341494873166084,0.0626591220498085,-0.018202705308794975
1772896117927967700,5.8259677734375,-0.02955443039536476,0.05698472261428833,-0.028722191229462624
1772896117937936000,5.835935791015625,-0.02479642629623413,0.04610837250947952,-0.034574221819639206
1772896117947904800,5.84590478515625,-0.016343019902706146,0.04366838559508324,-0.024354875087738037
1772896117957873000,5.855872802734375,-0.010409497655928135,0.04416053742170334,-0.00660463934764266
1772896117967841000,5.865841064453125,-0.009673399850726128,0.03912849351763725,0.0030248183757066727
1772896117977810000,5.875809814453125,-0.006487993057817221,0.02190236933529377,0.0005129248020239174
1772896117987777800,5.88577783203125,-0.013171995058655739,0.00621049152687192,-0.004216582980006933
1772896117997745700,5.89574560546875,-0.017185911536216736,0.002231462625786662,-0.0023284016642719507
1772896118007714800,5.90571484375,-0.018583005294203758,0.00436172541230917,0.0009536779834888875
1772896118017682700,5.9156826171875,-0.02298414520919323,0.006906642112880945,-0.00015339808305725455
1772896118027650800,5.92565087890625,-0.02738421969115734,-0.00018322547839488834,-0.0019382486352697015
1772896118037619700,5.93561962890625,-0.03796735405921936,-0.0015518239233642817,-0.003796336008235812
1772896118047587800,5.945587890625,-0.04723355919122696,0.0004700479330495,-0.0010277138790115714
1772896118057556000,5.955555908203125,-0.051292482763528824,0.007865113206207752,0.017347564920783043
1772896118067524900,5.96552490234375,-0.055521316826343536,0.017468739300966263,0.03449086472392082
1772896118077492700,5.97549267578125,-0.054794538766145706,0.018858909606933594,0.027094734832644463
1772896118087460900,5.9854609375,-0.0608910471200943,0.019284747540950775,0.007390804588794708
1772896118097429800,5.9954296875,-0.06718063354492188,0.024653946980834007,-0.007309844717383385
1772896118107398000,6.00539794921875,-0.07069094479084015,0.028991438448429108,-0.01919260248541832
1772896118117362700,6.01536279296875,-0.0674876943230629,0.0339190848171711,-0.02695012465119362
1772896118127331800,6.025331787109375,-0.058700863271951675,0.02906147949397564,-0.02911554090678692
1772896118137299700,6.0352998046875,-0.049313485622406006,0.013302222825586796,-0.030070550739765167
1772896118147267800,6.045267822265625,-0.03311214596033096,-0.0004825647920370102,-0.024564199149608612
1772896118157236700,6.05523681640625,-0.012603409588336945,-0.009592972695827484,-0.007522630970925093
1772896118167204900,6.065204833984375,-0.005648031830787659,-0.01864452473819256,0.014476144686341286
1772896118177172700,6.0751728515625,-0.0024264061357825994,-0.019658124074339867,0.035654399544000626
1772896118187141600,6.0851416015625,-0.0028812738601118326,-0.020611535757780075,0.04018683359026909
1772896118197109800,6.09510986328125,-0.008884837850928307,-0.011510981246829033,0.022949257865548134
1772896118207077600,6.10507763671875,-0.025892050936818123,0.003516171593219042,0.012627111747860909
1772896118217046800,6.115046875,-0.03424585610628128,0.028491029515862465,0.006697051227092743
1772896118227014700,6.1250146484375,-0.037886928766965866,0.04514084756374359,-0.01191231980919838
1772896118236982800,6.134982666015625,-0.032226912677288055,0.054434746503829956,-0.019180618226528168
1772896118246952000,6.144951904296875,-0.027063041925430298,0.05658205226063728,-0.017971277236938477
1772896118256919800,6.154919921875,-0.023087209090590477,0.056666743010282516,-0.012436163611710072
1772896118266887700,6.1648876953125,-0.02069489285349846,0.05844573304057121,-0.0052016861736774445
1772896118276856600,6.174856689453125,-0.012594887986779213,0.07109201699495316,0.0015251922886818647
1772896118286824700,6.18482470703125,-0.004803277086466551,0.0709141194820404,0.0013680658303201199
1772896118296792800,6.194792724609375,-0.002916161436587572,0.05690882354974747,-0.009080314077436924
1772896118306761700,6.20476171875,-0.009970875456929207,0.03686853498220444,-0.009220662526786327
1772896118316729900,6.214729736328125,-0.013155216351151466,0.025528529658913612,0.0023033679462969303
1772896118326697700,6.22469775390625,-0.0008870989549905062,0.01859152689576149,0.014522749930620193
1772896118336667000,6.2346669921875,0.007200921420007944,0.01708151586353779,0.022105302661657333
1772896118346634800,6.244634765625,0.011406052857637405,0.013953366316854954,0.021832328289747238
1772896118356602600,6.2546025390625,0.00917352456599474,0.016658872365951538,0.01464791875332594
1772896118366571800,6.26457177734375,0.0024557008873671293,0.02009488269686699,0.005887183826416731
1772896118376539600,6.27453955078125,-0.0016916398890316486,0.03308817744255066,0.0007044061203487217
1772896118386507800,6.2845078125,0.002823749789968133,0.04023370519280434,-0.0065013086423277855
1772896118396476700,6.2944765625,0.0032354744616895914,0.04350673034787178,-0.009607619605958462
1772896118406444800,6.30444482421875,0.0010378338629379869,0.04093172028660774,-0.018759839236736298
1772896118416413000,6.314412841796875,-0.002368082758039236,0.0431370846927166,-0.02568751946091652
1772896118426381800,6.3243818359375,-0.002734533743932843,0.04556402191519737,-0.02178385853767395
1772896118436350000,6.334349853515625,0.005380650516599417,0.05186985433101654,-0.016879115253686905
1772896118446317600,6.344317626953125,0.007239536847919226,0.046188000589609146,-0.012346947565674782
1772896118456286700,6.35428662109375,0.006470682565122843,0.04224812239408493,-0.019943080842494965
1772896118466254600,6.364254638671875,0.0011094729416072369,0.03756069019436836,-0.020974257960915565
1772896118476222700,6.37422265625,-0.004078897647559643,0.028564266860485077,-0.015596004202961922
1772896118486191900,6.38419189453125,-0.012522716075181961,0.031680699437856674,0.0007520766812376678
1772896118496159700,6.39415966796875,-0.02105814777314663,0.03645388036966324,0.009213471785187721
1772896118506128000,6.4041279296875,-0.029822077602148056,0.03647971525788307,0.004715392831712961
1772896118516096800,6.4140966796875,-0.03792740777134895,0.03982571139931679,-0.011611648835241795
1772896118526065000,6.42406494140625,-0.04278101772069931,0.048540905117988586,-0.021087175235152245
1772896118536034800,6.434034912109375,-0.05191725865006447,0.05392128974199295,-0.02375965751707554
1772896118546003700,6.444003662109375,-0.05999596044421196,0.05308612063527107,-0.02141501009464264
1772896118555971800,6.453971923828125,-0.06424795836210251,0.04388170316815376,-0.023898940533399582
1772896118565939700,6.463939697265625,-0.07225795090198517,0.03821662813425064,-0.02358708530664444
1772896118575908600,6.47390869140625,-0.07642393559217453,0.02401825040578842,-0.021142037585377693
1772896118585876700,6.483876708984375,-0.08017978817224503,0.0038900794461369514,-0.014092116616666317
1772896118595844900,6.493844970703125,-0.08219074457883835,-0.0049494849517941475,0.007223025429993868
1772896118605813800,6.503813720703125,-0.07938190549612045,-0.012118981219828129,0.02159557305276394
1772896118615782000,6.513781982421875,-0.07819680124521255,-0.012976518832147121,0.029804501682519913
1772896118625749800,6.523749755859375,-0.07952838391065598,-0.013051619753241539,0.021585719659924507
1772896118635719000,6.533718994140625,-0.07494747638702393,-0.007441671099513769,0.012433500029146671
1772896118645686800,6.543686767578125,-0.07517437636852264,0.0008668589289300144,0.005607551895081997
1772896118655654700,6.553654541015625,-0.07072823494672775,0.00015819176041986793,0.007474694401025772
1772896118665623600,6.56362353515625,-0.07112397998571396,-0.0028634308837354183,0.010268083773553371
1772896118675591700,6.573591796875,-0.07373307645320892,-0.008491222746670246,0.014062022790312767
1772896118685559800,6.583559814453125,-0.06786320358514786,-0.019267970696091652,0.014306767843663692
1772896118695528700,6.59352880859375,-0.0655241459608078,-0.02570376545190811,0.02016519010066986
1772896118705496800,6.603496826171875,-0.06490256637334824,-0.01768285594880581,0.022096779197454453
1772896118715464700,6.613464599609375,-0.06462825834751129,-0.013099556788802147,0.02611602284014225
1772896118725433900,6.623433837890625,-0.07239536941051483,-0.0011518171522766352,0.026924025267362595
1772896118735402000,6.633402099609375,-0.06794442981481552,0.008194812573492527,0.00990163255482912
1772896118745369600,6.64336962890625,-0.057618021965026855,0.019213108345866203,-0.006160956807434559
1772896118755338800,6.6533388671875,-0.05278544872999191,0.02100887894630432,-0.013057745061814785
1772896118765306600,6.663306640625,-0.04285132512450218,0.02708568051457405,-0.018211228772997856
1772896118775274800,6.673274658203125,-0.03170253708958626,0.02250637486577034,-0.012089951895177364
1772896118785243600,6.68324365234375,-0.01757633127272129,0.022052038460969925,0.00236302288249135
1772896118795211800,6.693211669921875,0.004803809802979231,0.017675133422017097,0.012840431183576584
1772896118805180000,6.703179931640625,0.021346567198634148,0.010423346422612667,0.023502662777900696
1772896118815148800,6.713148681640625,0.03236273303627968,0.002834668615832925,0.02231862209737301
1772896118825117000,6.723116943359375,0.03861343860626221,0.008806540630757809,0.02641056850552559
1772896118835084800,6.733084716796875,0.039259787648916245,0.012654276564717293,0.03569834306836128
1772896118845053700,6.7430537109375,0.03111104853451252,0.010041981004178524,0.030377080664038658
1772896118855021800,6.753021728515625,0.023319171741604805,-0.003480751533061266,0.015972575172781944
1772896118864989700,6.76298974609375,0.0132713308557868,-0.009792443364858627,0.011815913021564484
1772896118874958800,6.772958740234375,0.00660437298938632,-0.014693724922835827,0.014712633565068245
1772896118884926700,6.7829267578125,0.002383262850344181,-0.020055467262864113,0.018096178770065308
1772896118894894800,6.792894775390625,-0.0023608922492712736,-0.02400946244597435,0.012855344451963902
1772896118904863700,6.80286376953125,-0.0046639940701425076,-0.026206569746136665,0.00878150761127472
1772896118914831600,6.81283154296875,0.0032357405871152878,-0.02225976623594761,0.007533550262451172
1772896118924799700,6.8227998046875,0.008328770287334919,-0.015111308544874191,0.008080829866230488
1772896118934768600,6.8327685546875,0.014515292830765247,-0.007448328658938408,0.010230799205601215
1772896118944736800,6.84273681640625,0.02340998500585556,-0.005041630007326603,0.0062879896722733974
1772896118954704600,6.85270458984375,0.03386688604950905,-0.0059785302728414536,0.00868936162441969
1772896118964673800,6.862673828125,0.04128538817167282,-0.0075782909989356995,0.00797163974493742
1772896118974642000,6.872641845703125,0.040341563522815704,-0.00700757559388876,0.01387027557939291
1772896118984609800,6.88260986328125,0.03430471196770668,-0.0032780850306153297,0.022228606045246124
1772896118994579000,6.892578857421875,0.03225354477763176,0.0011427623685449362,0.018817629665136337
1772896119004546600,6.902546630859375,0.03202264755964279,0.0027031085919588804,0.019347865134477615
1772896119014514700,6.9125146484375,0.030229007825255394,0.013468137942254543,0.02039928175508976
1772896119024483600,6.922483642578125,0.03009425289928913,0.019282618537545204,0.020003268495202065
1772896119034451700,6.93245166015625,0.029147231951355934,0.013875868171453476,0.016691096127033234
1772896119044419800,6.942419921875,0.023601466789841652,0.013486513867974281,0.01152562815696001
1772896119054388700,6.952388671875,0.015393337234854698,0.008077633567154408,0.00469488650560379
1772896119064356900,6.96235693359375,0.009307747706770897,0.0026770094409585,-0.008360461331903934
1772896119074324700,6.97232470703125,0.009076585993170738,0.002886600326746702,-0.004984372295439243
1772896119084294000,6.9822939453125,0.007909588515758514,0.003145193215459585,-0.00177899154368788
1772896119094261800,6.99226171875,0.0037031255196779966,-0.0010431602131575346,0.002784867538139224
1772896119104229600,7.002229736328125,-0.0028357338160276413,-0.0020663465838879347,0.0029872676823288202
1772896119114198800,7.01219873046875,-0.009022790007293224,-0.006601177155971527,-0.012371715158224106
1772896119124166700,7.022166748046875,-0.011203385889530182,-0.007821704261004925,-0.019697271287441254
1772896119134134800,7.032134765625,-0.008334895595908165,-0.006154298782348633,-0.021453093737363815
1772896119144103700,7.042103759765625,-0.0036903421860188246,0.0017121462151408195,-0.014069746248424053
1772896119154071800,7.05207177734375,0.00358834327198565,0.002064748667180538,-0.006298375781625509
1772896119164040000,7.0620400390625,0.004289819858968258,0.005864014383405447,-0.015505190007388592
1772896119174008300,7.07200830078125,0.014710769057273865,0.014568556100130081,-0.025349298492074013
1772896119183976400,7.0819765625,0.023900538682937622,0.02683374471962452,-0.03235287964344025
1772896119193945300,7.0919453125,0.03819479048252106,0.032951824367046356,-0.029413282871246338
1772896119203913500,7.10191357421875,0.04710333049297333,0.030594926327466965,-0.024562334641814232
1772896119213881600,7.111881591796875,0.06084737181663513,0.019422167912125587,-0.013644439168274403
1772896119223850500,7.1218505859375,0.07114741206169128,0.004972654394805431,0.0033870083279907703
1772896119233818600,7.131818603515625,0.07325397431850433,-0.005958023946732283,0.014462295919656754
1772896119243786200,7.1417861328125,0.06779182702302933,-0.012612464837729931,0.03440617769956589
1772896119253755400,7.15175537109375,0.061168815940618515,-0.003775297198444605,0.0473046638071537
1772896119263723300,7.16172314453125,0.056232113391160965,-0.008107461035251617,0.0372307263314724
1772896119273691400,7.17169140625,0.054722100496292114,0.00022370553051587194,0.02093777246773243
1772896119283660300,7.181660400390625,0.04369102045893669,0.017099890857934952,0.009664079174399376
1772896119293628400,7.19162841796875,0.028251079842448235,0.03756095841526985,0.0046701193787157536
1772896119303596500,7.201596435546875,0.019026421010494232,0.05042695626616478,-0.01188195962458849
1772896119313565400,7.2115654296875,0.016273777931928635,0.04873558133840561,-0.024400148540735245
1772896119323533600,7.221533447265625,0.011718708090484142,0.04770520329475403,-0.030670560896396637
1772896119333501400,7.23150146484375,0.008469118736684322,0.04539011791348457,-0.018673019483685493
1772896119343470300,7.24147021484375,0.0026700852904468775,0.0401383638381958,-0.011589810252189636
1772896119353438500,7.2514384765625,-0.0014444985426962376,0.02684572897851467,-0.008951949886977673
1772896119363406300,7.26140625,0.003516437951475382,0.018821891397237778,-0.007870705798268318
1772896119373375500,7.27137548828125,-0.0035033884923905134,0.017459949478507042,0.00017363809456583112
1772896119383343400,7.28134326171875,-0.007105313707143068,0.016626646742224693,0.0006322344415821135
1772896119393311500,7.2913115234375,-0.009898703545331955,0.013292635791003704,-0.001939580193720758
1772896119403280400,7.3012802734375,-0.010300840251147747,0.011356784030795097,-0.0008452873444184661
1772896119413248500,7.31124853515625,-0.015498798340559006,0.01398745458573103,0.00959563534706831
1772896119423216400,7.32121630859375,-0.024689899757504463,0.016466058790683746,0.013037238270044327
1772896119433185300,7.331185302734375,-0.03098374791443348,0.018147578462958336,0.013277189806103706
1772896119443153400,7.3411533203125,-0.031067904084920883,0.026208434253931046,-0.0020511667244136333
1772896119453121500,7.35112158203125,-0.03422215208411217,0.03412681072950363,-0.011537612415850163
1772896119463090400,7.36109033203125,-0.033243440091609955,0.03918148949742317,-0.015501195564866066
1772896119473058600,7.37105859375,-0.03759291395545006,0.05561239644885063,-0.008519185706973076
1772896119483026400,7.3810263671875,-0.042040660977363586,0.06516808271408081,-0.002086320426315069
1772896119492995600,7.39099560546875,-0.03640541061758995,0.058466773480176926,-0.009034241549670696
1772896119502963200,7.400963134765625,-0.035347070544958115,0.05411090701818466,-0.013259080238640308
1772896119512931300,7.410931396484375,-0.03287539258599281,0.049144111573696136,-0.01558481901884079
1772896119522900200,7.420900146484375,-0.030663637444376945,0.04951801896095276,-0.0043473439291119576
1772896119532868400,7.430868408203125,-0.035947613418102264,0.04676936939358711,0.009255816228687763
1772896119542836500,7.44083642578125,-0.037689320743083954,0.03780170902609825,0.0038629150949418545
1772896119552805400,7.450805419921875,-0.03129320964217186,0.023877102881669998,-0.01327106449753046
1772896119562773500,7.4607734375,-0.02960343286395073,0.016141418367624283,-0.02160116657614708
1772896119572741600,7.47074169921875,-0.02322356402873993,0.01888340897858143,-0.009455819614231586
1772896119582710500,7.48071044921875,-0.02207840420305729,0.018004832789301872,-0.0003091930120717734
1772896119592678400,7.490678466796875,-0.017103353515267372,0.018270617350935936,0.007397196255624294
1772896119602646300,7.500646240234375,-0.017538780346512794,0.003968376200646162,0.0010226538870483637
1772896119612615400,7.510615478515625,-0.015984825789928436,0.0008463526028208435,-0.005085838492959738
1772896119622583300,7.520583251953125,-0.02238253690302372,0.006116481963545084,-0.004625378176569939
1772896119632551400,7.530551513671875,-0.02256203442811966,0.018245050683617592,0.011395399458706379
1772896119642520300,7.540520263671875,-0.02641483023762703,0.0284646637737751,0.008808138780295849
1772896119652488400,7.550488525390625,-0.027758393436670303,0.03490498661994934,-0.0015531554818153381
1772896119662456600,7.56045654296875,-0.027216972783207893,0.031630098819732666,-0.02359747141599655
1772896119672425500,7.570425537109375,-0.029159748926758766,0.020785439759492874,-0.03650607913732529
1772896119682393300,7.580393310546875,-0.034698858857154846,0.01332539226859808,-0.017470870167016983
1772896119692361500,7.590361572265625,-0.03666293993592262,0.021085843443870544,0.007834221236407757
1772896119702330400,7.600330322265625,-0.03127802908420563,0.02702362835407257,0.01266759168356657
1772896119712298500,7.610298583984375,-0.030120085924863815,0.030524618923664093,-0.0026461167726665735
1772896119722266400,7.620266357421875,-0.02262808009982109,0.034391529858112335,-0.025121597573161125
1772896119732235500,7.630235595703125,-0.01973775215446949,0.03802141919732094,-0.046487338840961456
1772896119742203400,7.640203369140625,-0.01889459602534771,0.04301884025335312,-0.04150962457060814
1772896119752171500,7.650171630859375,-0.01715874671936035,0.04378156736493111,-0.025830797851085663
1772896119762140400,7.660140380859375,-0.014394918456673622,0.026223614811897278,-0.019291140139102936
1772896119772108300,7.6701083984375,-0.012551478110253811,-0.0034408040810376406,-0.012177304364740849
1772896119782076400,7.680076416015625,-0.005818474106490612,-0.027726436033844948,0.001315335277467966
1772896119792045300,7.69004541015625,0.0020157466642558575,-0.041304562240839005,0.015482553280889988
1772896119802013400,7.700013427734375,0.007794007193297148,-0.03622378408908844,0.023384951055049896
1772896119811981300,7.709981201171875,0.007364172954112291,-0.019474897533655167,0.03178296238183975
1772896119821950500,7.719950439453125,-0.00115421402733773,-0.0065164887346327305,0.019303657114505768
1772896119831918600,7.729918701171875,-0.006178267300128937,0.005908222869038582,-0.001136104459874332
1772896119841886500,7.739886474609375,-0.013380520045757294,0.01059059239923954,-0.024992967024445534
1772896119851855600,7.749855712890625,-0.010732805356383324,0.010573015548288822,-0.03334224224090576
1772896119861823200,7.7598232421875,-0.006982009392231703,0.014736602082848549,-0.025248099118471146
1772896119871791400,7.769791259765625,-0.004363323096185923,0.012405537068843842,-0.014086790382862091
1772896119881760300,7.77976025390625,-0.0032346753869205713,0.0105903260409832,-0.01019697729498148
1772896119891728400,7.789728271484375,-0.00612393906340003,0.010351440869271755,-0.01552329957485199
1772896119901696500,7.799696533203125,-0.00321869645267725,0.014336328953504562,-0.019449330866336823
1772896119911665400,7.80966552734375,-0.0018887137994170189,0.019963055849075317,-0.00993225909769535
1772896119921633500,7.819633544921875,0.004836034029722214,0.023416642099618912,0.0015275891637429595
1772896119931601400,7.829601318359375,0.00857351440936327,0.018860505893826485,0.001746501075103879
1772896119941570600,7.839570556640625,0.016329703852534294,0.008645419962704182,0.003441869281232357
1772896119951538400,7.849538330078125,0.018576081842184067,-0.007906924933195114,0.0027566379867494106
1772896119961506300,7.85950634765625,0.017949705943465233,-0.015301458537578583,0.017234381288290024
1772896119971475500,7.869475341796875,0.019043466076254845,-0.021876802667975426,0.02474103309214115
1772896119981443300,7.879443359375,0.013623933307826519,-0.025241440162062645,0.03061809577047825
1772896119991411500,7.889411376953125,0.003910585772246122,-0.026081401854753494,0.023862455040216446
1772896120001380400,7.89938037109375,-0.004254133440554142,-0.02014947682619095,0.018184063956141472
1772896120011348500,7.909348388671875,-0.01395895890891552,-0.009571933187544346,0.011621502228081226
1772896120021316600,7.919316650390625,-0.021136710420250893,-0.001427720650099218,0.0003438140847720206
1772896120031285500,7.929285400390625,-0.02377030998468399,0.001865277998149395,-0.013076387345790863
1772896120041253400,7.93925341796875,-0.0158881526440382,0.006223807577043772,-0.011808189563453197
1772896120051221200,7.94922119140625,-0.00672341650351882,0.005947637837380171,-0.009603891521692276
1772896120061190400,7.9591904296875,0.0003880225704051554,0.004767857491970062,-0.0019944412633776665
1772896120071158500,7.969158447265625,0.006825415417551994,0.0022034994326531887,0.011020692996680737
1772896120081126400,7.97912646484375,0.011260377243161201,0.00010146643762709573,0.012664662674069405
1772896120091095600,7.989095458984375,0.010962103493511677,-0.00040293627534992993,0.01031761895865202
1772896120101063400,7.9990634765625,0.012683837674558163,-0.005559348501265049,0.008611864410340786
1772896120111031600,8.009031494140626,0.012861203402280807,-0.002240517409518361,0.008539159782230854
1772896120121000400,8.01900048828125,0.00740225613117218,-0.008644354529678822,0.0037649108562618494
1772896120130968300,8.02896826171875,0.006103166379034519,-0.009633718989789486,0.008608934469521046
1772896120140936400,8.0389365234375,0.0015307849971577525,-0.010946391150355339,0.017167001962661743
1772896120150905300,8.0489052734375,-0.007444866932928562,-0.017490576952695847,0.014094780199229717
1772896120160873500,8.05887353515625,-0.013642309233546257,-0.01780882477760315,0.004577441141009331
1772896120170841300,8.06884130859375,-0.023785224184393883,-0.010913633741438389,0.004988100845366716
1772896120180810200,8.078810302734375,-0.033007752150297165,-0.0028189560398459435,0.003126284806057811
1772896120190778400,8.0887783203125,-0.04163293167948723,0.004770786967128515,-0.008126103319227695
1772896120200746000,8.09874609375,-0.039742887020111084,-0.002067412016913295,-0.02394741028547287
1772896120210715100,8.108715087890625,-0.04108858108520508,0.00355904852040112,-0.0284111350774765
1772896120220683000,8.11868310546875,-0.04231070354580879,0.000050866376113845035,-0.01852761209011078
1772896120230651100,8.128651123046875,-0.03237072378396988,-0.0007379619055427611,-0.00173744629137218
1772896120240620000,8.1386201171875,-0.027846544981002808,0.0049036783166229725,0.013293967582285404
1772896120250588200,8.148588134765625,-0.019292205572128296,0.005805957596749067,0.007980428636074066
1772896120260556300,8.158556396484375,-0.00971760880202055,0.003748931922018528,-0.006499977316707373
1772896120270525200,8.168525146484376,-0.009395365603268147,0.009547698311507702,-0.003989415243268013
1772896120280493300,8.178493408203124,-0.0025718146935105324,0.0029739518649876118,-0.003294330323114991
1772896120290461200,8.188461181640625,0.0020754013676196337,-0.003469299990683794,0.010069944895803928
1772896120300430000,8.19843017578125,0.005874400492757559,-0.01338957529515028,0.024641430005431175
1772896120310398200,8.208398193359375,0.010415622964501381,-0.025959694758057594,0.029230589047074318
1772896120320366000,8.218365966796876,0.007954062893986702,-0.032933447510004044,0.02889183536171913
1772896120330335200,8.228335205078125,0.00974397361278534,-0.027718979865312576,0.03158935159444809
1772896120340303000,8.23830322265625,0.0027297399938106537,-0.02087518759071827,0.02750006690621376
1772896120350271200,8.248271240234375,0.000526506919413805,-0.015335280448198318,0.005526592023670673
1772896120360240000,8.258240234375,-0.0017222663154825568,0.0011030812747776508,-0.006748982705175877
1772896120370208300,8.268208251953125,-0.008654740639030933,0.02208053506910801,-0.010602576658129692
1772896120380176100,8.278176025390625,-0.009093630127608776,0.025681128725409508,-0.014898788183927536
1772896120390145000,8.28814501953125,-0.009880860336124897,0.031791217625141144,-0.013314739800989628
1772896120400113200,8.298113037109376,-0.009866745211184025,0.03634389117360115,-0.01073893066495657
1772896120410081000,8.3080810546875,-0.005695968866348267,0.027027621865272522,-0.011257181875407696
1772896120420050200,8.31805029296875,-0.005489307455718517,0.022284531965851784,-0.008255266584455967
1772896120430018300,8.328018310546875,0.0032522522378712893,0.022938871756196022,-0.005397162400186062
1772896120439986200,8.337986083984376,0.0044133905321359634,0.022427277639508247,0.00430127140134573
1772896120449955300,8.347955322265625,0.004765460267663002,0.018865566700696945,0.009811884723603725
1772896120459923200,8.357923095703125,0.0035230957437306643,0.014849785715341568,0.011178884655237198
1772896120469891000,8.36789111328125,-0.0006226470577530563,0.00987313687801361,0.007478955201804638
1772896120479860000,8.37785986328125,-0.002070873975753784,0.0009592706337571144,0.0015369103057309985
1772896120489828000,8.387828125,0.0008772452711127698,-0.0038253646343946457,0.005801962688565254
1772896120499796200,8.397796142578125,0.003965979442000389,-0.00014141385327093303,0.018485533073544502
1772896120509765000,8.40776513671875,0.010000170208513737,0.000523577444255352,0.02238093875348568
1772896120519733200,8.417733154296876,0.01381328422576189,-0.003078347770497203,0.019293271005153656
1772896120529701000,8.427701171875,0.021673602983355522,-0.005056810099631548,0.012479306198656559
1772896120539670300,8.437670166015625,0.020784107968211174,-0.003975566942244768,0.019399797543883324
1772896120549638100,8.44763818359375,0.024490961804986,0.018264757469296455,0.02841140143573284
1772896120559606000,8.45760595703125,0.03243357315659523,0.02629099227488041,0.021857628598809242
1772896120569575200,8.4675751953125,0.030711306259036064,0.02804042212665081,0.000969923275988549
1772896120579543000,8.47754296875,0.027398601174354553,0.020871194079518318,-0.010803645476698875
1772896120589511200,8.48751123046875,0.02292715385556221,0.017365673556923866,-0.012414325028657913
1772896120599480000,8.49747998046875,0.023018499836325645,0.020006464794278145,-0.0037971350830048323
1772896120609448200,8.5074482421875,0.026797259226441383,0.026190591976046562,-0.0010274475207552314
1772896120619416300,8.517416259765625,0.03476836532354355,0.017707357183098793,-0.0041191112250089645
1772896120629385200,8.52738525390625,0.03422321751713753,0.009542904794216156,0.0049398974515497684
1772896120639353300,8.537353271484376,0.031624238938093185,0.009446765296161175,0.014602378010749817
1772896120649321000,8.547321044921874,0.039442747831344604,0.009177519008517265,0.017611218616366386
1772896120659290000,8.5572900390625,0.04238341003656387,0.00869309064000845,0.01456003449857235
1772896120669258200,8.56725830078125,0.047145407646894455,0.010722152888774872,0.012911537662148476
1772896120679226000,8.57722607421875,0.04633660614490509,0.012648151256144047,0.01085610967129469
1772896120689195300,8.5871953125,0.041791122406721115,0.012819391675293446,0.009936519898474216
1772896120699163100,8.5971630859375,0.038533810526132584,0.009941314347088337,0.00896659679710865
1772896120709131300,8.60713134765625,0.03230281174182892,0.014421815983951092,0.017171263694763184
1772896120719100200,8.61710009765625,0.01667485013604164,0.02237508073449135,0.021041901782155037
1772896120729068300,8.627068359375,0.0075663067400455475,0.03706720843911171,0.023738086223602295
1772896120739036200,8.6370361328125,0.0033923345617949963,0.034031204879283905,0.013628460466861725
1772896120749005000,8.647005126953125,-0.005738845560699701,0.025839053094387054,0.003468234557658434
1772896120758973200,8.65697314453125,-0.010933874174952507,0.016438893973827362,0.0011677960865199566
1772896120768941000,8.666941162109374,-0.015172561630606651,0.005769738461822271,0.004534298088401556
1772896120778910200,8.67691015625,-0.009194829501211643,0.001014131703414023,0.008725580759346485
1772896120788878000,8.686878173828125,-0.020491693168878555,0.006217149551957846,-0.0033784860279411077
1772896120798846200,8.69684619140625,-0.024325579404830933,0.010839598253369331,-0.012197277508676052
1772896120808815400,8.7068154296875,-0.02582067809998989,0.01233443059027195,-0.030522489920258522
1772896120818783200,8.716783203125,-0.028295554220676422,0.019393937662243843,-0.02779248170554638
1772896120828751000,8.726751220703125,-0.026620958000421524,0.013942181132733822,-0.021252557635307312
1772896120838720000,8.736719970703126,-0.02425473928451538,-0.004339620936661959,-0.016776051372289658
1772896120848688000,8.746688232421874,-0.02105628326535225,-0.008466987870633602,-0.00951174646615982
1772896120858657000,8.756656982421875,-0.016511332243680954,-0.019603528082370758,0.00452764006331563
1772896120868625200,8.766625244140625,-0.009383914060890675,-0.01708071678876877,0.012819391675293446
1772896120878593300,8.77659326171875,-0.0023576964158564806,-0.010794324800372124,0.009691775776445866
1772896120888562200,8.786562255859375,0.0009395632077939808,-0.008325307630002499,0.006331665441393852
1772896120898530300,8.7965302734375,0.0020631509833037853,0.0015275891637429595,0.005148955620825291
1772896120908498200,8.806498291015625,0.005846171174198389,0.010517888702452183,0.0020562265999615192
1772896120918467300,8.81646728515625,0.01158768031746149,0.018410699442029,0.0033816818613559008
1772896120928435200,8.826435302734374,0.01576751098036766,0.016812801361083984,-0.0013992248568683863
1772896120938403000,8.836403076171875,0.015723302960395813,0.028204206377267838,-0.0028301412239670753
1772896120948372200,8.846372314453125,0.013501694425940514,0.0284137986600399,-0.01107528805732727
1772896120958340000,8.856340087890626,0.011502192355692387,0.025913355872035027,-0.012206865474581718
1772896120968308200,8.86630810546875,0.004986236337572336,0.030666299164295197,-0.0019286612514406443
1772896120978277000,8.876277099609375,0.003145193215459585,0.029649505391716957,0.00826938170939684
1772896120988245200,8.886245361328125,-0.002264752285555005,0.024269387125968933,0.013615410774946213
1772896120998213000,8.896213134765626,-0.007864580489695072,0.024761805310845375,0.02112286165356636
1772896121008182300,8.906182373046875,-0.016891632229089737,0.018151307478547096,0.015474297106266022
1772896121018150100,8.916150146484375,-0.027633758261799812,0.010897122323513031,0.014590926468372345
1772896121028118000,8.926117919921875,-0.034148383885622025,0.01115997601300478,0.006845921743661165
1772896121038087200,8.936087158203126,-0.03574414923787117,0.004730839282274246,0.0005211806274019182
1772896121048055300,8.94605517578125,-0.037332456558942795,0.004011519718915224,-0.0028724854346364737
1772896121058023200,8.956023193359375,-0.039861131459474564,-0.0025688852183520794,-0.0008096009842120111
1772896121067992300,8.965992431640625,-0.03309936448931694,-0.010862501338124275,-0.006410228554159403
1772896121077960200,8.975960205078126,-0.023868847638368607,-0.009942112490534782,-0.0036418726667761803
1772896121087928000,8.985927978515624,-0.019159579649567604,-0.007653126027435064,0.006841660942882299
1772896121097897000,8.99589697265625,-0.015328089706599712,-0.0013915016315877438,0.014603177085518837
1772896121107865000,9.005864990234375,-0.014591991901397705,0.008415322750806808,0.019695406779646873
1772896121117833200,9.015833251953126,-0.006871754303574562,0.011088337749242783,0.012736568227410316
1772896121127802000,9.025802001953124,-0.0036016590893268585,0.009165801107883453,0.005206213798373938
1772896121137770200,9.035770263671875,-0.0011113371001556516,0.011089402250945568,0.008567389100790024
1772896121147738000,9.045738037109375,0.003343865042552352,0.01811269111931324,0.010921889916062355
1772896121157707300,9.055707275390626,0.0065252771601080894,0.013395167887210846,0.003350256709381938
1772896121167675100,9.065675048828124,0.008773251436650753,0.017300959676504135,-0.004274906124919653
1772896121177643500,9.0756435546875,0.014299044385552406,0.012176771648228168,-0.005077316425740719
1772896121187612400,9.0856123046875,0.016830911859869957,0.011362110264599323,-0.00036698358599096537
1772896121197580500,9.09558056640625,0.020973458886146545,0.00726403808221221,0.003168362658470869
1772896121207548700,9.105548583984374,0.018389659002423286,0.005354018881917,0.01184920221567154
1772896121217517600,9.115517578125,0.013686517253518105,-0.0002716424351092428,0.01823839172720909
1772896121227485400,9.1254853515625,0.007961786352097988,-0.0005328985280357301,0.021384650841355324
1772896121237453600,9.13545361328125,0.0070395334623754025,0.00013129384024068713,0.022474415600299835
1772896121247422500,9.14542236328125,0.004102333448827267,-0.0034139060880988836,0.014160294085741043
1772896121257390600,9.155390625,-0.0015510249650105834,-0.005348959006369114,0.0019465044606477022
1772896121267358500,9.1653583984375,-0.018674084916710854,-0.005958823021501303,-0.0012399677652865648
1772896121277327600,9.17532763671875,-0.028917135670781136,-0.0019491675775498152,0.005988384131342173
1772896121287295500,9.18529541015625,-0.03429778665304184,-0.0029470541048794985,0.00657481187954545
1772896121297263600,9.195263671875,-0.0353207066655159,0.0002412823960185051,0.0073170349933207035
1772896121307232500,9.205232421875,-0.04370753467082977,-0.0015747271245345473,0.008912268094718456
1772896121317200400,9.215200439453126,-0.052502620965242386,0.008917328901588917,0.006613960489630699
1772896121327168500,9.22516845703125,-0.05474287271499634,0.020372116938233376,0.004511128645390272
1772896121337137400,9.235137451171875,-0.05468987673521042,0.02684839256107807,-0.009227320551872253
1772896121347105500,9.24510546875,-0.05461743846535683,0.0182301364839077,-0.026748523116111755
1772896121357073700,9.25507373046875,-0.053699981421232224,0.0075663067400455475,-0.02316097915172577
1772896121367042600,9.26504248046875,-0.05403527244925499,-0.009258213452994823,-0.0018884475575760007
1772896121377010700,9.2750107421875,-0.05336282402276993,-0.008796687237918377,0.02358202449977398
1772896121386978300,9.284978271484375,-0.04352111369371414,-0.013013004325330257,0.03253850340843201
1772896121396947700,9.29494775390625,-0.038597993552684784,-0.017168067395687103,0.03122449852526188
1772896121406915300,9.304915283203124,-0.03452841565012932,-0.009278452955186367,0.023744476959109306
1772896121416883500,9.314883544921875,-0.0370807908475399,0.005004612263292074,0.010041981004178524
1772896121426852400,9.324852294921875,-0.042989544570446014,0.01290461327880621,-0.0014556838432326913
1772896121436820500,9.334820556640626,-0.049254897981882095,0.0401490181684494,0.009606820531189442
1772896121446788600,9.34478857421875,-0.04682023450732231,0.05408800393342972,0.003314836649224162
1772896121456757500,9.354757568359375,-0.0413287989795208,0.05149594694375992,-0.011055313982069492
1772896121466725600,9.3647255859375,-0.03792740777134895,0.05301261693239212,-0.011810586787760258
1772896121476693500,9.374693603515626,-0.03332386910915375,0.04863997548818588,-0.007066165097057819
1772896121486662400,9.384662353515624,-0.030665500089526176,0.046128347516059875,0.0018700717482715845
1772896121496630500,9.394630615234375,-0.029689984396100044,0.04875954985618591,0.01458799745887518
1772896121506598400,9.404598388671875,-0.030948327854275703,0.054247260093688965,0.01673104241490364
1772896121516567600,9.414567626953126,-0.03598543256521225,0.057138919830322266,0.010248642414808273
1772896121526535400,9.424535400390624,-0.03867975249886513,0.047740090638399124,0.0008554073283448815
1772896121536503600,9.434503662109375,-0.04361085966229439,0.041662491858005524,-0.007567372173070908
1772896121546472400,9.444472412109375,-0.042637474834918976,0.035844285041093826,-0.01050244178622961
1772896121556440600,9.454440673828126,-0.04120256379246712,0.03373878821730614,-0.001201884588226676
1772896121566408400,9.464408447265624,-0.0385575108230114,0.026018816977739334,0.0041731735691428185
1772896121576377300,9.47437744140625,-0.04097672924399376,0.018035726621747017,0.007762049324810505
1772896121586345500,9.484345458984375,-0.03929813578724861,0.0188413318246603,0.007984955795109272
1772896121596313600,9.494313720703126,-0.03163569048047066,0.0218493714928627,0.009620136581361294
1772896121606282500,9.504282470703124,-0.03099466674029827,0.01990792714059353,0.0067604342475533485
1772896121616250600,9.514250732421875,-0.02576102316379547,0.021164141595363617,0.006395847536623478
1772896121626218500,9.524218505859375,-0.02124909497797489,0.027643611654639244,0.011759188026189804
1772896121636187600,9.534187744140626,-0.01840563863515854,0.035230692476034164,0.013909157365560532
1772896121646155500,9.544155517578124,-0.013421532697975636,0.0357646569609642,0.0173835176974535
1772896121656123400,9.554123291015625,-0.009416671469807625,0.029860161244869232,0.006139917764812708
1772896121666092300,9.56409228515625,-0.0017723336350172758,0.02382650226354599,0.006484530866146088
1772896121676060400,9.574060302734376,0.0009353021741844714,0.027803935110569,0.007047523278743029
1772896121686028500,9.584028564453124,0.00455773388966918,0.025665681809186935,0.010624680668115616
1772896121695997400,9.59399755859375,0.003999269101768732,0.02418203465640545,0.014768825843930244
1772896121705965600,9.603965576171875,0.004012851044535637,0.01848153956234455,0.01284442562609911
1772896121715933400,9.613933349609376,0.004489024169743061,0.016654344275593758,0.00953624676913023
1772896121725902600,9.623902587890624,0.0038458709605038166,0.004209658596664667,0.008266185410320759
1772896121735870700,9.63387060546875,0.007814779877662659,0.0042719766497612,0.014821822755038738
1772896121745838300,9.64383837890625,0.0026013758033514023,-0.001529187080450356,0.02237694524228573
1772896121755807500,9.653807373046876,-0.00035499935620464385,-0.0021193434949964285,0.021045098081231117
1772896121765775400,9.663775390625,-0.0029028456192463636,0.0004577973741106689,0.015672968700528145
1772896121775743500,9.673743408203125,-0.008074438199400902,-0.00026285400963388383,0.010963168926537037
1772896121785712400,9.68371240234375,-0.013449762016534805,0.013659886084496975,0.012085957452654839
1772896121795680500,9.693680419921876,-0.015487346798181534,0.012252405285835266,-0.0006958839949220419
1772896121805648600,9.703648681640624,-0.01732359640300274,0.008714928291738033,-0.006929278839379549
1772896121815617500,9.713617431640625,-0.019709788262844086,0.0031907332595437765,-0.004537227563560009
1772896121825585700,9.723585693359375,-0.019170232117176056,-0.0041792988777160645,0.0091170659288764
1772896121835553300,9.73355322265625,-0.01452674437314272,-0.004344947170466185,0.016283631324768066
1772896121845522400,9.7435224609375,-0.0025513083674013615,0.0024889903143048286,0.02250184677541256
1772896121855490600,9.753490478515625,0.0014343785587698221,0.007562045939266682,0.013845241628587246
1772896121865459500,9.76345947265625,0.001859685406088829,0.009212139993906021,-0.00484322477132082
1772896121875427600,9.773427490234376,-0.0035835495218634605,0.005771602503955364,-0.015567242167890072
1772896121885395500,9.7833955078125,-0.005976399872452021,0.004686364438384771,-0.010581538081169128
1772896121895363600,9.793363525390625,-0.012133361771702766,0.000800279900431633,-0.006647782865911722
1772896121905332500,9.80333251953125,-0.012318984605371952,-0.008529040031135082,-0.004564924165606499
1772896121915300600,9.813300537109376,-0.007999070920050144,-0.019906597211956978,0.0046450854279100895
1772896121925269500,9.82326953125,-0.0003510046226438135,-0.022285863757133484,0.02371917851269245
1772896121935237400,9.8332373046875,0.006734868045896292,-0.02623107098042965,0.033964093774557114
1772896121945205500,9.84320556640625,0.008267517201602459,-0.02551894262433052,0.03148628771305084
1772896121955174400,9.85317431640625,0.004042412154376507,-0.0107682254165411,0.025254489853978157
1772896121965142500,9.863142578125,0.00155262288171798,0.006371612660586834,0.009386577643454075
1772896121975110700,9.873110595703125,-0.008791094645857811,0.020533770322799683,-0.009973005391657352
1772896121985079600,9.88307958984375,-0.01720588468015194,0.03545119985938072,-0.016991499811410904
1772896121995047700,9.893047607421876,-0.018386198207736015,0.049305230379104614,-0.027343207970261574
1772896122005015600,9.903015625,-0.012521384283900261,0.053103432059288025,-0.033677004277706146
1772896122014984700,9.912984619140625,-0.004816326778382063,0.050565171986818314,-0.036976393312215805
1772896122024952300,9.922952392578125,-0.001645567244850099,0.04507346823811531,-0.0210682675242424
1772896122034920400,9.93292041015625,0.0034029872622340918,0.036796897649765015,-0.003367833560332656
1772896122044889300,9.942889404296874,0.008882441557943821,0.032222919166088104,0.005538309924304485
1772896122054857500,9.952857421875,0.012911271303892136,0.023518109694123268,0.004258128348737955
1772896122064825600,9.96282568359375,0.01534939557313919,0.01798485964536667,0.0058094197884202
1772896122074794500,9.97279443359375,0.00589517317712307,0.014221013523638248,0.004280765075236559
1772896122084762600,9.9827626953125,0.0016136092599481344,0.008259527385234833,0.0065140919759869576
1772896122094730500,9.99273046875,-0.002484995638951659,0.0019148128340020776,0.005315136630088091
1772896122104699600,10.00269970703125,-0.006892793346196413,-0.0000476705827168189,0.009190302342176437
1772896122114665500,10.01266552734375,-0.010432134382426739,0.003686613868921995,0.012984241358935833
1772896122124633600,10.022633544921876,-0.01697365753352642,0.003912449814379215,0.009425459429621696
1772896122134602500,10.0326025390625,-0.01751348003745079,0.006744455546140671,-0.0009928264189511538
1772896122144570600,10.042570556640625,-0.01612703874707222,0.0060083577409386635,-0.007858721539378166
1772896122154538500,10.05253857421875,-0.0117940753698349,0.00640809815376997,-0.007890147157013416
1772896122164506400,10.06250634765625,-0.009749299846589565,0.009785785339772701,-0.0017212009988725185
1772896122174475500,10.0724755859375,-0.002409361768513918,0.014219682663679123,0.004834702704101801
1772896122184443000,10.08244287109375,-0.003183276392519474,0.018737202510237694,0.00680118054151535
1772896122194410800,10.09241064453125,0.002119077369570732,0.02327842451632023,0.002043709857389331
1772896122204380000,10.1023798828125,0.007783621083945036,0.021684521809220314,-0.000494016392622143
1772896122214347800,10.11234765625,0.005818740464746952,0.02455301396548748,0.010234794579446316
1772896122224317000,10.12231689453125,0.0021654162555933,0.030254840850830078,0.015395201742649078
1772896122234284800,10.132284912109375,0.0036277580074965954,0.026630545035004616,0.009064868092536926
1772896122244253000,10.1422529296875,0.00765765318647027,0.0220874585211277,0.006697850301861763
1772896122254221800,10.152221923828124,0.005336442030966282,0.02111300826072693,0.0080336919054389
1772896122264190000,10.16218994140625,0.004287423100322485,0.02280411496758461,0.008987369947135448
1772896122274157800,10.17215771484375,-0.01218769047409296,0.0279203150421381,0.016705477610230446
1772896122284127000,10.182126953125,-0.020531905815005302,0.03289616480469704,0.007248325273394585
1772896122294094800,10.1920947265625,-0.023486949503421783,0.03334304317831993,-0.006518619135022163
1772896122304062700,10.202062744140624,-0.024514397606253624,0.03458381071686745,-0.009020659141242504
1772896122314031900,10.212031982421875,-0.018857577815651894,0.03256646543741226,-0.014968030154705048
1772896122324000000,10.222,-0.01631745509803295,0.024922393262386322,-0.003186738584190607
1772896122333968000,10.2319677734375,-0.014752314426004887,0.022068284451961517,0.005514607764780521
1772896122343937000,10.24193701171875,-0.011700864881277084,0.019933760166168213,0.000333161442540586
1772896122353905000,10.25190478515625,-0.0046181874349713326,0.017784057185053825,0.001169127761386335
1772896122363872800,10.261872802734375,0.0011329087428748608,0.023553796112537384,0.003087402554228902
1772896122373841700,10.271841552734376,0.00902465358376503,0.02744201011955738,0.0057223341427743435
1772896122383809800,10.281809814453124,0.011394068598747253,0.02676849626004696,0.0070611052215099335
1772896122393778000,10.29177783203125,0.017678063362836838,0.020622720941901207,0.01393046323210001
1772896122403746800,10.301746826171875,0.016037821769714355,0.02942047268152237,0.012062255293130875
1772896122413715000,10.31171484375,0.015511315315961838,0.02646995708346367,0.012153602205216885
1772896122423682800,10.321682861328124,0.012308863922953606,0.02418389916419983,0.012087821960449219
1772896122433652000,10.33165185546875,0.017641311511397362,0.01774890348315239,0.018424546346068382
1772896122443619800,10.341619873046875,0.025231586769223213,-0.0004948153509758413,0.024053137749433517
1772896122453587700,10.351587646484376,0.019877035170793533,-0.010363691486418247,0.024349281564354897
1772896122463556900,10.361556884765625,0.017978733405470848,-0.0223295409232378,0.028198614716529846
1772896122473524700,10.371524658203125,0.010903513990342617,-0.015086008235812187,0.033365946263074875
1772896122483492900,10.381492919921875,0.000559263804461807,-0.015195198357105255,0.028737105429172516
1772896122493461800,10.391461669921876,-0.009689911268651485,-0.005163602996617556,0.01426575519144535
1772896122503430000,10.401429931640624,-0.018545188009738922,0.0024953819811344147,-0.005305815953761339
1772896122513398000,10.41139794921875,-0.0268944650888443,0.012614328414201736,-0.020845893770456314
1772896122523367000,10.421366943359375,-0.02786199189722538,0.026150111109018326,-0.02142486535012722
1772896122533336800,10.4313369140625,-0.01661812514066696,0.03227058798074722,-0.024383636191487312
1772896122543305000,10.441304931640625,-0.0029667613562196493,0.03026868961751461,-0.02203472889959812
1772896122553273900,10.45127392578125,0.004340153653174639,0.027003655210137367,-0.009633985348045826
1772896122563242000,10.461241943359376,0.009849168360233307,0.02022084966301918,-0.0046541402116417885
1772896122573209900,10.4712099609375,0.007580954115837812,0.012812201865017414,0.007257113698869944
1772896122583179000,10.481178955078125,0.005130046978592873,0.012879845686256886,0.0192546546459198
1772896122593147000,10.49114697265625,0.0015542207984253764,0.012796754948794842,0.022771092131733894
1772896122603114800,10.50111474609375,-0.004939364735037088,0.015678828582167625,0.018743326887488365
1772896122613084000,10.511083984375,-0.012461462989449501,0.009968211874365807,0.008616924285888672
1772896122623051800,10.5210517578125,-0.015976568683981895,0.01190965622663498,0.002376604825258255
1772896122633020000,10.53102001953125,-0.02610963024199009,0.019535085186362267,-0.0002849582233466208
1772896122642988800,10.54098876953125,-0.029447637498378754,0.02467338927090168,-0.015967780724167824
1772896122652957000,10.55095703125,-0.03769012168049812,0.01930765062570572,-0.02418363280594349
1772896122662924800,10.5609248046875,-0.04213733226060867,0.02051619440317154,-0.03233050927519798
1772896122672893700,10.570893798828125,-0.044917672872543335,0.015516375191509724,-0.030787739902734756
1772896122682861800,10.58086181640625,-0.05132656916975975,0.014927283860743046,-0.0322069376707077
1772896122692830000,10.590829833984374,-0.05186426267027855,0.018275942653417587,-0.02353142574429512
1772896122702798800,10.600798828125,-0.04673687741160393,0.01818033494055271,-0.014946458861231804
1772896122712767000,10.61076708984375,-0.050879158079624176,0.019716979935765266,-0.008245679549872875
1772896122722735900,10.62073583984375,-0.042872365564107895,0.024222781881690025,0.00002609897819638718
1772896122732704000,10.6307041015625,-0.045344047248363495,0.018680743873119354,0.009286176413297653
1772896122742672000,10.640671875,-0.04080016165971756,0.01152536179870367,0.011232680641114712
1772896122752639700,10.6506396484375,-0.04018736630678177,0.001975266495719552,0.005862948950380087
1772896122762608600,10.660608642578126,-0.04080255702137947,-0.0024895230308175087,0.009605223312973976
1772896122772576800,10.67057666015625,-0.04307955875992775,0.006322344299405813,0.011144263669848442
1772896122782545000,10.680544921875,-0.03695349022746086,0.008991364389657974,0.000764593540225178
1772896122792513800,10.690513671875,-0.04080495238304138,0.017425594851374626,-0.005426457151770592
1772896122802482000,10.70048193359375,-0.039743948727846146,0.02009088732302189,-0.012257997877895832
1772896122812450800,10.710450927734374,-0.03418220579624176,0.018494589254260063,-0.015719840303063393
1772896122822419000,10.7204189453125,-0.028501415625214577,0.015504390932619572,-0.01326813455671072
1772896122832387000,10.730386962890625,-0.02424595132470131,0.015587748028337955,-0.005139900837093592
1772896122842356000,10.74035595703125,-0.022168418392539024,0.014473214745521545,0.00708720413967967
1772896122852323800,10.75032373046875,-0.01956544630229473,0.021927403286099434,0.002965429797768593
1772896122862291700,10.760291748046875,-0.016448214650154114,0.02124829776585102,-0.0009443568997085094
1772896122872260900,10.7702607421875,-0.013292635791003704,0.012254003435373306,-0.0014450311427935958
1772896122882228700,10.780228759765626,-0.01341567374765873,0.01242258120328188,-0.0006870955694466829
1772896122892196900,10.79019677734375,-0.015476161614060402,0.007538343779742718,0.0003885551996063441
1772896122902166000,10.800166015625,-0.01563914678990841,0.003347060875967145,-0.0004010720585938543
1772896122912134000,10.8101337890625,-0.009465406648814678,0.00141041015740484,0.001719869440421462
1772896122922102000,10.82010205078125,-0.012019111774861813,-0.004292482975870371,0.005814479663968086
1772896122932071000,10.83007080078125,-0.013036440126597881,-0.010161823593080044,0.010273143649101257
1772896122942038800,10.840038818359375,-0.014857509173452854,-0.014274010434746742,0.019629361107945442
1772896122952007000,10.8500068359375,-0.018910041078925133,-0.005182777531445026,0.03182557225227356
1772896122961975800,10.859975830078126,-0.026071548461914062,0.0025864620693027973,0.02154337428510189
1772896122971944000,10.86994384765625,-0.030122483149170876,0.013646037317812443,-0.007196660153567791
1772896122981911800,10.879911865234375,-0.03310655429959297,0.024104004725813866,-0.02773096412420273
1772896122991881000,10.889880859375,-0.035539351403713226,0.029765618965029716,-0.035712722688913345
1772896123001848800,10.899848876953126,-0.029582658782601357,0.024580176919698715,-0.03798999264836311
1772896123011817000,10.90981689453125,-0.02160010114312172,0.011443602852523327,-0.034326281398534775
1772896123021785900,10.919785888671875,-0.013648700900375843,0.0003278351214248687,-0.024652082473039627
1772896123031753700,10.929753662109375,-0.003931891173124313,-0.011571435257792473,-0.004220045171678066
1772896123041721900,10.939721923828126,0.0017515610670670867,-0.022060561925172806,0.015209312550723553
1772896123051690800,10.949690673828124,-0.0005432848702184856,-0.02930489182472229,0.018367288634181023
1772896123061659000,10.959658935546875,-0.009895240887999535,-0.024292290210723877,0.010764497332274914
1772896123071627000,10.969626953125,-0.02154657058417797,-0.01173228956758976,0.012443087063729763
1772896123081596000,10.979595947265626,-0.03157417103648186,-0.003099120454862714,-0.002995789982378483
1772896123091564000,10.98956396484375,-0.037514351308345795,0.00996048841625452,-0.00526693370193243
1772896123101532000,10.999531982421875,-0.04168619215488434,0.011071293614804745,-0.01552223414182663
1772896123111501000,11.0095009765625,-0.03333638608455658,0.010018279775977135,-0.015516641549766064
1772896123121468700,11.01946875,-0.027215907350182533,0.002100967802107334,-0.011172759346663952
1772896123131436800,11.029436767578124,-0.021028053015470505,0.00020985709852539003,-0.00580835435539484
1772896123141405700,11.03940576171875,-0.021518342196941376,-0.011005247011780739,0.005081311333924532
1772896123151373800,11.049373779296875,-0.015519305132329464,-0.023928502574563026,0.006508765742182732
1772896123161342000,11.059342041015626,-0.01780482940375805,-0.015093465335667133,0.006876281928271055
1772896123171310800,11.069310791015624,-0.025893116369843483,-0.018263958394527435,0.01655633933842182
1772896123181281500,11.079281494140625,-0.024823857471346855,-0.02160382829606533,0.008294947445392609
1772896123191249700,11.089249755859376,-0.026214560493826866,-0.01920139044523239,0.01366095058619976
1772896123201218600,11.099218505859374,-0.026704315096139908,-0.009002549573779106,0.0221503097563982
1772896123211186700,11.109186767578125,-0.02261636219918728,-0.0019952403381466866,0.017847174778580666
1772896123221154800,11.11915478515625,-0.016652746126055717,-0.009521599858999252,0.00720651401206851
1772896123231123700,11.129123779296876,-0.020300477743148804,-0.01679815538227558,-0.0005025385180488229
1772896123241091800,11.139091796875,-0.01943654753267765,-0.01561278197914362,0.001059139147400856
1772896123251059500,11.1490595703125,-0.016459399834275246,-0.009382316842675209,0.0006415555253624916
1772896123261028600,11.159028564453125,-0.009381784126162529,-0.0057044909335672855,0.011201787739992142
1772896123270996500,11.16899658203125,-0.0020359866321086884,0.0019169433508068323,0.02303767390549183
1772896123280964600,11.178964599609374,0.00669358903542161,0.0010807107901200652,0.0138417799025774
1772896123290933500,11.18893359375,0.007573231123387814,0.0007344998302869499,0.011355718597769737
1772896123300901600,11.198901611328125,0.0035803536884486675,0.005380916874855757,0.011902465485036373
1772896123310869800,11.208869873046876,0.0017973673529922962,0.005051750224083662,0.016051670536398888
1772896123320838700,11.218838623046874,0.0010900318156927824,0.007232879288494587,0.01227237842977047
1772896123330806800,11.228806884765625,-0.002496447181329131,0.008461395278573036,0.008421714417636395
1772896123340774700,11.238774658203125,-0.0046903593465685844,0.007411577273160219,0.002995523624122143
1772896123350743600,11.24874365234375,-0.0031396006233990192,0.009496832266449928,0.0012213257141411304
1772896123360711700,11.258711669921874,-0.0029465213883668184,0.018704978749155998,-0.0013630058383569121
1772896123370679600,11.268679443359375,-0.003698331769555807,0.022974824532866478,-0.0003581951605156064
1772896123380648700,11.278648681640625,-0.007959389127790928,0.02497379295527935,-0.004621915984898806
1772896123390616600,11.288616455078126,-0.00953891035169363,0.03224875032901764,-0.009195628575980663
1772896123400584700,11.298584716796874,-0.009504822082817554,0.0410185381770134,-0.023144999518990517
1772896123410553600,11.3085537109375,-0.007276288699358702,0.0424843430519104,-0.0332074873149395
1772896123420521700,11.318521728515625,-0.007842742837965488,0.040288299322128296,-0.031733959913253784
1772896123430489600,11.328489501953126,-0.014004498720169067,0.0282880961894989,-0.03105538710951805
1772896123440458500,11.33845849609375,-0.012589561752974987,0.02719114162027836,-0.025603896006941795
1772896123450426600,11.348426513671875,-0.018915368244051933,0.02803909219801426,-0.015177355147898197
1772896123460395500,11.3583955078125,-0.021390508860349655,0.023576166480779648,-0.0057039582170546055
1772896123470363600,11.36836376953125,-0.01702239364385605,0.0165555402636528,0.00025832661776803434
1772896123480331800,11.378331787109374,-0.022067751735448837,0.012646286748349667,0.010596984066069126
1772896123490300700,11.38830078125,-0.028924059122800827,0.009502691216766834,0.016833841800689697
1772896123500268800,11.398268798828125,-0.03315822035074234,0.00971387978643179,0.010332798585295677
1772896123510236700,11.408236572265626,-0.034261833876371384,0.005663744639605284,0.007889081723988056
1772896123520205800,11.418205810546874,-0.03519473969936371,0.007650995627045631,0.000597879639826715
1772896123530173400,11.42817333984375,-0.032107070088386536,0.004732171073555946,-0.004462925251573324
1772896123540141600,11.4381416015625,-0.034026943147182465,0.010039051994681358,-0.008310394361615181
1772896123550110500,11.4481103515625,-0.03233104199171066,0.02184857428073883,-0.005751895252615213
1772896123560078600,11.45807861328125,-0.03493987396359444,0.026337863877415657,-0.011007110588252544
1772896123570046700,11.468046630859375,-0.03183729201555252,0.02630031295120716,-0.018512964248657227
1772896123580015600,11.478015625,-0.032833848148584366,0.02129783108830452,-0.016927851364016533
1772896123589983700,11.487983642578126,-0.02900209091603756,0.016702814027667046,-0.009605223312973976
1772896123599952000,11.497951904296874,-0.025058748200535774,0.012144813314080238,0.007279218174517155
1772896123609920800,11.507920654296875,-0.019963588565587997,0.005927930120378733,0.016693493351340294
1772896123619888600,11.517888671875,-0.01859472319483757,-0.007790811359882355,0.02058117464184761
1772896123629856500,11.5278564453125,-0.018205901607871056,-0.011629225686192513,0.02965722791850567
1772896123639825700,11.53782568359375,-0.019270900636911392,-0.012163721956312656,0.032828785479068756
1772896123649793500,11.54779345703125,-0.023664049804210663,-0.0046331011690199375,0.024661405012011528
1772896123659761700,11.55776171875,-0.020230969414114952,0.005020058713853359,0.006617955397814512
1772896123669730600,11.56773046875,-0.017314808443188667,0.017432520166039467,0.0005568669876083732
1772896123679698700,11.57769873046875,-0.019783291965723038,0.02936321496963501,0.0003760383406188339
1772896123689666800,11.587666748046875,-0.015595471486449242,0.035716451704502106,-0.0023411849979311228
1772896123699635700,11.5976357421875,-0.009137305431067944,0.0394616536796093,-0.003023486817255616
1772896123709603600,11.607603515625,-0.008047273382544518,0.03266952931880951,-0.007864580489695072
1772896123719571700,11.61757177734375,-0.01110564824193716,0.02736877277493477,-0.003991545643657446
1772896123729540600,11.62754052734375,-0.009796171449124813,0.029404228553175926,0.007428887765854597
1772896123739508700,11.6375087890625,-0.004237888380885124,0.02484889142215252,0.010549313388764858
1772896123749476600,11.6474765625,-0.0023939155507832766,0.031860727816820145,0.005485845264047384
1772896123759445800,11.65744580078125,-0.0014713965356349945,0.03411881998181343,0.0012884372845292091
1772896123769413600,11.66741357421875,-0.005801962688565254,0.030794396996498108,-0.002650377806276083
1772896123779381500,11.677381591796875,-0.00800439715385437,0.03322399780154228,-0.0005776396137662232
1772896123789350700,11.6873505859375,-0.005082643125206232,0.029862025752663612,0.0007664577569812536
1772896123799318500,11.697318603515624,-0.003947070799767971,0.029443375766277313,-0.0009299758239649236
1772896123809286700,11.70728662109375,-0.0014559502014890313,0.020770525559782982,0.002547047333791852
1772896123819255600,11.717255615234375,0.0018756643403321505,0.017179518938064575,0.010096576064825058
1772896123829223700,11.7272236328125,0.00315930787473917,0.013858024962246418,0.013517140410840511
1772896123839191600,11.737191650390624,0.004889297299087048,0.014424745924770832,0.011619904078543186
1772896123849160700,11.74716064453125,0.006952448282390833,0.02207307703793049,0.008805476129055023
1772896123859128800,11.75712890625,0.01739443652331829,0.019722305238246918,0.006892260629683733
1772896123869096400,11.767096435546875,0.02816079743206501,0.015751533210277557,0.008506136015057564
1772896123879065600,11.777065673828124,0.03267379105091095,0.009586048312485218,0.008279235102236271
1772896123889033500,11.787033447265625,0.03876657038927078,0.0033212280832231045,0.01757819391787052
1772896123899001600,11.797001708984375,0.03400696814060211,0.008889365009963512,0.025669943541288376
1772896123908970500,11.806970458984376,0.03442428633570671,0.004004328977316618,0.025730397552251816
1772896123918938600,11.816938720703124,0.024837706238031387,-0.001529187080450356,0.021739117801189423
1772896123928906800,11.82690673828125,0.009582320228219032,-0.008567122742533684,0.029098231345415115
1772896123938875600,11.836875732421875,-0.0017409083666279912,-0.012926983647048473,0.02293008379638195
1772896123948843800,11.84684375,-0.00723634148016572,-0.034632544964551926,0.019172362983226776
1772896123958811600,11.856811767578124,-0.013156814500689507,-0.0369284562766552,0.029802903532981873
1772896123968780500,11.866780517578125,-0.01218582596629858,-0.0425405353307724,0.03861663490533829
1772896123978748700,11.876748779296875,-0.012111524119973183,-0.03808559849858284,0.0368160717189312
1772896123988716500,11.886716552734375,-0.015380820259451866,-0.03861583396792412,0.026866234838962555
1772896123998685700,11.896685791015624,-0.016439426690340042,-0.014516358263790607,0.0263607669621706
1772896124008653600,11.906653564453125,-0.01823493093252182,0.007801197934895754,0.013308081775903702
1772896124018621700,11.91662158203125,-0.01840883493423462,0.027848143130540848,0.0005435511702671647
1772896124028590600,11.926590576171876,-0.015272962860763073,0.04801040142774582,-0.01187876332551241
1772896124038558700,11.936558837890624,-0.017610952258110046,0.055145543068647385,-0.016093749552965164
1772896124048526600,11.946526611328125,-0.017784057185053825,0.054599862545728683,-0.01823466457426548
1772896124058495500,11.95649560546875,-0.019756659865379333,0.06274860352277756,-0.008927448652684689
1772896124068463600,11.966463623046875,-0.019519105553627014,0.06695239990949631,-0.004092745948582888
1772896124078431500,11.976431396484376,-0.011124556884169579,0.06738836318254471,-0.0022951122373342514
1772896124088400600,11.986400634765625,-0.004709267523139715,0.06272570043802261,-0.004449076950550079
1772896124098368800,11.99636865234375,-0.0037531929556280375,0.06161516159772873,-0.0012753878254443407
1772896124108336600,12.006336669921875,-0.0011965582380071282,0.0568465031683445,0.004554538056254387
1772896124118305800,12.016305908203124,-0.0009134642314165831,0.05217665061354637,0.01392593514174223
1772896124128273700,12.026273681640625,-0.0008460862445645034,0.051249340176582336,0.016645822674036026
1772896124138241500,12.036241455078125,-0.00805899128317833,0.054068028926849365,0.01420450210571289
1772896124148210400,12.04621044921875,-0.017529990524053574,0.05700736120343208,0.008135690353810787
1772896124158178600,12.056178466796876,-0.019508985802531242,0.05130632966756821,-0.010717093013226986
