time,seconds_elapsed,z,y,x
1772896112187454700,0.085454833984375,0.24862702190876007,-0.06806986778974533,0.5207776427268982
1772896112197422800,0.0954228515625,0.30630895495414734,0.09235303848981857,0.5447725057601929
1772896112207390700,0.105390625,0.3501291275024414,0.2778683006763458,0.6194174885749817
1772896112217360000,0.11535986328125,0.403363436460495,0.4790533781051636,0.7494290471076965
1772896112227327500,0.125327392578125,0.5302769541740417,0.5340226292610168,0.9102064371109009
1772896112237295600,0.135295654296875,0.6138319969177246,0.5071877837181091,0.9032058715820312
1772896112247264500,0.145264404296875,0.5848405957221985,0.38302990794181824,0.7265788912773132
1772896112257232600,0.155232666015625,0.5344809293746948,0.24671684205532074,0.5284319519996643
1772896112267200800,0.16520068359375,0.44900864362716675,0.17672312259674072,0.44075265526771545
1772896112277168600,0.175168701171875,0.35649392008781433,0.005182793363928795,0.5686912536621094
1772896112287137800,0.1851376953125,0.32163286209106445,-0.4146248698234558,0.8110994100570679
1772896112297105700,0.195105712890625,0.2983262836933136,-0.7642305493354797,1.0895006656646729
1772896112307074800,0.20507470703125,0.3064318895339966,-1.0184621810913086,1.3443191051483154
1772896112317042700,0.215042724609375,0.25836873054504395,-1.1265355348587036,1.492964506149292
1772896112327010600,0.225010498046875,0.21078601479530334,-1.1039245128631592,1.6227784156799316
1772896112336979700,0.234979736328125,0.18872997164726257,-1.3438737392425537,1.7074089050292969
1772896112346947600,0.244947509765625,0.09880381077528,-1.8247058391571045,1.7570180892944336
1772896112356915700,0.254915771484375,-0.1832515448331833,-2.3792660236358643,1.7181172370910645
1772896112366883800,0.2648837890625,-0.7297300696372986,-2.886733055114746,1.5162874460220337
1772896112376852700,0.274852783203125,-1.4585226774215698,-3.4289839267730713,1.1447547674179077
1772896112386820600,0.284820556640625,-2.25129771232605,-3.65739369392395,0.5927302241325378
1772896112396788500,0.29478857421875,-3.04152774810791,-3.145629644393921,-0.13182073831558228
1772896112406757600,0.304757568359375,-3.529975175857544,-1.9823330640792847,-0.6049342751502991
1772896112416725800,0.314725830078125,-2.3393309116363525,-0.4994298219680786,-0.7576104402542114
1772896112426693600,0.324693603515625,0.4103330075740814,0.775053083896637,-0.5228711366653442
1772896112436662800,0.334662841796875,1.7020864486694336,1.575340986251831,-0.9699901938438416
1772896112446630700,0.344630615234375,0.6876993179321289,1.0307375192642212,-1.7725965976715088
1772896112456598800,0.354598876953125,0.4800818860530853,0.5498253703117371,-2.1259195804595947
1772896112466567700,0.364567626953125,0.9740780591964722,0.5252299904823303,-2.367286443710327
1772896112476535600,0.37453564453125,0.9456693530082703,0.4337431490421295,-2.457961082458496
1772896112486503700,0.384503662109375,0.7743394374847412,0.022314060479402542,-2.258113145828247
1772896112496472600,0.39447265625,0.6756486296653748,-0.28538835048675537,-1.8899253606796265
1772896112506440700,0.404440673828125,0.5939258337020874,-0.08705607056617737,-1.4308714866638184
1772896112516408600,0.41440869140625,0.4627293348312378,0.3150801658630371,-0.9749138951301575
1772896112526377700,0.424377685546875,0.26404765248298645,0.5273261070251465,-0.606662929058075
1772896112536345600,0.434345703125,0.2993415594100952,0.2585716247558594,-0.5525187253952026
1772896112546313700,0.444313720703125,0.365971177816391,-0.25410526990890503,-0.6403188705444336
1772896112556283000,0.454282958984375,0.373806893825531,-0.8211713433265686,-0.8019905686378479
1772896112566250500,0.46425048828125,0.4501725137233734,-1.2229083776474,-0.8910951614379883
1772896112576218600,0.474218505859375,0.493782639503479,-1.2108341455459595,-0.7344659566879272
1772896112586187500,0.4841875,0.4885822832584381,-0.7208487391471863,0.012755220755934715
1772896112596155600,0.49415576171875,0.4221217632293701,-1.3212919235229492,0.25362110137939453
1772896112606123800,0.504123779296875,0.2937107980251312,-1.1222641468048096,0.42212674021720886
1772896112616092700,0.5140927734375,0.2993753254413605,-0.8427186608314514,0.42527973651885986
1772896112626060800,0.524060791015625,0.2630159854888916,-0.5563279390335083,0.13651663064956665
1772896112636028700,0.534028564453125,0.2360992580652237,-0.4778589904308319,-0.34022951126098633
1772896112645997800,0.543997802734375,0.2127734273672104,-0.5178098082542419,-0.7526543736457825
1772896112655965400,0.55396533203125,0.16807079315185547,-0.4214340150356293,-0.9674224853515625
1772896112665933600,0.56393359375,0.06139335781335831,-0.21729980409145355,-1.1325792074203491
1772896112675902700,0.57390283203125,-0.11141987144947052,-0.34191206097602844,-1.4886800050735474
1772896112685870600,0.58387060546875,-0.11654804646968842,-0.6720162630081177,-1.8470885753631592
1772896112695838700,0.593838623046875,-0.016289271414279938,-0.5295954346656799,-1.9337033033370972
1772896112705807600,0.6038076171875,-0.11051377654075623,-0.21815767884254456,-1.715626835823059
1772896112715775700,0.613775634765625,-0.2559100091457367,0.005663721822202206,-1.3037779331207275
1772896112725743900,0.623743896484375,-0.34415146708488464,0.12938247621059418,-0.8298748731613159
1772896112735712800,0.633712646484375,-0.2983418107032776,0.4143069088459015,-0.39114364981651306
1772896112745680600,0.6436806640625,-0.17796774208545685,0.6981452703475952,-0.13386285305023193
1772896112755648500,0.6536484375,-0.04719395935535431,0.8834896087646484,-0.09028647840023041
1772896112765617700,0.66361767578125,0.06298793852329254,0.8705671429634094,-0.20935481786727905
1772896112775585500,0.67358544921875,0.12457532435655594,0.8864048719406128,-0.4026065170764923
1772896112785553700,0.6835537109375,0.14969851076602936,1.094538927078247,-0.5648004412651062
1772896112795522800,0.693522705078125,0.08983540534973145,1.4085240364074707,-0.6773934960365295
1772896112805490700,0.70349072265625,0.02666682004928589,1.558242678642273,-0.6505227088928223
1772896112815458800,0.713458740234375,0.00906841829419136,1.4850149154663086,-0.48791491985321045
1772896112825427700,0.723427734375,-0.05725867301225662,1.4762272834777832,-0.3036646544933319
1772896112835395600,0.7333955078125,-0.10250356048345566,1.345266580581665,-0.08480051159858704
1772896112845363700,0.74336376953125,-0.08672912418842316,1.259466528892517,0.1217404156923294
1772896112855332600,0.75333251953125,0.005027433391660452,1.2564500570297241,0.2752339839935303
1772896112865300700,0.76330078125,0.102386474609375,1.2348984479904175,0.34656646847724915
1772896112875268600,0.7732685546875,0.18313325941562653,1.1388230323791504,0.32694754004478455
1772896112885237800,0.78323779296875,0.26521268486976624,1.0141748189926147,0.2498628795146942
1772896112895205600,0.79320556640625,0.3184637129306793,0.8506121039390564,0.183931365609169
1772896112905173800,0.803173828125,0.28708046674728394,0.705249547958374,0.15737111866474152
1772896112915142700,0.813142578125,0.22926437854766846,0.578758180141449,0.1546204835176468
1772896112925110500,0.823110595703125,0.17832794785499573,0.48267826437950134,0.18843276798725128
1772896112935078700,0.83307861328125,0.14524893462657928,0.39832985401153564,0.2939770817756653
1772896112945047600,0.843047607421875,0.14931398630142212,0.32377785444259644,0.43644341826438904
1772896112955015700,0.853015625,0.18665039539337158,0.25253239274024963,0.5285823941230774
1772896112964983800,0.86298388671875,0.22888413071632385,0.1760980486869812,0.5439555048942566
1772896112974952700,0.87295263671875,-0.2178346812725067,0.6374004483222961,1.0924336910247803
1772896112984920800,0.8829208984375,0.18294335901737213,1.1669156551361084,0.7792315483093262
1772896112994888700,0.892888671875,-0.19649255275726318,0.515021800994873,0.6603519916534424
1772896113004857900,0.90285791015625,-0.2510963976383209,0.17954741418361664,0.4576790928840637
1772896113014825500,0.912825439453125,-0.19134372472763062,0.5360122919082642,0.23268984258174896
1772896113024793600,0.922793701171875,-0.1058056578040123,0.5527710318565369,0.18911653757095337
1772896113034762500,0.932762451171875,0.01137507800012827,0.3179318904876709,0.3759011924266815
1772896113044730600,0.942730712890625,0.15718740224838257,0.13849875330924988,0.6532710194587708
1772896113054698800,0.95269873046875,0.3511550724506378,-0.025762928649783134,0.8482370376586914
1772896113064667600,0.962667724609375,0.5003696084022522,-0.14186157286167145,0.8884161710739136
1772896113074635800,0.9726357421875,0.5406646728515625,-0.2346988022327423,0.7631832361221313
1772896113084604000,0.98260400390625,0.5276705622673035,-0.22759242355823517,0.5784890055656433
1772896113094572800,0.99257275390625,0.48401981592178345,-0.19699402153491974,0.4222680926322937
1772896113104540700,1.002540771484375,0.4406518340110779,-0.1832747459411621,0.3186378479003906
1772896113114508500,1.012508544921875,0.39266321063041687,-0.19144880771636963,0.2604760527610779
1772896113124477700,1.022477783203125,0.33590593934059143,-0.21765990555286407,0.23747247457504272
1772896113134445600,1.032445556640625,0.28103509545326233,-0.22256089746952057,0.26048120856285095
1772896113144413700,1.04241357421875,0.21642494201660156,-0.17864030599594116,0.2691876292228699
1772896113154382600,1.052382568359375,0.16981211304664612,-0.08912374824285507,0.21627451479434967
1772896113164350700,1.062350830078125,0.13367781043052673,0.023082952946424484,0.11530529707670212
1772896113174318600,1.072318603515625,0.10118631273508072,0.09624768048524857,0.0003711557947099209
1772896113184287500,1.08228759765625,0.0739688128232956,0.11916924268007278,-0.10431903600692749
1772896113194255600,1.092255615234375,0.05355855077505112,0.10273092240095139,-0.167435422539711
1772896113204223500,1.102223388671875,0.028098728507757187,0.020309820771217346,-0.18888239562511444
1772896113214192400,1.1121923828125,0.00827433355152607,-0.05921405553817749,-0.16648410260677338
1772896113224160500,1.122160400390625,0.0065597910434007645,-0.09769460558891296,-0.12169719487428665
1772896113234128400,1.13212841796875,0.029198283329606056,-0.142713725566864,-0.08263734728097916
1772896113244097500,1.14209765625,0.05847441405057907,-0.2004270851612091,-0.050156369805336
1772896113254065400,1.1520654296875,0.08325064927339554,-0.2937868535518646,-0.03857627883553505
1772896113264033500,1.162033447265625,0.10603239387273788,-0.29997631907463074,-0.05716194584965706
1772896113274002400,1.17200244140625,0.11142103374004364,-0.25598782300949097,-0.09857223927974701
1772896113283970600,1.181970458984375,0.09817660599946976,-0.17939051985740662,-0.13518111407756805
1772896113293938400,1.1919384765625,0.05255061388015747,-0.05790087580680847,-0.14563262462615967
1772896113303907300,1.2019072265625,-0.010059768334031105,0.029039349406957626,-0.13641861081123352
1772896113313875500,1.21187548828125,-0.046428531408309937,0.06343698501586914,-0.12540005147457123
1772896113323843600,1.221843505859375,-0.055921368300914764,0.06098474562168121,-0.1301141083240509
1772896113333812500,1.2318125,-0.042262930423021317,0.06705066561698914,-0.1470322459936142
1772896113343780600,1.241780517578125,-0.012471741996705532,0.06691137701272964,-0.1711178719997406
1772896113353748500,1.25174853515625,0.01700415089726448,0.06032645329833031,-0.1742376983165741
1772896113363717600,1.261717529296875,0.024961942806839943,0.08809442818164825,-0.14926017820835114
1772896113373685500,1.271685546875,0.01121598482131958,0.09154747426509857,-0.12636885046958923
1772896113383653400,1.2816533203125,-0.011686401441693306,0.09665222465991974,-0.08815008401870728
1772896113393622300,1.291622314453125,-0.029436510056257248,0.09328249096870422,-0.05275092273950577
1772896113403590400,1.30159033203125,-0.029236238449811935,0.08699929714202881,-0.03452131524682045
1772896113413558500,1.31155859375,-0.0012867450714111328,0.10142593830823898,-0.023018456995487213
1772896113423527400,1.32152734375,0.0029897596687078476,0.0853620171546936,-0.02547415718436241
1772896113433495600,1.33149560546875,0.007433769758790731,0.048264242708683014,-0.031307153403759
1772896113443463700,1.341463623046875,0.014650669880211353,0.0010432051494717598,-0.03765320032835007
1772896113453432600,1.3514326171875,0.021702539175748825,-0.013925934210419655,-0.025500589981675148
1772896113463400700,1.361400634765625,0.03612861782312393,-0.013373328372836113,-0.004194768611341715
1772896113473368300,1.371368408203125,0.07141436636447906,-0.001551569439470768,0.027178967371582985
1772896113483337500,1.38133740234375,0.07021141797304153,0.004139338620007038,0.0627119243144989
1772896113493305300,1.391305419921875,0.056702714413404465,-0.007094897795468569,0.0602998323738575
1772896113503273500,1.4012734375,0.014903071336448193,-0.018537435680627823,0.03583496809005737
1772896113513242400,1.411242431640625,-0.010948524810373783,-0.013471310026943684,0.016197286546230316
1772896113523210500,1.42121044921875,-0.014089190401136875,0.008069135248661041,-0.003470424097031355
1772896113533178600,1.4311787109375,-0.001916063018143177,0.022321268916130066,-0.040744755417108536
1772896113543147500,1.4411474609375,-0.0037885308265686035,0.03973088413476944,-0.07592218369245529
1772896113553115600,1.45111572265625,-0.019590012729167938,0.052947912365198135,-0.07839489728212357
1772896113563083500,1.46108349609375,-0.02729746699333191,0.031037285923957825,-0.0648210272192955
1772896113573052400,1.471052490234375,-0.027138076722621918,-0.007072045002132654,-0.03585708886384964
1772896113583020500,1.4810205078125,-0.13065673410892487,0.040228623896837234,0.002735842950642109
1772896113592988400,1.490988525390625,-0.2246483862400055,0.1578570008277893,-0.024194875732064247
1772896113602957600,1.50095751953125,-0.11819465458393097,0.08675779402256012,-0.00010844739153981209
1772896113612925400,1.510925537109375,-0.06879089772701263,0.044667065143585205,-0.0033391606993973255
1772896113622893600,1.5208935546875,-0.0875731110572815,0.13295325636863708,-0.09768110513687134
1772896113632862500,1.530862548828125,-0.06693664938211441,0.19887471199035645,-0.22176682949066162
1772896113642830600,1.54083056640625,-0.0051563698798418045,0.20704662799835205,-0.29107481241226196
1772896113652798500,1.550798583984375,0.0614778995513916,0.17786607146263123,-0.28380638360977173
1772896113662767400,1.560767333984375,0.1251615285873413,0.07373540848493576,-0.20276451110839844
1772896113672735500,1.570735595703125,0.18002849817276,-0.0379662960767746,-0.09420169144868851
1772896113682703600,1.58070361328125,0.23247545957565308,-0.11199498176574707,0.00895186048001051
1772896113692672500,1.590672607421875,0.2611829340457916,-0.18471713364124298,0.0898827314376831
1772896113702640600,1.600640625,0.258277952671051,-0.2494945377111435,0.1568167507648468
1772896113712608500,1.6106083984375,0.1855623424053192,-0.3492131233215332,0.17886143922805786
1772896113722577700,1.62057763671875,0.1242273598909378,-0.33927100896835327,0.19491124153137207
1772896113732545500,1.630545654296875,0.07744888961315155,-0.3195953071117401,0.17677821218967438
1772896113742513400,1.640513427734375,0.03222095966339111,-0.26200658082962036,0.13644543290138245
1772896113752482300,1.650482421875,0.03176427632570267,-0.19206562638282776,0.10584355145692825
1772896113762450400,1.660450439453125,0.0361076258122921,-0.16088373959064484,0.049000777304172516
1772896113772418600,1.67041845703125,0.035687156021595,-0.13097423315048218,0.0014859847724437714
1772896113782387500,1.680387451171875,0.034745462238788605,-0.10240012407302856,-0.02493922971189022
1772896113792355600,1.69035546875,0.004341416992247105,-0.09846051782369614,-0.0276358462870121
1772896113802323500,1.700323486328125,-0.027873776853084564,-0.11590982228517532,-0.0002992968074977398
1772896113812292600,1.710292724609375,-0.04777020215988159,-0.1651359498500824,0.04716715216636658
1772896113822260700,1.7202607421875,-0.06532841920852661,-0.24819621443748474,0.11004412174224854
1772896113832228400,1.730228271484375,-0.07444155961275101,-0.31854283809661865,0.1670566350221634
1772896113842196500,1.740196533203125,-0.0848984643816948,-0.38504648208618164,0.21261081099510193
1772896113852165400,1.750165283203125,-0.11255097389221191,-0.4468499720096588,0.2509104907512665
1772896113862133500,1.760133544921875,-0.13076752424240112,-0.48984962701797485,0.26208779215812683
1772896113872101600,1.7701015625,-0.1331179141998291,-0.5119073987007141,0.2582780420780182
1772896113882070500,1.780070556640625,-0.13274213671684265,-0.5079001784324646,0.23805347084999084
1772896113892038700,1.79003857421875,-0.12420336902141571,-0.4880780279636383,0.20613732933998108
1772896113902006300,1.80000634765625,-0.10576736927032471,-0.4433177411556244,0.1838027387857437
1772896113911975700,1.8099755859375,-0.0774981826543808,-0.3877269923686981,0.15767881274223328
1772896113921943600,1.819943603515625,-0.04193859174847603,-0.3411126136779785,0.12951482832431793
1772896113931911400,1.829911376953125,-0.011713093146681786,-0.2994287610054016,0.1155116856098175
1772896113941880600,1.839880615234375,0.014878836460411549,-0.2645986080169678,0.11509570479393005
1772896113951848400,1.849848388671875,0.031240498647093773,-0.23866288363933563,0.13002565503120422
1772896113961816600,1.859816650390625,0.03389807045459747,-0.21935443580150604,0.1489250361919403
1772896113971785500,1.869785400390625,0.015474606305360794,-0.21423563361167908,0.17021213471889496
1772896113981753600,1.879753662109375,0.008281674236059189,-0.22230127453804016,0.1780117303133011
1772896113991721500,1.889721435546875,0.006233768071979284,-0.22488586604595184,0.18670445680618286
1772896114001690400,1.8996904296875,0.000007829628884792328,-0.21633978188037872,0.18649885058403015
1772896114011658500,1.909658447265625,-0.000028160400688648224,-0.20437712967395782,0.15379832684993744
1772896114021626400,1.91962646484375,-0.006139848381280899,-0.20140716433525085,0.11744511127471924
1772896114031595500,1.929595458984375,-0.019625701010227203,-0.19989818334579468,0.0719141811132431
1772896114041563400,1.9395634765625,-0.01827894151210785,-0.16100911796092987,0.04181087017059326
1772896114051531500,1.949531494140625,-0.017120398581027985,-0.15796484053134918,0.06394590437412262
1772896114061500700,1.959500732421875,-0.050403792411088943,-0.188034325838089,0.05826351046562195
1772896114071468500,1.969468505859375,-0.061637941747903824,-0.10256553441286087,0.038632191717624664
1772896114081436400,1.9794365234375,-0.059725794941186905,0.012461453676223755,0.012248254381120205
1772896114091405300,1.9894052734375,-0.05578261613845825,0.07413090765476227,0.009444577619433403
1772896114101373400,1.99937353515625,-0.04322022199630737,0.09154558181762695,0.008779852651059628
1772896114111341600,2.009341552734375,-0.01609121821820736,0.09700030833482742,0.0070210350677371025
1772896114121310500,2.019310546875,0.012377174571156502,0.08717937022447586,0.027457602322101593
1772896114131278600,2.029278564453125,0.01592327281832695,0.08719716966152191,0.06729219853878021
1772896114141246500,2.03924658203125,0.009159375913441181,0.0938020795583725,0.10499616712331772
1772896114151215600,2.049215576171875,0.0019337385892868042,0.10207520425319672,0.12426133453845978
1772896114161183500,2.05918359375,-0.013821522705256939,0.12788762152194977,0.12372604012489319
1772896114171151600,2.069151611328125,-0.019978798925876617,0.1465766727924347,0.1035076230764389
1772896114181120500,2.07912060546875,-0.01940009370446205,0.15981817245483398,0.06515304744243622
1772896114191088400,2.08908837890625,-0.01131280604749918,0.16477540135383606,0.023781802505254745
1772896114201056500,2.099056396484375,-0.00920145120471716,0.1635948121547699,-0.0079692043364048
1772896114211025400,2.109025390625,-0.024095777422189713,0.19235347211360931,-0.040542490780353546
1772896114220993500,2.11899365234375,0.010001471266150475,0.2450672835111618,-0.025679655373096466
1772896114230961700,2.128961669921875,0.02430163323879242,0.24384170770645142,-0.012597277760505676
1772896114240930600,2.1389306640625,0.06346447765827179,0.2408142387866974,-0.011980756185948849
1772896114250898700,2.148898681640625,0.07336082309484482,0.2319629043340683,-0.005005200859159231
1772896114260866600,2.158866455078125,0.06542912870645523,0.21009781956672668,0.0073433443903923035
1772896114270835700,2.168835693359375,0.052334725856781006,0.20485913753509521,0.014107207767665386
1772896114280803300,2.17880322265625,0.03473548963665962,0.19736632704734802,0.009414184838533401
1772896114290771500,2.188771484375,0.03573795408010483,0.1959543377161026,-0.01090933009982109
1772896114300740600,2.19874072265625,0.024787569418549538,0.2003440260887146,-0.055221933871507645
1772896114310708500,2.20870849609375,0.0024040397256612778,0.20250114798545837,-0.09901385009288788
1772896114320676600,2.218676513671875,-0.008899747394025326,0.19305597245693207,-0.12192236632108688
1772896114330645500,2.2286455078125,-0.002716861665248871,0.16950486600399017,-0.11087986826896667
1772896114340613600,2.238613525390625,0.01721183955669403,0.1381320208311081,-0.0820000171661377
1772896114350581800,2.248581787109375,0.040102049708366394,0.1129092425107956,-0.046536635607481
1772896114360550700,2.258550537109375,0.06515493988990784,0.0851934552192688,-0.038539428263902664
1772896114370518500,2.2685185546875,0.09562130272388458,0.05742836743593216,-0.0532059520483017
1772896114380486400,2.278486328125,0.13147331774234772,0.05213213711977005,-0.07139614224433899
1772896114390455600,2.28845556640625,0.15737956762313843,0.04002542048692703,-0.09560966491699219
1772896114400423400,2.29842333984375,0.19144724309444427,0.012175682000815868,-0.09944142401218414
1772896114410391600,2.3083916015625,0.21887211501598358,-0.021944966167211533,-0.07941801846027374
1772896114420360400,2.3183603515625,0.23475120961666107,-0.04932199418544769,-0.050610072910785675
1772896114430328600,2.32832861328125,0.23390954732894897,-0.06731806695461273,-0.048318952322006226
1772896114440296700,2.338296630859375,0.2284141182899475,-0.10999202728271484,-0.06522443145513535
1772896114450265600,2.348265625,0.22088190913200378,-0.1813710629940033,-0.059707239270210266
1772896114460233500,2.3582333984375,0.22266170382499695,-0.24158354103565216,-0.021661851555109024
1772896114470201600,2.36820166015625,0.2149481475353241,-0.2710602581501007,0.01575280725955963
1772896114480170500,2.37817041015625,0.21780599653720856,-0.2598869502544403,0.05276542156934738
1772896114490138600,2.388138671875,0.21252763271331787,-0.21299588680267334,0.10787351429462433
1772896114500106500,2.3981064453125,0.20783860981464386,-0.15429554879665375,0.16536475718021393
1772896114510075600,2.40807568359375,0.20709174871444702,-0.09205298125743866,0.2312057912349701
1772896114520043500,2.41804345703125,0.20990698039531708,-0.0027651777490973473,0.26554086804389954
1772896114530011600,2.42801171875,0.21371538937091827,0.07546892762184143,0.24630430340766907
1772896114539980500,2.43798046875,0.19046199321746826,0.11021013557910919,0.18709397315979004
1772896114549948400,2.447948486328125,0.14547526836395264,0.11817295849323273,0.12966322898864746
1772896114559916500,2.45791650390625,0.10717181861400604,0.14235472679138184,0.06930109113454819
1772896114569885400,2.467885498046875,0.10791675746440887,0.16215135157108307,0.03763650357723236
1772896114579853600,2.477853515625,0.270507276058197,0.011076083406805992,0.06443296372890472
1772896114589821700,2.48782177734375,0.2922457754611969,-0.11766673624515533,0.06697311997413635
1772896114599790600,2.49779052734375,0.2076627016067505,-0.009347984567284584,0.14100606739521027
1772896114609758700,2.5077587890625,0.20647451281547546,0.11878097057342529,0.2370646893978119
1772896114619726600,2.5177265625,0.3089689016342163,0.0020801937207579613,0.18584811687469482
1772896114629695700,2.52769580078125,0.36108073592185974,-0.12852366268634796,0.05061374977231026
1772896114639663400,2.537663330078125,0.3607576787471771,-0.2937014102935791,-0.03024114854633808
1772896114649631500,2.547631591796875,0.34025800228118896,-0.447139710187912,-0.0251166932284832
1772896114659600400,2.557600341796875,0.25199684500694275,-0.6957023739814758,-0.14084355533123016
1772896114669568500,2.567568603515625,0.3288498520851135,-0.6646298766136169,-0.17962265014648438
1772896114679536600,2.57753662109375,0.6302976012229919,-0.32813897728919983,-0.020222874358296394
1772896114689505500,2.587505615234375,0.8042110204696655,0.014307530596852303,0.17809125781059265
1772896114699473700,2.5974736328125,0.7966101169586182,0.024008359760046005,0.21358133852481842
1772896114709441500,2.607441650390625,0.8654876947402954,0.0012226840481162071,0.16565285623073578
1772896114719410700,2.61741064453125,0.9860609769821167,0.022105596959590912,0.10450135171413422
1772896114729378600,2.627378662109375,1.0951571464538574,0.08496546745300293,0.012940010987222195
1772896114739346400,2.637346435546875,1.1728790998458862,0.22314225137233734,-0.0625331774353981
1772896114749315600,2.647315673828125,1.0998655557632446,0.3527891933917999,-0.12145204842090607
1772896114759283500,2.657283447265625,0.5934324860572815,0.6388041377067566,-0.30582135915756226
1772896114769251600,2.66725146484375,-0.35958564281463623,1.0307538509368896,-0.7752838134765625
1772896114779219700,2.6772197265625,-0.9837858080863953,1.2112370729446411,-1.101815104484558
1772896114789188600,2.687188720703125,-0.7703559994697571,1.7098177671432495,-1.3074194192886353
1772896114799156500,2.697156494140625,-0.49355316162109375,2.0027658939361572,-1.3155317306518555
1772896114809125600,2.707125732421875,-0.37724900245666504,1.6690852642059326,-1.1130214929580688
1772896114819093500,2.717093505859375,-0.018356885761022568,1.0709800720214844,-1.0653940439224243
1772896114829061600,2.7270615234375,0.36693066358566284,0.604022204875946,-0.9386908411979675
1772896114839029500,2.737029541015625,0.6418708562850952,0.013135752640664577,-0.6218308806419373
1772896114848998700,2.74699853515625,0.9810742139816284,-0.8225303888320923,-0.29350000619888306
1772896114858966500,2.756966552734375,1.261439323425293,-1.5115280151367188,0.08230800181627274
1772896114868934700,2.7669345703125,1.3655731678009033,-1.9540001153945923,0.40745994448661804
1772896114878903600,2.776903564453125,1.1035159826278687,-2.2757794857025146,0.6209224462509155
1772896114888871400,2.786871337890625,0.8538395166397095,-1.9975634813308716,0.5966812372207642
1772896114898839600,2.796839599609375,0.5291272401809692,-1.484211802482605,0.16279105842113495
1772896114908808400,2.806808349609375,0.12011434137821198,-0.8992906212806702,-0.5601650476455688
1772896114918776600,2.816776611328125,-0.24946478009223938,-0.20099008083343506,-1.312291145324707
1772896114928744400,2.826744384765625,-0.581050455570221,0.24970731139183044,-1.688901424407959
1772896114938713600,2.836713623046875,-0.7816237807273865,0.30713358521461487,-1.6340935230255127
1772896114948681500,2.846681396484375,-0.7912206053733826,0.11098693311214447,-1.4279946088790894
1772896114958649600,2.856649658203125,-0.5456576943397522,-0.17496837675571442,-1.2479193210601807
1772896114968618800,2.86661865234375,-0.17698317766189575,-0.4845608174800873,-1.003783941268921
1772896114978586400,2.87658642578125,0.132215678691864,-0.7080301642417908,-0.6408646106719971
1772896114988554500,2.886554443359375,0.27059847116470337,-0.9218924045562744,-0.2952805757522583
1772896114998523400,2.8965234375,0.2907103896141052,-0.9276072382926941,-0.07832801342010498
1772896115008491500,2.906491455078125,0.2825756072998047,-0.779443621635437,-0.1807321161031723
1772896115018459600,2.916459716796875,0.2475542575120926,-0.3817598819732666,-0.532024621963501
1772896115028428500,2.926428466796875,0.10935711860656738,0.058124784380197525,-0.9099429249763489
1772896115038396700,2.936396728515625,-0.14644350111484528,0.415772944688797,-1.044904112815857
1772896115048364500,2.946364501953125,-0.41962361335754395,0.6123158931732178,-1.038733720779419
1772896115058333700,2.956333740234375,-0.6134161949157715,0.773173987865448,-1.106873869895935
1772896115068301300,2.96630126953125,-0.69437175989151,0.8628191351890564,-1.2219167947769165
1772896115078269400,2.97626953125,-0.6534858345985413,0.8493840098381042,-1.2970834970474243
1772896115088238600,2.986238525390625,-0.6052705645561218,0.7557305693626404,-1.2309181690216064
1772896115098206500,2.99620654296875,-0.6824849247932434,0.7490649223327637,-1.1322307586669922
1772896115108174600,3.006174560546875,-1.0016722679138184,0.9532127380371094,-1.2859981060028076
1772896115118143500,3.0161435546875,-1.4768816232681274,1.280150055885315,-1.48876953125
1772896115128111600,3.026111572265625,-1.8249564170837402,1.492871880531311,-1.665542721748352
1772896115138079700,3.036079833984375,-2.17960262298584,1.4926950931549072,-1.6326974630355835
1772896115148048600,3.046048583984375,-2.7139337062835693,1.3781934976577759,-1.3503601551055908
1772896115158016500,3.0560166015625,-3.1211814880371094,1.2832398414611816,-1.1008139848709106
1772896115167984400,3.065984375,-2.9471733570098877,1.2236356735229492,-0.9729909896850586
1772896115177953500,3.07595361328125,-2.3713459968566895,1.0828018188476562,-0.7550392150878906
1772896115187921400,3.08592138671875,-1.7676728963851929,0.9307486414909363,-0.3507579565048218
1772896115197889500,3.0958896484375,-1.3027904033660889,0.9474192261695862,0.14324378967285156
1772896115207858700,3.105858642578125,-0.9522322416305542,1.0098192691802979,0.5397129058837891
1772896115217826600,3.11582666015625,-0.6946750283241272,1.107630729675293,0.7008988857269287
1772896115227794700,3.125794677734375,-0.510583221912384,1.2936911582946777,0.6747985482215881
1772896115237763600,3.135763671875,-0.36123421788215637,1.4923712015151978,0.5925066471099854
1772896115247731500,3.1457314453125,-0.22554312646389008,1.6401021480560303,0.4877409040927887
1772896115257699600,3.155699462890625,-0.05983991548418999,1.7016009092330933,0.31496885418891907
1772896115267668500,3.16566845703125,0.05804460123181343,1.6332764625549316,0.09730169177055359
1772896115277636600,3.17563671875,0.15861381590366364,1.4761360883712769,-0.15894952416419983
1772896115287604500,3.1856044921875,0.21446625888347626,1.2768303155899048,-0.3973790109157562
1772896115297573600,3.19557373046875,0.15578296780586243,1.0259621143341064,-0.3982469439506531
1772896115307541500,3.20554150390625,0.05657316371798515,0.7150282263755798,-0.22387640178203583
1772896115317509600,3.215509521484375,0.013725034892559052,0.34014084935188293,-0.133138507604599
1772896115327478500,3.225478515625,0.05665276199579239,0.0677257776260376,-0.03262757509946823
1772896115337446400,3.2354462890625,0.16900725662708282,-0.08504299819469452,0.16707594692707062
1772896115347414500,3.24541455078125,0.3454594910144806,-0.22853225469589233,0.2890230119228363
1772896115357383400,3.255383544921875,0.5737043619155884,-0.4103612005710602,0.28309428691864014
1772896115367351600,3.2653515625,0.7514477372169495,-0.6052137613296509,0.2988562285900116
1772896115377319700,3.275319580078125,0.7458521723747253,-0.7812201976776123,0.5121693015098572
1772896115387288600,3.28528857421875,0.631547212600708,-1.0185915231704712,0.877730667591095
1772896115397256700,3.295256591796875,0.5505610108375549,-1.2999457120895386,1.1396321058273315
1772896115407224600,3.305224609375,0.5263795852661133,-1.3900388479232788,1.1405181884765625
1772896115417193700,3.31519384765625,0.5301098823547363,-1.292748212814331,1.0133943557739258
1772896115427161300,3.325161376953125,0.5526745319366455,-1.142557144165039,0.9214154481887817
1772896115437129500,3.33512939453125,0.5658310651779175,-1.0142707824707031,0.8936964869499207
1772896115447098400,3.345098388671875,0.614919126033783,-0.9483654499053955,0.8527529239654541
1772896115457066500,3.35506640625,0.6637862324714661,-0.9525027275085449,0.7394146919250488
1772896115467034600,3.36503466796875,0.609239399433136,-1.0217915773391724,0.6211798787117004
1772896115477003500,3.37500341796875,0.3440050482749939,-1.1980435848236084,0.5961544513702393
1772896115486971600,3.3849716796875,-0.12378920614719391,-1.580265998840332,0.6057464480400085
1772896115496939800,3.394939697265625,-0.6247255206108093,-1.926804542541504,0.46912577748298645
1772896115506908700,3.40490869140625,-0.832133412361145,-1.8111990690231323,0.16484126448631287
1772896115516876500,3.41487646484375,-0.6633664965629578,-1.4204745292663574,-0.1263144165277481
1772896115526844400,3.424844482421875,-0.310169517993927,-0.9282569885253906,-0.2383062094449997
1772896115536813600,3.4348134765625,0.11216893792152405,-0.4102764427661896,-0.16186363995075226
1772896115546781400,3.444781494140625,0.4558357298374176,-0.008626747876405716,-0.06196189671754837
1772896115556749600,3.45474951171875,0.5633932948112488,0.146830216050148,-0.08587601780891418
1772896115566718500,3.464718505859375,0.44984766840934753,0.17331989109516144,-0.24733933806419373
1772896115576686600,3.4746865234375,0.18856918811798096,0.16980266571044922,-0.2944861054420471
1772896115586654700,3.48465478515625,-0.09949012100696564,0.06747733056545258,-0.16231629252433777
1772896115596623600,3.49462353515625,-0.28479766845703125,-0.032057780772447586,-0.13803252577781677
1772896115606591500,3.504591552734375,-0.3826804757118225,-0.14130094647407532,-0.23157759010791779
1772896115616559600,3.5145595703125,-0.4338967800140381,-0.24205899238586426,-0.30128344893455505
1772896115626528500,3.524528564453125,-0.4265974164009094,-0.35484248399734497,-0.34693726897239685
1772896115636496600,3.53449658203125,-0.37644609808921814,-0.4245765507221222,-0.35812920331954956
1772896115646464500,3.544464599609375,-0.3248733878135681,-0.48658639192581177,-0.34532859921455383
1772896115656433700,3.55443359375,-0.283894807100296,-0.5447943210601807,-0.304637610912323
1772896115666401500,3.564401611328125,-0.24681316316127777,-0.6172193288803101,-0.2755964398384094
1772896115676369400,3.574369384765625,-0.17587748169898987,-0.6916874051094055,-0.33572158217430115
1772896115686338600,3.584338623046875,-0.0916949212551117,-0.7486532330513,-0.45983943343162537
1772896115696306400,3.594306396484375,-0.0277140811085701,-0.7390182018280029,-0.4897909462451935
1772896115706274600,3.604274658203125,0.015158146619796753,-0.6788748502731323,-0.37171950936317444
1772896115716243500,3.614243408203125,0.0693899616599083,-0.5622347593307495,-0.16473355889320374
1772896115726211600,3.624211669921875,0.12160627543926239,-0.4451713562011719,0.02040228620171547
1772896115736179700,3.6341796875,0.11162048578262329,-0.373887836933136,0.134618878364563
1772896115746148600,3.644148681640625,0.1291622817516327,-0.32597920298576355,0.09337007254362106
1772896115756116700,3.65411669921875,0.1799391806125641,-0.23744001984596252,-0.03945428878068924
1772896115766084400,3.66408447265625,0.2020062655210495,-0.10227257013320923,-0.16114337742328644
1772896115776053500,3.674053466796875,0.20213383436203003,0.08058193325996399,-0.22618068754673004
1772896115786021400,3.684021484375,0.20234450697898865,0.20338696241378784,-0.3353766202926636
1772896115795989500,3.693989501953125,0.1271754503250122,0.29736563563346863,-0.42681199312210083
1772896115805957600,3.70395751953125,-0.06256730109453201,0.32173481583595276,-0.35895663499832153
1772896115815926500,3.713926513671875,-0.31591010093688965,0.32750722765922546,-0.2757701575756073
1772896115825894700,3.723894775390625,-0.6533295512199402,0.22536545991897583,-0.15589377284049988
1772896115835862500,3.733862548828125,-1.06235671043396,-0.01942458748817444,-0.16091063618659973
1772896115845831700,3.743831787109375,-1.4479146003723145,-0.2751266062259674,-0.31134116649627686
1772896115855799600,3.753799560546875,-1.6200863122940063,-0.4515163004398346,-0.43026435375213623
1772896115865767400,3.763767333984375,-1.3997430801391602,-0.3505007326602936,-0.4955843389034271
1772896115875736600,3.773736572265625,-1.0024737119674683,-0.17553453147411346,-0.4370715022087097
1772896115885704400,3.783704345703125,-0.78651362657547,-0.32473069429397583,-0.09988963603973389
1772896115895672600,3.793672607421875,-0.7309060096740723,-0.8201119303703308,0.24515484273433685
1772896115905641500,3.803641357421875,-0.548821747303009,-1.2963217496871948,0.44037166237831116
1772896115915609600,3.813609619140625,-0.3063023090362549,-1.6797446012496948,0.6079774498939514
1772896115925577700,3.82357763671875,0.20495867729187012,-1.1430675983428955,0.4751832187175751
1772896115935546600,3.833546630859375,0.7671035528182983,-0.25758180022239685,0.33476459980010986
1772896115945514500,3.843514404296875,1.1777833700180054,0.48603275418281555,0.12098325788974762
1772896115955482400,3.853482421875,1.48488450050354,0.9645737409591675,-0.032070472836494446
1772896115965451500,3.863451416015625,1.6715514659881592,0.9778397679328918,-0.13199055194854736
1772896115975419600,3.873419677734375,1.7289537191390991,0.8836626410484314,-0.241851806640625
1772896115985387500,3.883387451171875,1.5296159982681274,0.7201741933822632,-0.24553391337394714
1772896115995356700,3.893356689453125,0.9444316029548645,0.562766969203949,0.16898657381534576
1772896116005324500,3.903324462890625,0.424618661403656,0.34817105531692505,0.6080912947654724
1772896116015292700,3.913292724609375,0.13238495588302612,0.05446913093328476,0.6251099109649658
1772896116025261600,3.923261474609375,0.0017740372568368912,-0.1764581948518753,0.3157847821712494
1772896116035229400,3.9332294921875,-0.08795025199651718,-0.3471319079399109,0.08705385029315948
1772896116045197600,3.943197509765625,-0.17475365102291107,-0.3987225890159607,0.03852695971727371
1772896116055166500,3.95316650390625,-0.22416648268699646,-0.38434284925460815,0.050408653914928436
1772896116065134600,3.963134521484375,-0.21771831810474396,-0.37930336594581604,0.02908965013921261
1772896116075102500,3.9731025390625,-0.19311097264289856,-0.40329739451408386,-0.03490610793232918
1772896116085071600,3.983071533203125,-0.15903209149837494,-0.4263105094432831,-0.091408371925354
1772896116095039500,3.99303955078125,-0.12559930980205536,-0.4330824017524719,-0.12105521559715271
1772896116105007600,4.003007568359375,-0.08740907907485962,-0.40168672800064087,-0.0831025019288063
1772896116114976800,4.012976806640625,-0.05040526017546654,-0.33732476830482483,-0.004884393885731697
1772896116124944400,4.0229443359375,-0.012095410376787186,-0.2999017536640167,0.06274235248565674
1772896116134912500,4.03291259765625,0.030338065698742867,-0.3273536264896393,0.10239202529191971
1772896116144881400,4.04288134765625,0.06988459080457687,-0.3723865747451782,0.16033221781253815
1772896116154849500,4.052849609375,0.09094353020191193,-0.3716382384300232,0.23280376195907593
1772896116164817700,4.062817626953125,0.10819849371910095,-0.3520001173019409,0.30248114466667175
1772896116174786300,4.072786376953125,0.12617962062358856,-0.3482394814491272,0.33892887830734253
1772896116184754400,4.08275439453125,0.12933969497680664,-0.3442500829696655,0.35064858198165894
1772896116194722300,4.092722412109375,0.13106302917003632,-0.31851860880851746,0.3373761773109436
1772896116204691500,4.10269140625,0.13633807003498077,-0.27721402049064636,0.33267438411712646
1772896116214659300,4.112659423828125,0.13550981879234314,-0.2413359135389328,0.3448975086212158
1772896116224627500,4.12262744140625,0.12066256254911423,-0.21963511407375336,0.38670146465301514
1772896116234596600,4.1325966796875,0.08707956969738007,-0.19083675742149353,0.38891056180000305
1772896116244564200,4.142564208984375,0.041333965957164764,-0.17012646794319153,0.35546228289604187
1772896116254532400,4.152532470703125,0.010998163372278214,-0.14331723749637604,0.29038289189338684
1772896116264501200,4.162501220703125,-0.008996570482850075,-0.12271181493997574,0.20020617544651031
1772896116274469400,4.172469482421875,-0.025225073099136353,-0.09886160492897034,0.13303059339523315
1772896116284437500,4.1824375,-0.055340833961963654,-0.060846831649541855,0.10571472346782684
1772896116294406400,4.192406494140625,-0.06933361291885376,-0.03703497722744942,0.06681099534034729
1772896116304374500,4.20237451171875,-0.0759006142616272,-0.008503712713718414,0.03812205791473389
1772896116314342400,4.21234228515625,-0.07601433247327805,0.023519467562437057,0.021634161472320557
1772896116324311600,4.2223115234375,-0.06003420427441597,0.05586378648877144,0.012695899233222008
1772896116334279400,4.232279541015625,-0.04515432193875313,0.09081698209047318,-0.007576083764433861
1772896116344247300,4.242247314453125,-0.03297977149486542,0.09979180991649628,-0.03326570242643356
1772896116354216400,4.252216552734375,-0.008922637440264225,0.10853710025548935,-0.045131683349609375
1772896116364184300,4.262184326171875,0.014560790732502937,0.11407890915870667,-0.03617387264966965
1772896116374152400,4.27215234375,0.024357493966817856,0.1180369108915329,-0.016717884689569473
1772896116384121300,4.282121337890625,0.025796083733439445,0.1229695975780487,-0.005950590595602989
1772896116394089500,4.29208935546875,0.019414616748690605,0.13212740421295166,-0.008311483077704906
1772896116404057300,4.302057373046875,0.011735670268535614,0.11342989653348923,-0.03329402953386307
1772896116414026500,4.312026611328125,-0.002275221049785614,0.08502355217933655,-0.030692655593156815
1772896116423994400,4.321994384765625,-0.016045361757278442,0.07473229616880417,0.017066609114408493
1772896116433962200,4.331962158203125,-0.025794129818677902,0.08737193048000336,0.0834171399474144
1772896116443931400,4.341931396484375,-0.024177171289920807,0.10730007290840149,0.09666819870471954
1772896116453899300,4.351899169921875,-0.00885121338069439,0.09789565205574036,0.05735940486192703
1772896116463867400,4.361867431640625,-0.008495615795254707,0.06779954582452774,-0.0028204103000462055
1772896116473836500,4.37183642578125,-0.012680508196353912,0.04558771848678589,-0.014149497263133526
1772896116483804400,4.381804443359375,-0.01866200566291809,0.027133869007229805,0.0015388182364404202
1772896116493772300,4.391772216796875,-0.0129452645778656,-0.007956741377711296,0.015425072982907295
1772896116503741200,4.4017412109375,0.009158886969089508,-0.04558636620640755,0.015897981822490692
1772896116513709300,4.411709228515625,0.018594201654195786,-0.07447074353694916,0.02670615166425705
1772896116523677400,4.421677490234375,0.03481445088982582,-0.08140268921852112,0.05264587327837944
1772896116533646300,4.431646240234375,0.04894465208053589,-0.07827027887105942,0.055327676236629486
1772896116543614500,4.441614501953125,0.06050880253314972,-0.06272836029529572,0.05412875860929489
1772896116553582300,4.451582275390625,0.07818127423524857,-0.04909909889101982,0.05328772962093353
1772896116563551500,4.461551513671875,0.09639972448348999,-0.03022233583033085,0.03535996377468109
1772896116573519400,4.471519287109375,0.11546876281499863,-0.008299726992845535,0.02952258288860321
1772896116583487200,4.4814873046875,0.1265355348587036,0.013361831195652485,0.03535953164100647
1772896116593456400,4.491456298828125,0.13566350936889648,0.027270454913377762,0.05154941976070404
1772896116603424300,4.50142431640625,0.1375180035829544,0.03707331418991089,0.06287644803524017
1772896116613392400,4.511392333984375,0.13351766765117645,0.04790732264518738,0.0693998634815216
1772896116623361300,4.521361328125,0.13220933079719543,0.06793297827243805,0.060422807931900024
1772896116633329400,4.531329345703125,0.09365981072187424,0.08265120536088943,0.09118391573429108
1772896116643297500,4.541297607421875,0.048836901783943176,0.08756120502948761,0.11715825647115707
1772896116653266400,4.551266357421875,0.029881849884986877,0.0922214686870575,0.10693678259849548
1772896116663234600,4.561234619140625,0.02219485305249691,0.0989619791507721,0.07253063470125198
1772896116673202200,4.5712021484375,0.00787663459777832,0.07497967779636383,0.012396193109452724
1772896116683171300,4.58117138671875,-0.013160495087504387,0.0506240651011467,-0.014153031632304192
1772896116693139200,4.59113916015625,-0.03765545040369034,0.03667682409286499,-0.011713042855262756
1772896116703107300,4.601107421875,-0.05507929250597954,0.030944816768169403,-0.009393591433763504
1772896116713076500,4.611076416015625,-0.07401517033576965,0.024536453187465668,-0.020009484142065048
1772896116723044400,4.62104443359375,-0.0907755121588707,0.014780285768210888,-0.04154473915696144
1772896116733012500,4.631012451171875,-0.10144786536693573,0.002799523063004017,-0.0520586334168911
1772896116742981400,4.6409814453125,-0.11041417717933655,0.00015207752585411072,-0.05103354901075363
1772896116752949500,4.650949462890625,-0.11188211292028427,-0.0008484721183776855,-0.056096214801073074
1772896116762917400,4.66091748046875,-0.11417468637228012,-0.005053895525634289,-0.0624510832130909
1772896116772886300,4.67088623046875,-0.10257527977228165,-0.008350889198482037,-0.07066000998020172
1772896116782854400,4.6808544921875,-0.09560587257146835,-0.01054842583835125,-0.0639200359582901
1772896116792822300,4.690822265625,-0.0829116553068161,-0.009691687300801277,-0.0470755398273468
1772896116802791400,4.70079150390625,-0.06294921785593033,-0.012300603091716766,-0.03297312185168266
1772896116812759300,4.71075927734375,-0.04293050616979599,-0.011319760233163834,-0.0214669331908226
1772896116822727400,4.7207275390625,-0.028392955660820007,-0.010453993454575539,-0.016896449029445648
1772896116832696300,4.7306962890625,-0.0195789597928524,0.0007938677445054054,-0.005031266249716282
1772896116842664400,4.74066455078125,-0.010610802099108696,0.009679228067398071,0.006128876935690641
1772896116852632300,4.75063232421875,-0.004261026158928871,0.016448451206088066,0.013633398339152336
1772896116862601200,4.760601318359375,-0.01386445015668869,0.015668397769331932,0.012548258528113365
1772896116872569300,4.7705693359375,-0.030264461413025856,0.02017579786479473,0.01116980705410242
1772896116882537500,4.780537353515625,-0.04315517842769623,0.017406389117240906,0.019275804981589317
1772896116892506400,4.79050634765625,-0.04845939576625824,0.021910328418016434,0.020109107717871666
1772896116902474500,4.800474609375,-0.045880816876888275,0.015414100140333176,0.016505051404237747
1772896116912442400,4.8104423828125,-0.04685819894075394,0.012231357395648956,0.018057938665151596
1772896116922411500,4.82041162109375,-0.050629809498786926,0.012797270901501179,0.012795699760317802
1772896116932379400,4.83037939453125,-0.0463533028960228,0.011485929600894451,0.004392096307128668
1772896116942347300,4.84034716796875,-0.051003918051719666,0.008038010448217392,0.010159195400774479
1772896116952316200,4.850316162109375,-0.05519759654998779,-0.0011514928191900253,0.017860524356365204
1772896116962284300,4.8602841796875,-0.05262013524770737,-0.009228377602994442,0.02121744677424431
1772896116972252400,4.87025244140625,-0.050080545246601105,-0.006833130493760109,0.0033582886680960655
1772896116982221300,4.88022119140625,-0.04599328711628914,-0.004599511623382568,-0.013720300048589706
1772896116992189400,4.890189453125,-0.033037275075912476,0.00045916251838207245,-0.011949564330279827
1772896117002157600,4.900157470703125,-0.022788258269429207,0.002759503200650215,0.001638118177652359
1772896117012126500,4.91012646484375,-0.014409689232707024,0.004997624084353447,0.007137279491871595
1772896117022094600,4.920094482421875,-0.005011784844100475,-0.004869889467954636,0.004030804615467787
1772896117032062200,4.930062255859375,0.004679724108427763,-0.016161691397428513,0.008961381390690804
1772896117042031400,4.94003125,0.01250763051211834,-0.0210360586643219,0.034144431352615356
1772896117051999200,4.949999267578125,0.019815610721707344,-0.01610681414604187,0.05660473182797432
1772896117061967400,4.95996728515625,0.025992367416620255,-0.02000012993812561,0.0568079948425293
1772896117071936300,4.969936279296875,0.016052650287747383,-0.01982675865292549,0.03822791948914528
1772896117081904400,4.979904296875,0.007397952023893595,-0.014695041812956333,0.023875348269939423
1772896117091872500,4.98987255859375,-0.004639003425836563,0.0041936952620744705,0.023877745494246483
1772896117101841400,4.99984130859375,-0.006729693152010441,0.029598422348499298,0.01737975887954235
1772896117111809500,5.0098095703125,-0.010174759663641453,0.03285360336303711,-0.0007936521433293819
1772896117121777400,5.01977734375,-0.015011271461844444,0.03149182349443436,-0.01743963360786438
1772896117131745300,5.029745361328125,-0.014374243095517159,0.04205445200204849,-0.024228299036622047
1772896117141714400,5.03971435546875,-0.015248747542500496,0.05001439154148102,-0.01838858425617218
1772896117151682300,5.049682373046875,-0.014813853427767754,0.055226728320121765,-0.011027873493731022
1772896117161651500,5.0596513671875,-0.019215958192944527,0.06748661398887634,-0.0010016041342169046
1772896117171619800,5.069619873046875,-0.01773976720869541,0.06772736459970474,-0.009793497622013092
1772896117181587700,5.079587646484375,-0.013637278228998184,0.0671343132853508,-0.026275139302015305
1772896117191555800,5.089555908203125,-0.012793323025107384,0.06930718570947647,-0.028446678072214127
1772896117201524700,5.099524658203125,-0.0066344114020466805,0.06310484558343887,-0.030324578285217285
1772896117211492900,5.109492919921875,0.01126922108232975,0.058796919882297516,-0.025510381907224655
1772896117221461800,5.119461669921875,0.017533637583255768,0.055520787835121155,-0.023522626608610153
1772896117231430000,5.129429931640625,0.024382488802075386,0.04903385788202286,-0.012348269112408161
1772896117241397800,5.139397705078125,0.033688753843307495,0.04085365682840347,-0.0012198502663522959
1772896117251366000,5.149365966796875,0.0385945625603199,0.03958306461572647,0.0016315965913236141
1772896117261334800,5.159334716796875,0.04545098543167114,0.03128921240568161,0.0006992570124566555
1772896117271302700,5.169302734375,0.054139282554388046,0.016435161232948303,-0.00443558394908905
1772896117281271800,5.179271728515625,0.05959516018629074,0.0022271666675806046,-0.004239142872393131
1772896117291239700,5.18923974609375,0.06394090503454208,-0.007012404967099428,0.0008672019466757774
1772896117301207800,5.199207763671875,0.062385812401771545,-0.009281640872359276,0.004848593380302191
1772896117311176000,5.209176025390625,0.057085324078798294,-0.0069689517840743065,0.01545330137014389
1772896117321144800,5.219144775390625,0.04664812982082367,0.014582945965230465,0.03530849888920784
1772896117331113000,5.229113037109375,0.03942270576953888,0.02440255507826805,0.036784421652555466
1772896117341081900,5.239081787109375,0.030032867565751076,0.025412410497665405,0.022829558700323105
1772896117351050000,5.249050048828125,0.012271979823708534,0.023473363369703293,0.009484991431236267
1772896117361017600,5.259017578125,-0.005075826309621334,0.018555041402578354,0.007980105467140675
1772896117370985700,5.26898583984375,-0.009693213738501072,0.017705492675304413,-0.0011255084536969662
1772896117380954600,5.27895458984375,-0.008490659296512604,0.013696873560547829,-0.015071216970682144
1772896117390922800,5.2889228515625,-0.007129250094294548,0.0013464642688632011,-0.017953289672732353
1772896117400891000,5.298890869140625,-0.01176523044705391,-0.010623367503285408,-0.015100112184882164
1772896117410859800,5.30885986328125,-0.013690963387489319,-0.011299810372292995,-0.0035864682868123055
1772896117420828000,5.318827880859375,-0.0014368435367941856,-0.015825560316443443,0.00907343253493309
1772896117430796000,5.328796142578125,-0.0014956993982195854,-0.00942305475473404,0.028036203235387802
1772896117440765000,5.338764892578125,-0.004594568163156509,-0.009920269250869751,0.022183343768119812
1772896117450732800,5.34873291015625,-0.008373593911528587,-0.005731383338570595,0.003979571163654327
1772896117460700700,5.35870068359375,-0.011545812711119652,0.005421639420092106,-0.00988118164241314
1772896117470669800,5.368669921875,-0.013000430539250374,0.01135010365396738,-0.02030905708670616
1772896117480637700,5.3786376953125,-0.010851585306227207,0.020294111222028732,-0.027609048411250114
1772896117490606800,5.38860693359375,-0.010113890282809734,0.019238166511058807,-0.03250447288155556
1772896117500574700,5.39857470703125,-0.012892515398561954,0.009471583180129528,-0.04440024867653847
1772896117510542800,5.40854296875,-0.022018369287252426,-0.008311673998832703,-0.03877405449748039
1772896117520511000,5.418510986328125,-0.03189500793814659,-0.006857331842184067,-0.018688861280679703
1772896117530479900,5.42847998046875,-0.034266021102666855,0.0009710304439067841,-0.004835097584873438
1772896117540447700,5.43844775390625,-0.04005831107497215,0.0005374252796173096,-0.002071995986625552
1772896117550416000,5.448415771484375,-0.03938479721546173,0.0005816332995891571,-0.0015228521078824997
1772896117560384800,5.458384765625,-0.03228991478681564,-0.007576375734061003,-0.015630122274160385
1772896117570353000,5.468352783203125,-0.029176678508520126,-0.014514975249767303,-0.027551230043172836
1772896117580320800,5.47832080078125,-0.024142179638147354,-0.02358814887702465,-0.027517667040228844
1772896117590290000,5.4882900390625,-0.02219940349459648,-0.035353995859622955,-0.014027958735823631
1772896117600257800,5.4982578125,-0.018996205180883408,-0.04008271545171738,-0.003672655439004302
1772896117610225700,5.5082255859375,-0.014663776382803917,-0.04955744370818138,0.008969636633992195
1772896117620194800,5.51819482421875,-0.010844194330275059,-0.04800586774945259,0.014639439061284065
1772896117630162700,5.52816259765625,-0.006800982169806957,-0.03670607507228851,0.015958502888679504
1772896117640130800,5.538130859375,-0.007151545025408268,-0.022216102108359337,0.017126066610217094
1772896117650099700,5.548099609375,-0.0031690550968050957,-0.013010352849960327,0.0035777674056589603
1772896117660067800,5.55806787109375,0.0019625648856163025,-0.0007318546995520592,-0.0054099345579743385
1772896117670036700,5.56803662109375,0.005284326151013374,0.013264388777315617,-0.010359952226281166
1772896117680004900,5.5780048828125,-0.0009605204686522484,0.02726941928267479,-0.0017145322635769844
1772896117689973000,5.587972900390625,0.0028222333639860153,0.04358740895986557,0.009363418444991112
1772896117699940600,5.597940673828125,0.0021184859797358513,0.049488138407468796,-0.003252342576161027
1772896117709909800,5.60790966796875,0.00238080695271492,0.05140748247504234,-0.021690204739570618
1772896117719877600,5.617877685546875,0.0022186897695064545,0.04641279950737953,-0.03973918408155441
1772896117729845800,5.627845703125,-0.007519158534705639,0.036557506769895554,-0.04287212714552879
1772896117739814700,5.637814697265625,-0.02119656279683113,0.033376045525074005,-0.034263987094163895
1772896117749782800,5.64778271484375,-0.02444641664624214,0.01288302056491375,-0.022600673139095306
1772896117759751000,5.6577509765625,-0.026604175567626953,0.000956512987613678,-0.020000170916318893
1772896117769719800,5.6677197265625,-0.02423369511961937,-0.018425973132252693,-0.020474214106798172
1772896117779688000,5.67768798828125,-0.026215923950076103,-0.0312969833612442,-0.02268403023481369
1772896117789655800,5.68765576171875,-0.02011994831264019,-0.03190098702907562,-0.010157586075365543
1772896117799624700,5.697624755859375,-0.017833180725574493,-0.022848062217235565,0.007762758992612362
1772896117809592800,5.7075927734375,-0.006034309975802898,-0.016708143055438995,0.006621328182518482
1772896117819560700,5.717560791015625,0.00034634489566087723,-0.020257074385881424,-0.00605348777025938
1772896117829529900,5.72752978515625,0.0002430146560072899,-0.006688002962619066,-0.01955677941441536
1772896117839497700,5.737497802734375,0.010964684188365936,0.01433606818318367,-0.028528302907943726
1772896117849465900,5.7474658203125,0.0009847544133663177,0.032362472265958786,-0.01724528893828392
1772896117859434800,5.757434814453125,-0.009577863849699497,0.05060320347547531,-0.007447919808328152
1772896117869403000,5.76740283203125,-0.011408788152039051,0.0544368252158165,-0.013344957493245602
1772896117879370800,5.777370849609375,-0.015194733627140522,0.050295401364564896,-0.024461092427372932
1772896117889339600,5.787339599609375,-0.014969163574278355,0.04125610366463661,-0.03888663649559021
1772896117899307800,5.797307861328125,-0.01341688446700573,0.03931037709116936,-0.0364801362156868
1772896117909275600,5.807275634765625,-0.021201569586992264,0.04602047801017761,-0.025555316358804703
1772896117919244800,5.817244873046875,-0.019372712820768356,0.04786553233861923,-0.0226064994931221
1772896117929213000,5.827212890625,-0.016799302771687508,0.0426073856651783,-0.03278589993715286
1772896117939180800,5.837180908203125,-0.009803364984691143,0.031312938779592514,-0.040927253663539886
1772896117949150000,5.84714990234375,-0.0030320119112730026,0.030604805797338486,-0.02554616518318653
1772896117959117800,5.857117919921875,0.0024600178003311157,0.03075629100203514,-0.004474432673305273
1772896117969085700,5.867085693359375,0.004034744575619698,0.022396359592676163,-0.0016821082681417465
1772896117979054600,5.8770546875,0.005685384850949049,0.0053835585713386536,-0.0032557365484535694
1772896117989022700,5.887022705078125,-0.0015102103352546692,-0.008994847536087036,-0.00652556587010622
1772896117998990800,5.896990966796875,-0.0042428430169820786,-0.01357233989983797,-0.005521891172975302
1772896118008959700,5.906959716796875,-0.0042931754142045975,-0.01101171039044857,-0.0006139518227428198
1772896118018927900,5.916927978515625,-0.010354158468544483,-0.009441960602998734,-0.003107567084953189
1772896118028895700,5.926895751953125,-0.01685866340994835,-0.014257221482694149,-0.009084233082830906
1772896118038865000,5.936864990234375,-0.02637219801545143,-0.014697689563035965,-0.00882837176322937
1772896118048832800,5.946832763671875,-0.03592069447040558,-0.013186079449951649,-0.00442163972184062
1772896118058800600,5.956800537109375,-0.039349645376205444,-0.0033441921696066856,0.017755603417754173
1772896118068769800,5.966769775390625,-0.0427507683634758,0.0012020906433463097,0.031064750626683235
1772896118078737700,5.976737548828125,-0.042568884789943695,0.005877327173948288,0.022055678069591522
1772896118088705800,5.986705810546875,-0.049006544053554535,0.006325004622340202,0.0009448002092540264
1772896118098674700,5.9966748046875,-0.05646373704075813,0.012089399620890617,-0.013076676055788994
1772896118108642800,6.006642822265625,-0.05705948546528816,0.015996256843209267,-0.025599390268325806
1772896118118608600,6.016608642578125,-0.05399676784873009,0.01829218491911888,-0.02908124215900898
1772896118128577800,6.026577880859375,-0.04623870924115181,0.012396481819450855,-0.03684462606906891
1772896118138545700,6.036545654296875,-0.03324342891573906,-0.0025840383023023605,-0.0332072488963604
1772896118148513800,6.046513671875,-0.017627719789743423,-0.014285169541835785,-0.027824200689792633
1772896118158482700,6.056482666015625,0.001053868792951107,-0.02575572021305561,-0.009691565297544003
1772896118168450800,6.066450927734375,0.008806596510112286,-0.03327781707048416,0.014399123378098011
1772896118178418700,6.076418701171875,0.009693214669823647,-0.034659989178180695,0.03425365686416626
1772896118188387800,6.086387939453125,0.008121948689222336,-0.03639477118849754,0.031395282596349716
1772896118198355700,6.096355712890625,0.0011070212349295616,-0.02344699203968048,0.019229963421821594
1772896118208323800,6.10632373046875,-0.013924659229815006,-0.008050991222262383,0.008721129037439823
1772896118218292700,6.116292724609375,-0.025029774755239487,0.0194618608802557,0.001273332629352808
1772896118228260900,6.1262607421875,-0.02529502660036087,0.03233318030834198,-0.015037729404866695
1772896118238228700,6.136228759765625,-0.01721183769404888,0.039696015417575836,-0.023571396246552467
1772896118248198000,6.146197998046875,-0.013695664703845978,0.04453151673078537,-0.022213982418179512
1772896118258165800,6.156165771484375,-0.009046013467013836,0.04209792613983154,-0.015895001590251923
1772896118268133600,6.166133544921875,-0.005818263627588749,0.04544312506914139,-0.00691402330994606
1772896118278102500,6.1761025390625,0.0004726257175207138,0.05778814107179642,-0.0013256131205707788
1772896118288070700,6.186070556640625,0.007651443127542734,0.05570075660943985,-0.003786906599998474
1772896118298038800,6.196038818359375,0.007383520714938641,0.040215864777565,-0.013310503214597702
1772896118308007700,6.206007568359375,0.0012390753254294395,0.019880231469869614,-0.013685209676623344
1772896118317975800,6.215975830078125,0.0016383426263928413,0.009609172120690346,0.0003163604997098446
1772896118327943700,6.225943603515625,0.01264465507119894,0.005374480038881302,0.011604701168835163
1772896118337912800,6.235912841796875,0.020625479519367218,0.0035377275198698044,0.020608115941286087
1772896118347881000,6.245880859375,0.024872954934835434,-0.0015821987763047218,0.016216032207012177
1772896118357848600,6.2558486328125,0.021119581535458565,0.0022047758102416992,0.00714457081630826
1772896118367817700,6.265817626953125,0.015327205881476402,0.00720006600022316,0.0013553909957408905
1772896118377785600,6.27578564453125,0.00889359600841999,0.020173992961645126,-0.002963956678286195
1772896118387753700,6.285753662109375,0.015529661439359188,0.02627183496952057,-0.008567247539758682
1772896118397722600,6.29572265625,0.01510593667626381,0.029658453539013863,-0.014861471951007843
1772896118407690800,6.305690673828125,0.012093368917703629,0.02807893417775631,-0.022394223138689995
1772896118417659000,6.315658935546875,0.00913063995540142,0.03088224306702614,-0.027251284569501877
1772896118427627800,6.325627685546875,0.010717883706092834,0.03354886546730995,-0.026620915159583092
1772896118437596000,6.335595947265625,0.018812935799360275,0.03744089603424072,-0.02002730220556259
1772896118447563800,6.345563720703125,0.020697657018899918,0.03448079153895378,-0.017268266528844833
1772896118457532700,6.35553271484375,0.017961136996746063,0.027259277179837227,-0.024726640433073044
1772896118467500800,6.365500732421875,0.01171229500323534,0.021541202440857887,-0.023958053439855576
1772896118477468700,6.37546875,0.006360814906656742,0.014567481353878975,-0.017206573858857155
1772896118487437800,6.385437744140625,0.0005647111684083939,0.019821099936962128,0.0018779048696160316
1772896118497405700,6.39540576171875,-0.009163230657577515,0.023184947669506073,0.0030863136053085327
1772896118507373800,6.405373779296875,-0.019172191619873047,0.02268507331609726,-0.001771025825291872
1772896118517342700,6.4153427734375,-0.02776862308382988,0.029680397361516953,-0.017039760947227478
1772896118527310800,6.425310791015625,-0.03236151114106178,0.03471696749329567,-0.026648178696632385
1772896118537279700,6.43527978515625,-0.04000808298587799,0.04039187356829643,-0.028379231691360474
1772896118547249000,6.445248779296875,-0.049651652574539185,0.03653401881456375,-0.025557346642017365
1772896118557216800,6.455216796875,-0.0531335286796093,0.030589092522859573,-0.026123272255063057
1772896118567184600,6.4651845703125,-0.06034510210156441,0.021324753761291504,-0.02721303701400757
1772896118577153800,6.47515380859375,-0.06552904844284058,0.008005792275071144,-0.024095116183161736
1772896118587121700,6.48512158203125,-0.07027745246887207,-0.0101348627358675,-0.00947223138064146
1772896118597089800,6.49508984375,-0.07230398803949356,-0.020628545433282852,0.0040589626878499985
1772896118607058700,6.50505859375,-0.06491903960704803,-0.025293871760368347,0.02114979922771454
1772896118617026800,6.51502685546875,-0.0639566108584404,-0.02799219638109207,0.02716418355703354
1772896118626995000,6.524994873046875,-0.06852047145366669,-0.025790028274059296,0.0164036825299263
1772896118636963800,6.5349638671875,-0.062075141817331314,-0.02122058905661106,0.010160567238926888
1772896118646931700,6.544931640625,-0.06168952211737633,-0.015208236873149872,0.002662171144038439
1772896118656899600,6.554899658203125,-0.05947210267186165,-0.013663054443895817,0.0029632733203470707
1772896118666868700,6.56486865234375,-0.06166308745741844,-0.016221020370721817,0.006827786564826965
1772896118676836600,6.574836669921875,-0.05902242660522461,-0.02419189363718033,0.012784681282937527
1772896118686804700,6.5848046875,-0.056054070591926575,-0.03396596014499664,0.01108505204319954
1772896118696774000,6.59477392578125,-0.05318313091993332,-0.03781741112470627,0.014937445521354675
1772896118706741800,6.60474169921875,-0.05137510597705841,-0.033823736011981964,0.019522877410054207
1772896118716710000,6.6147099609375,-0.055178556591272354,-0.025893356651067734,0.02351861447095871
1772896118726678800,6.6246787109375,-0.05912429466843605,-0.015681464225053787,0.018799226731061935
1772896118736646700,6.634646728515625,-0.05491351708769798,-0.004404356703162193,0.0039616962894797325
1772896118746614800,6.64461474609375,-0.04525742307305336,0.006004076451063156,-0.010134682059288025
1772896118756583700,6.654583740234375,-0.03895658254623413,0.008171371184289455,-0.015428880229592323
1772896118766551800,6.6645517578125,-0.028057867661118507,0.011750924400985241,-0.022592518478631973
1772896118776519700,6.674519775390625,-0.018314579501748085,0.009425275027751923,-0.01373762171715498
1772896118786488800,6.68448876953125,-0.0012562340125441551,0.006532283499836922,-0.0002420530654489994
1772896118796456700,6.694456787109375,0.018091434612870216,0.00399797223508358,0.012491095811128616
1772896118806424800,6.7044248046875,0.03368930146098137,-0.00719129852950573,0.01865418441593647
1772896118816393700,6.714393798828125,0.04649215564131737,-0.00882834941148758,0.019192609935998917
1772896118826361600,6.724361572265625,0.05029728263616562,-0.006075173616409302,0.023041943088173866
1772896118836329700,6.734329833984375,0.050481684505939484,-0.0025947242975234985,0.033173542469739914
1772896118846298600,6.744298583984375,0.04347357526421547,-0.005120999179780483,0.024031445384025574
1772896118856266800,6.754266845703125,0.03768672049045563,-0.017928361892700195,0.012045849114656448
1772896118866235000,6.76423486328125,0.02626388892531395,-0.023303154855966568,0.008970963768661022
1772896118876203800,6.774203857421875,0.01752043515443802,-0.02745296061038971,0.013405697420239449
1772896118886172000,6.784171875,0.013933690264821053,-0.03274812176823616,0.014224620535969734
1772896118896139800,6.794139892578125,0.010716291144490242,-0.037169449031353,0.009915422648191452
1772896118906109000,6.80410888671875,0.008923450484871864,-0.03895003721117973,0.0049257236532866955
1772896118916076500,6.81407666015625,0.016253307461738586,-0.036354780197143555,0.001899938564747572
1772896118926044700,6.824044677734375,0.02042142115533352,-0.028271019458770752,0.005832361988723278
1772896118936013800,6.834013916015625,0.030733000487089157,-0.02005281299352646,0.005004456266760826
1772896118945981700,6.843981689453125,0.03851768374443054,-0.02012045681476593,0.00126644317060709
1772896118955949800,6.85394970703125,0.045145682990550995,-0.018812064081430435,0.004757116083055735
1772896118965918700,6.863918701171875,0.05263502523303032,-0.023453954607248306,0.00481916731223464
1772896118975886800,6.873886962890625,0.0545523501932621,-0.022372685372829437,0.010889342986047268
1772896118985855000,6.88385498046875,0.046881113201379776,-0.017477795481681824,0.016378117725253105
1772896118995823900,6.893823974609375,0.042743436992168427,-0.012327550910413265,0.012865973636507988
1772896119005791700,6.903791748046875,0.043453969061374664,-0.006728787440806627,0.015340050682425499
1772896119015759600,6.913759521484375,0.04450894147157669,0.0032440340146422386,0.016405178233981133
1772896119025728800,6.923728759765625,0.044346489012241364,0.005120231769979,0.018236100673675537
1772896119035696600,6.933696533203125,0.04255212843418121,-0.0007248548790812492,0.01223939098417759
1772896119045664800,6.943664794921875,0.033777277916669846,-0.00040740612894296646,0.007572200149297714
1772896119055633700,6.953633544921875,0.025333985686302185,-0.00787337590008974,0.0005817776545882225
1772896119065601800,6.963601806640625,0.023167505860328674,-0.01123854611068964,-0.01381127629429102
1772896119075570000,6.97356982421875,0.02187027782201767,-0.010554380714893341,-0.00927058607339859
1772896119085538800,6.983538818359375,0.017571937292814255,-0.01355336606502533,-0.0028172144666314125
1772896119095506700,6.993506591796875,0.014179868623614311,-0.017298836261034012,-0.0006454067770391703
1772896119105474800,7.003474853515625,0.008410584181547165,-0.01678353175520897,-0.0015673260204494
1772896119115443700,7.013443603515625,0.004067501984536648,-0.019567865878343582,-0.014656229875981808
1772896119125411800,7.023411865234375,0.004946877248585224,-0.018910598009824753,-0.026574674993753433
1772896119135379700,7.033379638671875,0.004669389221817255,-0.019633643329143524,-0.024639323353767395
1772896119145348900,7.043348876953125,0.01117895357310772,-0.011796226724982262,-0.019038427621126175
1772896119155316700,7.053316650390625,0.014301853254437447,-0.011423633433878422,-0.011712937615811825
1772896119165284900,7.063284912109375,0.018015099689364433,-0.0071995933540165424,-0.019464336335659027
1772896119175253500,7.07325341796875,0.027561822906136513,0.0034168539568781853,-0.02912072464823723
1772896119185221400,7.083221435546875,0.038403552025556564,0.014644741080701351,-0.035233210772275925
1772896119195190500,7.0931904296875,0.05200960487127304,0.019485294818878174,-0.034457266330718994
1772896119205158400,7.103158447265625,0.062335480004549026,0.015806667506694794,-0.02817566879093647
1772896119215126500,7.11312646484375,0.07457762956619263,0.0045090364292263985,-0.016435593366622925
1772896119225095400,7.123095458984375,0.08361772447824478,-0.010695749893784523,-0.0004699425771832466
1772896119235063300,7.133063232421875,0.08719255775213242,-0.022448590025305748,0.013825678266584873
1772896119245031400,7.143031494140625,0.07816977053880692,-0.02433650568127632,0.03207871690392494
1772896119255000300,7.153000244140625,0.07295825332403183,-0.018107691779732704,0.042921945452690125
1772896119264968400,7.162968505859375,0.06894619762897491,-0.022510163486003876,0.030630921944975853
1772896119274936300,7.172936279296875,0.06604446470737457,-0.012539751827716827,0.016501253470778465
1772896119284905500,7.182905517578125,0.053961701691150665,0.0073511311784386635,0.004267225507646799
1772896119294873600,7.19287353515625,0.040841244161129,0.02539881318807602,-0.002052520401775837
1772896119304841500,7.202841552734375,0.030751589685678482,0.037110064178705215,-0.01930900663137436
1772896119314810600,7.212810546875,0.02438734844326973,0.03421951085329056,-0.030769189819693565
1772896119324778200,7.2227783203125,0.024174295365810394,0.03307115286588669,-0.03153111785650253
1772896119334746400,7.232746337890625,0.021203890442848206,0.02931898459792137,-0.02292424812912941
1772896119344715300,7.24271533203125,0.015301261097192764,0.026101622730493546,-0.01368227880448103
1772896119354683400,7.252683349609375,0.01313040591776371,0.009976748377084732,-0.011335370130836964
1772896119364651500,7.262651611328125,0.01553630642592907,0.004928460344672203,-0.010242674499750137
1772896119374620400,7.272620361328125,0.009015986695885658,0.004080219194293022,-0.0038492230232805014
1772896119384588500,7.282588623046875,0.0043160393834114075,0.0024953726679086685,-0.0010443818755447865
1772896119394556400,7.292556396484375,0.003784674219787121,-0.002006448805332184,-0.006218004040420055
1772896119404525600,7.302525634765625,0.0021774563938379288,-0.0011206818744540215,-0.00026876875199377537
1772896119414493400,7.312493408203125,-0.002286633476614952,0.00020348001271486282,0.0073285955004394054
1772896119424461300,7.32246142578125,-0.011697711423039436,0.004233108833432198,0.009941423311829567
1772896119434430500,7.332430419921875,-0.021506816148757935,0.004781544208526611,0.004395534750074148
1772896119444398300,7.3423984375,-0.019398126751184464,0.012860242277383804,-0.00652901828289032
1772896119454366500,7.352366455078125,-0.022640425711870193,0.01925918459892273,-0.015308672562241554
1772896119464335400,7.36233544921875,-0.021060369908809662,0.02817384898662567,-0.018545478582382202
1772896119474303500,7.372303466796875,-0.025103142485022545,0.04446305334568024,-0.011385802179574966
1772896119484271600,7.382271728515625,-0.02766536734998226,0.05086369812488556,-0.005949757061898708
1772896119494240500,7.392240478515625,-0.02559691108763218,0.04161938652396202,-0.014603071846067905
1772896119504208400,7.40220849609375,-0.024541499093174934,0.039124272763729095,-0.01532825082540512
1772896119514176300,7.41217626953125,-0.01999746635556221,0.03583870083093643,-0.017907552421092987
1772896119524145400,7.4221455078125,-0.01981530711054802,0.03414946049451828,-0.004583491012454033
1772896119534113300,7.43211328125,-0.02550593763589859,0.03236706927418709,0.0035829804837703705
1772896119544081400,7.442081298828125,-0.022464342415332794,0.021691523492336273,-0.002181964460760355
1772896119554050600,7.452050537109375,-0.017786651849746704,0.009015845134854317,-0.019292227923870087
1772896119564018400,7.462018310546875,-0.016713663935661316,0.0005669668316841125,-0.020862959325313568
1772896119573986600,7.471986572265625,-0.011024261824786663,0.008548214100301266,-0.010355225764214993
1772896119583955500,7.48195556640625,-0.009459654800593853,0.002381931059062481,-0.0017729229293763638
1772896119593923300,7.49192333984375,-0.004093308001756668,0.0014951163902878761,0.004840170964598656
1772896119603891500,7.501891357421875,-0.005039796233177185,-0.012311243452131748,-0.004326962400227785
1772896119613860400,7.5118603515625,-0.004875444807112217,-0.012349911965429783,-0.009364396333694458
1772896119623828500,7.521828369140625,-0.010458228178322315,-0.008838267996907234,-0.004286280833184719
1772896119633796400,7.53179638671875,-0.009667282924056053,0.005456778220832348,0.00832268875092268
1772896119643765500,7.541765625,-0.013930203393101692,0.016353633254766464,0.005519977770745754
1772896119653733400,7.5517333984375,-0.01619661971926689,0.022171951830387115,-0.00825776532292366
1772896119663701500,7.561701416015625,-0.013614152558147907,0.012952352873980999,-0.0307614766061306
1772896119673670700,7.571670654296875,-0.014029737561941147,0.004219283349812031,-0.03463669866323471
1772896119683638300,7.58163818359375,-0.020752089098095894,-0.00006707385182380676,-0.018357861787080765
1772896119693606400,7.5916064453125,-0.02367158979177475,0.0075205061584711075,0.006803853437304497
1772896119703575300,7.6015751953125,-0.017003299668431282,0.015928903594613075,0.008520793169736862
1772896119713543400,7.61154345703125,-0.015203910879790783,0.016567565500736237,-0.0087419543415308
1772896119723511600,7.621511474609375,-0.006867951713502407,0.020477354526519775,-0.03160545974969864
1772896119733480400,7.63148046875,-0.006087233312427998,0.024960163980722427,-0.05013938993215561
1772896119743448600,7.641448486328125,-0.004649925045669079,0.029929354786872864,-0.04539071023464203
1772896119753416400,7.65141650390625,-0.00644206628203392,0.02579297125339508,-0.02590339258313179
1772896119763385600,7.661385498046875,-0.0015506381168961525,0.007663236930966377,-0.021160300821065903
1772896119773353200,7.671353271484375,0.00009600166231393814,-0.019861001521348953,-0.017248760908842087
1772896119783321300,7.6813212890625,0.0073661645874381065,-0.0448228120803833,-0.00024474249221384525
1772896119793290500,7.69129052734375,0.013039352372288704,-0.05601318180561066,0.010775057598948479
1772896119803258400,7.70125830078125,0.021534303203225136,-0.049973130226135254,0.022137435153126717
1772896119813226500,7.7112265625,0.01901807263493538,-0.030945397913455963,0.02515752799808979
1772896119823195400,7.7211953125,0.008226677775382996,-0.016262590885162354,0.013404998928308487
1772896119833163500,7.73116357421875,0.0019331984221935272,-0.006655745208263397,-0.006533825304359198
1772896119843131400,7.74113134765625,-0.000168568454682827,-0.0031134746968746185,-0.02937149628996849
1772896119853100500,7.7511005859375,0.0026402119547128677,-0.0018323026597499847,-0.03713810443878174
1772896119863068400,7.761068359375,0.0072663892060518265,-0.0004756879061460495,-0.02578345127403736
1772896119873036300,7.771036376953125,0.008186554536223412,-0.0013161096721887589,-0.018336456269025803
1772896119883005400,7.78100537109375,0.007439803797751665,-0.0033246660605072975,-0.013301216065883636
1772896119892973300,7.790973388671875,0.00606872932985425,-0.002734794281423092,-0.0209185890853405
1772896119902941400,7.80094140625,0.009489293210208416,0.0030554495751857758,-0.02525261789560318
1772896119912910300,7.810910400390625,0.011718320660293102,0.008484827354550362,-0.010649537667632103
1772896119922878500,7.82087841796875,0.01702094078063965,0.009809482842683792,-0.002287212060764432
1772896119932846300,7.830846435546875,0.021427588537335396,0.005012639798223972,-0.0019687695894390345
1772896119942815200,7.840815185546875,0.02933584526181221,-0.007824596017599106,-0.00045715924352407455
1772896119952783400,7.850783447265625,0.030793745070695877,-0.02167493849992752,0.0010609142482280731
1772896119962751500,7.86075146484375,0.02949225902557373,-0.030251117423176765,0.014903225935995579
1772896119972720400,7.870720458984375,0.03193705156445503,-0.03568875789642334,0.02164718136191368
1772896119982688500,7.8806884765625,0.02543707564473152,-0.039395611733198166,0.027505071833729744
1772896119992656400,7.890656494140625,0.01458587683737278,-0.04029360041022301,0.020180609077215195
1772896120002625500,7.90062548828125,0.006399053614586592,-0.03280399367213249,0.010339164175093174
1772896120012593400,7.910593505859375,-0.0013538561761379242,-0.019514860585331917,0.007454497739672661
1772896120022561300,7.920561279296875,-0.009046396240592003,-0.015343817882239819,-0.006478095427155495
1772896120032530400,7.930530517578125,-0.00748861487954855,-0.00951739214360714,-0.015192125923931599
1772896120042498300,7.940498291015625,-0.0045325057581067085,-0.007816431112587452,-0.015451517887413502
1772896120052466400,7.950466552734375,0.007121959235519171,-0.007888022810220718,-0.011695127934217453
1772896120062435300,7.960435302734375,0.014279737137258053,-0.010344256646931171,-0.003815367352217436
1772896120072403500,7.970403564453125,0.021208014339208603,-0.01183268241584301,0.00804465264081955
1772896120082371600,7.98037158203125,0.023675166070461273,-0.014250566251575947,0.0114218071103096
1772896120092340500,7.990340576171875,0.027182284742593765,-0.01634567603468895,0.009523773565888405
1772896120102308600,8.00030859375,0.02673913538455963,-0.018528668209910393,0.004960446152836084
1772896120112276200,8.010276123046875,0.025290746241807938,-0.016309164464473724,0.002607273869216442
1772896120122245400,8.020245361328126,0.022330908104777336,-0.023662950843572617,-0.00003431551158428192
1772896120132213200,8.030213134765624,0.01899121329188347,-0.025755420327186584,0.007218573242425919
1772896120142181400,8.040181396484375,0.012099218554794788,-0.0253737885504961,0.011034350842237473
1772896120152150300,8.050150390625,0.00520660076290369,-0.030607718974351883,0.008450586348772049
1772896120162118400,8.060118408203126,-0.0002667279914021492,-0.03240402042865753,0.003140775952488184
1772896120172086500,8.07008642578125,-0.010821634903550148,-0.023691756650805473,0.005014842376112938
1772896120182055200,8.08005517578125,-0.021459631621837616,-0.016436506062746048,-0.002481956034898758
1772896120192023300,8.090023193359375,-0.029251746833324432,-0.009254755452275276,-0.014508724212646484
1772896120201991200,8.0999912109375,-0.027475684881210327,-0.017931334674358368,-0.028580069541931152
1772896120211960000,8.1099599609375,-0.029301192611455917,-0.010090699419379234,-0.030899185687303543
1772896120221928200,8.11992822265625,-0.027542974799871445,-0.016663648188114166,-0.01937568560242653
1772896120231896000,8.12989599609375,-0.019636545330286026,-0.016410967335104942,-0.003969364799559116
1772896120241865200,8.139865234375,-0.015788014978170395,-0.008199375122785568,0.010936081409454346
1772896120251833000,8.1498330078125,-0.004561217501759529,-0.011367211118340492,0.0029297536239027977
1772896120261801200,8.15980126953125,0.0031105512753129005,-0.01050887443125248,-0.012995949015021324
1772896120271770000,8.16977001953125,0.0050150868482887745,-0.005180602893233299,-0.008014879189431667
1772896120281738200,8.17973828125,0.01132091972976923,-0.013559173792600632,-0.0049889953806996346
1772896120291706000,8.1897060546875,0.014507144689559937,-0.01970820315182209,0.0072492011822760105
1772896120301675000,8.199675048828125,0.019924547523260117,-0.02957281842827797,0.021956775337457657
1772896120311643100,8.20964306640625,0.023478763177990913,-0.04138634353876114,0.02847103402018547
1772896120321611300,8.219611328125,0.02021932043135166,-0.04600346460938454,0.024724498391151428
1772896120331580200,8.229580078125,0.021055657416582108,-0.04113784804940224,0.02701961062848568
1772896120341548300,8.23954833984375,0.01306138001382351,-0.03267937898635864,0.02064533345401287
1772896120351516200,8.24951611328125,0.013426258228719234,-0.0274776890873909,-0.0003978337626904249
1772896120361485300,8.2594853515625,0.010469617322087288,-0.008677901700139046,-0.011367926374077797
1772896120371453200,8.269453125,0.003896428272128105,0.00804169662296772,-0.014680299907922745
1772896120381421000,8.279421142578125,0.003676983527839184,0.012340569868683815,-0.021860182285308838
1772896120391390200,8.28939013671875,0.0024247532710433006,0.018837613984942436,-0.01666625216603279
1772896120401358000,8.299358154296876,0.001777605153620243,0.020877065137028694,-0.015102444216609001
1772896120411326200,8.309326171875,0.007059074938297272,0.012859120033681393,-0.013988849706947803
1772896120421295000,8.319295166015625,0.00831688567996025,0.008081142790615559,-0.012608532793819904
1772896120431263200,8.32926318359375,0.015911012887954712,0.008086703717708588,-0.00785754807293415
1772896120441231400,8.3392314453125,0.016175732016563416,0.0076656583696603775,0.00005390448495745659
1772896120451200300,8.3492001953125,0.016959676519036293,0.0046898191794753075,0.006119288504123688
1772896120461168400,8.35916845703125,0.015484550967812538,0.00039440765976905823,0.007474038749933243
1772896120471136000,8.369135986328125,0.009190994314849377,-0.006556970067322254,0.0014700083993375301
1772896120481105200,8.379105224609376,0.010464517399668694,-0.015202922746539116,-0.0019662685226649046
1772896120491073000,8.389072998046874,0.013341608457267284,-0.016421832144260406,0.003092604223638773
1772896120501041200,8.399041259765625,0.01617521047592163,-0.01412512268871069,0.013785728253424168
1772896120511010000,8.409010009765625,0.022996924817562103,-0.012443330138921738,0.018785346299409866
1772896120520978200,8.418978271484375,0.028558138757944107,-0.015972817316651344,0.01435571163892746
1772896120530946300,8.4289462890625,0.033552512526512146,-0.01969487965106964,0.008666102774441242
1772896120540915200,8.438915283203125,0.03225715085864067,-0.016173381358385086,0.017667852342128754
1772896120550883000,8.448883056640625,0.036408841609954834,0.005983342416584492,0.025822415947914124
1772896120560851200,8.458851318359375,0.04584415629506111,0.013100373558700085,0.015789758414030075
1772896120570820000,8.468820068359374,0.043188486248254776,0.012586329132318497,-0.005463930778205395
1772896120580788200,8.478788330078125,0.04109897091984749,0.006250137463212013,-0.018428998067975044
1772896120590756000,8.488756103515625,0.03580332547426224,0.004417096264660358,-0.013415995985269547
1772896120600725200,8.498725341796876,0.03620093688368797,0.006567598320543766,-0.006361548788845539
1772896120610693000,8.508693115234376,0.04012897610664368,0.010667300783097744,-0.0046487716026604176
1772896120620661200,8.5186611328125,0.047519780695438385,0.003233884461224079,-0.008854435756802559
1772896120630630100,8.528630126953125,0.04494988173246384,-0.00452016294002533,0.0006896667182445526
1772896120640598000,8.538597900390625,0.04537651687860489,-0.0030325213447213173,0.01330772414803505
1772896120650566100,8.548566162109376,0.05148313194513321,-0.004447523504495621,0.014224452897906303
1772896120660535000,8.55853515625,0.05570876598358154,-0.0054049305617809296,0.011024665087461472
1772896120670503200,8.568503173828125,0.058803658932447433,-0.002949959598481655,0.011628367006778717
1772896120680471300,8.57847119140625,0.05584302172064781,-0.00042901095002889633,0.006616831291466951
1772896120690440200,8.588440185546874,0.05371469631791115,-0.0036046095192432404,0.00511804036796093
1772896120700408300,8.598408203125,0.051181498914957047,-0.004962288774549961,0.005605665035545826
1772896120710376200,8.608376220703125,0.042454421520233154,-0.0007693851366639137,0.012407111003994942
1772896120720345300,8.618345458984376,0.028020355850458145,0.010742926970124245,0.01691397838294506
1772896120730313000,8.62831298828125,0.019747134298086166,0.022034768015146255,0.018584707751870155
1772896120740281000,8.638281005859374,0.014507630839943886,0.01923711597919464,0.00919387023895979
1772896120750250000,8.64825,0.00806933268904686,0.009988137520849705,-0.0013947542756795883
1772896120760218000,8.658218017578125,0.000987187959253788,-0.0006732949987053871,-0.0027492379304021597
1772896120770186200,8.668186279296876,-0.0031403768807649612,-0.010679778642952442,0.00428956001996994
1772896120780155100,8.678155029296875,0.00045489054173231125,-0.011824937537312508,0.004420321434736252
1772896120790123300,8.688123291015625,-0.008863283321261406,-0.007634197361767292,-0.006404461804777384
1772896120800091400,8.69809130859375,-0.01261354610323906,-0.0029710019007325172,-0.01736736297607422
1772896120810060300,8.708060302734374,-0.013674819841980934,-0.0006253514438867569,-0.03329216688871384
1772896120820028200,8.718028076171874,-0.018116973340511322,0.003998162224888802,-0.02916613034904003
1772896120829996000,8.72799609375,-0.013522840104997158,-0.0016676727682352066,-0.02642953395843506
1772896120839965200,8.737965087890625,-0.01413749810308218,-0.019358253106474876,-0.019980156794190407
1772896120849933000,8.74793310546875,-0.0074273450300097466,-0.02500893548130989,-0.012790554203093052
1772896120859902200,8.757902099609375,-0.0034752143546938896,-0.03276032954454422,0.0022706869058310986
1772896120869870000,8.7678701171875,0.005471786484122276,-0.030410394072532654,0.010095454752445221
1772896120879838200,8.777838134765625,0.011664435267448425,-0.0269450880587101,0.0025509861297905445
1772896120889807000,8.78780712890625,0.012213226407766342,-0.020078353583812714,0.003608725033700466
1772896120899775200,8.797775146484375,0.01470248308032751,-0.014774933457374573,0.0021690200082957745
1772896120909743000,8.8077431640625,0.017892848700284958,-0.0026176273822784424,0.0003394302912056446
1772896120919712000,8.8177119140625,0.025350764393806458,0.005267192609608173,0.000751154962927103
1772896120929680100,8.82768017578125,0.029254939407110214,0.0033705485984683037,-0.007853958755731583
1772896120939648300,8.837648193359374,0.029322847723960876,0.01624559983611107,-0.007923467084765434
1772896120949617200,8.8476171875,0.025380350649356842,0.013302755542099476,-0.016471175476908684
1772896120959585300,8.857585205078125,0.02434464730322361,0.01242524292320013,-0.015299650840461254
1772896120969553200,8.86755322265625,0.01737169176340103,0.018149174749851227,-0.005527181085199118
1772896120979522300,8.877522216796875,0.015011332929134369,0.01543221902102232,0.00807384867221117
1772896120989490200,8.887490234375,0.011051998473703861,0.011192996054887772,0.011493847705423832
1772896120999458000,8.8974580078125,0.004084103740751743,0.008876845240592957,0.01668834313750267
1772896121009427000,8.907427001953126,-0.0028830431401729584,0.003135059028863907,0.011261220090091228
1772896121019395000,8.91739501953125,-0.0158222783356905,-0.006161770783364773,0.010551488026976585
1772896121029363200,8.92736328125,-0.023650141432881355,-0.0010260781273245811,0.0015444722957909107
1772896121039332000,8.93733203125,-0.02319074608385563,-0.009669100865721703,-0.002244140487164259
1772896121049300200,8.94730029296875,-0.02455371618270874,-0.011862799525260925,-0.0054754153825342655
1772896121059268400,8.957268310546874,-0.024482078850269318,-0.01616034284234047,-0.006479959934949875
1772896121069237200,8.9672373046875,-0.01951407641172409,-0.02546379715204239,-0.010246902704238892
1772896121079205400,8.977205322265625,-0.009780222550034523,-0.022564945742487907,-0.006699572317302227
1772896121089173000,8.987173095703126,-0.007044701837003231,-0.020351078361272812,0.002279343083500862
1772896121099142100,8.99714208984375,-0.004100310616195202,-0.014877217821776867,0.012024914845824242
1772896121109110000,9.007110107421875,-0.00016984157264232635,-0.002925029955804348,0.01613030582666397
1772896121119078100,9.017078125,0.008494486100971699,-0.00227548461407423,0.008380507118999958
1772896121129047000,9.027047119140626,0.011602714657783508,-0.007078159134835005,0.0017580627463757992
1772896121139015200,9.03701513671875,0.011837072670459747,-0.0038368254899978638,0.002274715807288885
1772896121148983300,9.0469833984375,0.015196993947029114,0.004971598275005817,0.006074180360883474
1772896121158952200,9.0569521484375,0.021990718320012093,-0.0005949418991804123,-0.002122496720403433
1772896121168920300,9.06692041015625,0.02142086625099182,-0.0005797464400529861,-0.006915489211678505
1772896121178888400,9.076888427734374,0.024615595117211342,-0.003748108632862568,-0.009166659787297249
1772896121188857600,9.086857666015625,0.029597505927085876,-0.0026735393330454826,-0.003342490876093507
1772896121198825500,9.096825439453125,0.03345482796430588,-0.0072515131905674934,-0.0015219540800899267
1772896121208793300,9.10679345703125,0.03179534524679184,-0.009737055748701096,0.008992040529847145
1772896121218762500,9.116762451171875,0.025681529194116592,-0.01451956108212471,0.0182848758995533
1772896121228730400,9.12673046875,0.019444813951849937,-0.01277968380600214,0.018818404525518417
1772896121238698500,9.136698486328125,0.01933136396110058,-0.014301947318017483,0.015413817949593067
1772896121248667400,9.14666748046875,0.019163182005286217,-0.01676054671406746,0.011126454919576645
1772896121258635500,9.156635498046874,0.008974459953606129,-0.019860733300447464,-0.001602389384061098
1772896121268603600,9.166603759765625,-0.006394318304955959,-0.020723113790154457,-0.003476181533187628
1772896121278572500,9.176572509765625,-0.017459485679864883,-0.016746215522289276,0.0014424105174839497
1772896121288540700,9.186540771484376,-0.02048657275736332,-0.016792790964245796,0.005469972267746925
1772896121298508300,9.19650830078125,-0.02241976000368595,-0.015284376218914986,0.006524050608277321
1772896121308477400,9.2064775390625,-0.03253248333930969,-0.014923556707799435,0.004049279727041721
1772896121318445600,9.216445556640625,-0.041096411645412445,-0.003059706650674343,0.003632228821516037
1772896121328413400,9.226413330078126,-0.04203692823648453,0.006490353494882584,-0.001780512509867549
1772896121338382600,9.236382568359375,-0.04222254827618599,0.01073942705988884,-0.01551257073879242
1772896121348350500,9.2463505859375,-0.04060777276754379,0.0031550349667668343,-0.030687794089317322
1772896121358318600,9.256318603515625,-0.04175266623497009,-0.010702989995479584,-0.027352184057235718
1772896121368287500,9.26628759765625,-0.04124002903699875,-0.02254633978009224,-0.002126256935298443
1772896121378255600,9.276255615234374,-0.03842746466398239,-0.022567911073565483,0.024866212159395218
1772896121388223500,9.286223388671875,-0.027184471487998962,-0.02622358873486519,0.027696847915649414
1772896121398192400,9.2961923828125,-0.025051545351743698,-0.030941642820835114,0.02586699277162552
1772896121408160500,9.306160400390626,-0.021853571757674217,-0.020018409937620163,0.020985813811421394
1772896121418128400,9.31612841796875,-0.02289433591067791,-0.007738308981060982,0.002632373943924904
1772896121428097500,9.32609765625,-0.029842384159564972,0.0004311744123697281,-0.004216540604829788
1772896121438065400,9.3360654296875,-0.03518761694431305,0.02662283182144165,0.008576486259698868
1772896121448033500,9.346033447265626,-0.03646080195903778,0.03878411278128624,-0.0033618975430727005
1772896121458002700,9.356002685546875,-0.029861487448215485,0.03741524741053581,-0.01700899936258793
1772896121467970600,9.365970458984375,-0.025311511009931564,0.037808116525411606,-0.014636857435107231
1772896121477938400,9.3759384765625,-0.01974257454276085,0.034238412976264954,-0.0122836884111166
1772896121487907300,9.3859072265625,-0.017401356250047684,0.032730747014284134,-0.0003732983022928238
1772896121497875500,9.39587548828125,-0.01708204299211502,0.03461439907550812,0.009796515107154846
1772896121507843600,9.405843505859375,-0.0204257071018219,0.04100050404667854,0.012333562597632408
1772896121517812500,9.4158125,-0.024018846452236176,0.03970327600836754,0.006087384652346373
1772896121527780600,9.425780517578126,-0.025961769744753838,0.035641059279441833,-0.005384701304137707
1772896121537748500,9.43574853515625,-0.03230435401201248,0.02594422549009323,-0.008970648050308228
1772896121547717600,9.445717529296875,-0.030469026416540146,0.023113850504159927,-0.014946149662137032
1772896121557685500,9.455685546875,-0.028967536985874176,0.019306596368551254,-0.003140889573842287
1772896121567653400,9.4656533203125,-0.027237270027399063,0.011496078222990036,0.000281571876257658
1772896121577622500,9.47562255859375,-0.02661488950252533,0.0030799563974142075,0.005648906342685223
1772896121587590400,9.48559033203125,-0.02530437335371971,0.0033079180866479874,0.00474842544645071
1772896121597558500,9.49555859375,-0.020871009677648544,0.008166588842868805,0.007722111418843269
1772896121607527400,9.50552734375,-0.019020428881049156,0.0025206757709383965,0.0016925823874771595
1772896121617495600,9.51549560546875,-0.01338145136833191,0.009490701369941235,0.0016558305360376835
1772896121627463700,9.525463623046875,-0.009360220283269882,0.015108606778085232,0.004686675034463406
1772896121637432600,9.5354326171875,-0.006273349747061729,0.021610714495182037,0.012178413569927216
1772896121647400700,9.545400634765626,-0.0010700654238462448,0.022373974323272705,0.013725176453590393
1772896121657368300,9.555368408203124,0.003849303349852562,0.014164571650326252,0.0052556237205863
1772896121667337500,9.56533740234375,0.008801283314824104,0.010587641969323158,0.004630682058632374
1772896121677305300,9.575305419921875,0.01479366235435009,0.013633234426379204,0.0023917625658214092
1772896121687273500,9.5852734375,0.015091518871486187,0.011188477277755737,0.006360436789691448
1772896121697242600,9.59524267578125,0.016553593799471855,0.008513865992426872,0.012716603465378284
1772896121707210500,9.60521044921875,0.01532719749957323,0.005846971645951271,0.011539986357092857
1772896121717178600,9.6151787109375,0.017134685069322586,0.00042264536023139954,0.005225897300988436
1772896121727147500,9.6251474609375,0.015151225961744785,-0.01030215434730053,0.005674006417393684
1772896121737115600,9.63511572265625,0.01845700852572918,-0.011795654892921448,0.010109234601259232
1772896121747083500,9.64508349609375,0.013746279291808605,-0.015772582963109016,0.018472827970981598
1772896121757052400,9.655052490234375,0.012887143529951572,-0.016727060079574585,0.016351353377103806
1772896121767020500,9.6650205078125,0.008724317885935307,-0.013658042065799236,0.011179661378264427
1772896121776988400,9.674988525390624,0.0032714959233999252,-0.012336315587162971,0.007564687170088291
1772896121786957600,9.68495751953125,0.000009694136679172516,-0.00270924624055624,0.004592698533087969
1772896121796925400,9.694925537109375,-0.002808462828397751,-0.001349169760942459,-0.006378193851560354
1772896121806893600,9.7048935546875,-0.005570693872869015,-0.0057620275765657425,-0.007851987145841122
1772896121816862500,9.714862548828124,-0.005534741096198559,-0.01248198188841343,-0.0073273442685604095
1772896121826830300,9.724830322265625,-0.0064405407756567,-0.01880347914993763,0.005391908343881369
1772896121836798500,9.734798583984375,-0.0012737419456243515,-0.015765346586704254,0.012314794585108757
1772896121846767400,9.744767333984376,0.012729395180940628,-0.010703809559345245,0.017527705058455467
1772896121856735500,9.754735595703124,0.01457949262112379,-0.005122889764606953,0.008239664137363434
1772896121866704400,9.764704345703125,0.014515906572341919,-0.007032687775790691,-0.011363070458173752
1772896121876672500,9.774672607421875,0.009482531808316708,-0.007540552411228418,-0.019280914217233658
1772896121886640600,9.784640625,0.009196314960718155,-0.009949242696166039,-0.013816412538290024
1772896121896608500,9.7946083984375,0.0012710141018033028,-0.013697375543415546,-0.008725780062377453
1772896121906577700,9.80457763671875,-0.0002401098608970642,-0.02693255990743637,-0.0074184248223900795
1772896121916545300,9.814545166015625,0.00569740729406476,-0.035439763218164444,0.003643014933913946
1772896121926514400,9.824514404296876,0.010248664766550064,-0.03590843826532364,0.02101447805762291
1772896121936482300,9.834482421875,0.02111995592713356,-0.04048561304807663,0.02848677709698677
1772896121946450400,9.844450439453125,0.02231251820921898,-0.04028640687465668,0.02859862893819809
1772896121956419600,9.854419677734375,0.018201395869255066,-0.020070351660251617,0.020694898441433907
1772896121966387500,9.864387451171876,0.009945617988705635,-0.007629184518009424,0.002534708008170128
1772896121976355600,9.87435546875,0.001683160662651062,0.007648837752640247,-0.014316976070404053
1772896121986324500,9.884324462890625,-0.005042256787419319,0.024219322949647903,-0.02232210710644722
1772896121996292600,9.894292724609375,-0.0060193706303834915,0.03585733473300934,-0.02947589010000229
1772896122006260500,9.904260498046876,0.002389203757047653,0.03948427364230156,-0.03646212816238403
1772896122016229400,9.9142294921875,0.008156279101967812,0.03644720837473869,-0.040859270840883255
1772896122026197500,9.924197509765625,0.010802967473864555,0.030813563615083694,-0.023542232811450958
1772896122036165400,9.934165283203125,0.014169469475746155,0.022020071744918823,-0.005968034267425537
1772896122046134500,9.944134521484376,0.021511511877179146,0.015300910919904709,0.00000829971395432949
1772896122056102400,9.954102294921874,0.024570418521761894,0.009382834658026695,0.001601669006049633
1772896122066070500,9.964070556640625,0.025410886853933334,0.0039028413593769073,0.0046770209446549416
1772896122076039700,9.974039794921875,0.01630367338657379,-0.0003795213997364044,0.001111847348511219
1772896122086007600,9.984007568359376,0.014507029205560684,-0.007740515749901533,0.0022592032328248024
1772896122095975400,9.993975341796874,0.009046750143170357,-0.013845546171069145,0.0015137847512960434
1772896122105944300,10.0039443359375,0.006136790849268436,-0.01283432636409998,0.005744948983192444
1772896122115911400,10.013911376953125,-0.00044867396354675293,-0.009787670336663723,0.009999615140259266
1772896122125879600,10.023879638671875,-0.0051320213824510574,-0.006573541089892387,0.007436119951307774
1772896122135848400,10.033848388671874,-0.005251863971352577,-0.008163981139659882,-0.004921479616314173
1772896122145816600,10.043816650390625,-0.002416950650513172,-0.007733027450740337,-0.010450366884469986
1772896122155784700,10.05378466796875,0.0014321152120828629,-0.007261115126311779,-0.011738804168999195
1772896122165753600,10.063753662109375,0.004290550947189331,-0.002873809076845646,-0.0046570273116230965
1772896122175721500,10.073721435546876,0.009195294231176376,-0.0004684422165155411,0.0020213816314935684
1772896122185689000,10.083689208984374,0.009877277538180351,0.007121289148926735,0.0029373774304986
1772896122195658000,10.093657958984375,0.014392401091754436,0.007919704541563988,-0.0011045022401958704
1772896122205625900,10.1036259765625,0.019452862441539764,0.011243047192692757,-0.002461049472913146
1772896122215593700,10.11359375,0.016432572156190872,0.012693136930465698,0.00921531394124031
1772896122225563000,10.12356298828125,0.012291215360164642,0.015094210393726826,0.011085017584264278
1772896122235530800,10.13353076171875,0.014702441170811653,0.010658982209861279,0.0036960775032639503
1772896122245499000,10.143498779296875,0.018936676904559135,0.006726842373609543,0.0013023624196648598
1772896122255467800,10.1534677734375,0.016046881675720215,0.007097555324435234,0.00571282347664237
1772896122265436000,10.163435791015624,0.014874218963086605,0.008996433578431606,0.006723459344357252
1772896122275404000,10.173404052734375,0.0006225788965821266,0.015614121221005917,0.01285804994404316
1772896122285373000,10.183373046875,-0.008218446746468544,0.019464757293462753,-0.0006298599764704704
1772896122295340800,10.1933408203125,-0.011495199054479599,0.020369965583086014,-0.01193923968821764
1772896122305309000,10.203308837890624,-0.010257674381136894,0.020440591499209404,-0.015399189665913582
1772896122315277800,10.21327783203125,-0.004340663552284241,0.01751910336315632,-0.015830088406801224
1772896122325246000,10.223245849609375,-0.004173961468040943,0.009806585498154163,-0.004243772942572832
1772896122335213800,10.2332138671875,-0.0027046967297792435,0.010283024050295353,0.0009523206390440464
1772896122345183000,10.243182861328124,0.001893550157546997,0.0054378816857934,-0.0027069258503615856
1772896122355150800,10.25315087890625,0.007409755606204271,0.003420536406338215,-0.0011601618025451899
1772896122365119000,10.263118896484375,0.013437846675515175,0.010275786742568016,0.0009219641797244549
1772896122375087900,10.273087890625,0.02182760275900364,0.014109140262007713,0.001661790069192648
1772896122385055700,10.2830556640625,0.024707332253456116,0.011485937982797623,0.006743500009179115
1772896122395024000,10.29302392578125,0.028564387932419777,0.005830980837345123,0.009901209734380245
1772896122404992800,10.30299267578125,0.029307272285223007,0.014620242640376091,0.005088675767183304
1772896122414961000,10.3129609375,0.02710616961121559,0.013845263049006462,0.006621325388550758
1772896122424929000,10.322928955078124,0.02604036033153534,0.009000170044600964,0.009747311472892761
1772896122434898000,10.33289794921875,0.03247056156396866,0.0030253687873482704,0.015388685278594494
1772896122444866000,10.342865966796875,0.03573688864707947,-0.015002910047769547,0.02032768353819847
1772896122454834000,10.352833984375,0.031991686671972275,-0.027827894315123558,0.01886693947017193
1772896122464803000,10.362802978515624,0.029011279344558716,-0.03594975173473358,0.02575157955288887
1772896122474770700,10.372770751953125,0.021473202854394913,-0.028577588498592377,0.030044328421354294
1772896122484738800,10.38273876953125,0.01096661388874054,-0.027219349518418312,0.022130776196718216
1772896122494707700,10.392707763671876,0.0009248992428183556,-0.018816277384757996,0.009759594686329365
1772896122504675800,10.40267578125,-0.008788296952843666,-0.010767965577542782,-0.013502082787454128
1772896122514644000,10.41264404296875,-0.013785453513264656,0.001198415644466877,-0.0268423892557621
1772896122524612900,10.42261279296875,-0.012436626479029655,0.013676110655069351,-0.026677973568439484
1772896122534582000,10.43258203125,-0.003795469179749489,0.01903305947780609,-0.02581430971622467
1772896122544550000,10.4425498046875,0.009816128760576248,0.01533050648868084,-0.02333417721092701
1772896122554519000,10.45251904296875,0.016434617340564728,0.01136399433016777,-0.013458376750349998
1772896122564487000,10.46248681640625,0.022692058235406876,0.0039548324421048164,-0.006147002801299095
1772896122574454800,10.472454833984376,0.020279500633478165,0.00003465916961431503,0.004618825390934944
1772896122584423700,10.482423583984374,0.017343340441584587,-0.0010433932766318321,0.017683163285255432
1772896122594391800,10.492391845703125,0.011372266337275505,0.00014464277774095535,0.01911620795726776
1772896122604360000,10.50235986328125,0.006927040871232748,-0.0005478132516145706,0.014827625826001167
1772896122614328800,10.512328857421876,0.0022960705682635307,-0.003139602020382881,0.004890039563179016
1772896122624297000,10.522296875,-0.0051473407074809074,-0.002279166132211685,-0.0011229445226490498
1772896122634264800,10.532264892578125,-0.01545670349150896,0.00422187615185976,-0.00524791469797492
1772896122644234000,10.54223388671875,-0.02219308167695999,0.009546621702611446,-0.021261535584926605
1772896122654202000,10.5522021484375,-0.025986753404140472,0.007587865926325321,-0.02928856946527958
1772896122664169700,10.562169677734374,-0.029743963852524757,0.0062461597844958305,-0.03860730305314064
1772896122674139000,10.572138916015625,-0.034118473529815674,0.0012335581704974174,-0.037191834300756454
1772896122684106800,10.582106689453125,-0.03885399550199509,0.0005734479054808617,-0.03538445755839348
1772896122694075000,10.592074951171876,-0.03842762112617493,0.002844591625034809,-0.026083899661898613
1772896122704043800,10.602043701171874,-0.035538651049137115,0.0033483337610960007,-0.019350718706846237
1772896122714012000,10.612011962890625,-0.03857065737247467,0.004767000675201416,-0.013171919621527195
1772896122723980800,10.621980712890625,-0.031640809029340744,0.009371347725391388,-0.002169501269236207
1772896122733949000,10.631948974609376,-0.031406715512275696,0.004441570490598679,0.006646892987191677
1772896122743917000,10.6419169921875,-0.027024518698453903,-0.002270076423883438,0.008174017071723938
1772896122753884700,10.651884765625,-0.027458347380161285,-0.01459065917879343,0.00350656034424901
1772896122763853800,10.661853759765625,-0.028562800958752632,-0.014641533605754375,0.007743816822767258
1772896122773822000,10.671822021484376,-0.029126593843102455,-0.00682941684499383,0.006493995897471905
1772896122783789800,10.681789794921874,-0.024388398975133896,-0.00359476450830698,-0.0027793971821665764
1772896122793759000,10.691759033203125,-0.02772533893585205,0.0017307586967945099,-0.007715300191193819
1772896122803726800,10.701726806640625,-0.026665326207876205,0.005980915389955044,-0.016525637358427048
1772896122813696000,10.711696044921876,-0.022090017795562744,0.004098060540854931,-0.020006388425827026
1772896122823663900,10.721663818359374,-0.014988929033279419,0.002044299617409706,-0.015420466661453247
1772896122833632000,10.731632080078125,-0.011923898011446,0.0002549225464463234,-0.007430184632539749
1772896122843601000,10.741600830078125,-0.008463638834655285,0.001674923114478588,0.004013983532786369
1772896122853568800,10.75156884765625,-0.004258773289620876,0.00842363853007555,0.0008299080654978752
1772896122863537000,10.761536865234374,-0.0018585193902254105,0.006918407045304775,-0.003456579986959696
1772896122873505800,10.771505859375,-0.000622013583779335,-0.002305450849235058,-0.004343412350863218
1772896122883474000,10.781473876953125,-0.003197193145751953,-0.0001856144517660141,-0.0035741860046982765
1772896122893441800,10.79144189453125,-0.005256614647805691,-0.008097066543996334,-0.004948909860104322
1772896122903411000,10.801410888671874,-0.00457142386585474,-0.010476344265043736,-0.004760457202792168
1772896122913379000,10.811379150390625,0.002146933227777481,-0.011656124144792557,-3.229361027479172e-7
1772896122923347000,10.821346923828125,0.0008315462619066238,-0.017434395849704742,0.00267309183254838
1772896122933316000,10.831316162109376,0.0004595024511218071,-0.027420982718467712,0.005457693245261908
1772896122943283700,10.84128369140625,-0.0029416456818580627,-0.025599122047424316,0.018426422029733658
1772896122953251800,10.851251953125,-0.008726831525564194,-0.0189468115568161,0.02788836508989334
1772896122963220700,10.861220703125,-0.013359686359763145,-0.009572427719831467,0.013324964791536331
1772896122973188900,10.87118896484375,-0.018345655873417854,-0.0010082349181175232,-0.014184689149260521
1772896122983157000,10.881156982421874,-0.023395061492919922,0.009892870672047138,-0.035179585218429565
1772896122993126000,10.8911259765625,-0.02266295626759529,0.01618432253599167,-0.0422326996922493
1772896123003094000,10.901093994140625,-0.015192602761089802,0.009744514711201191,-0.038073841482400894
1772896123013062000,10.911061767578126,-0.007292068563401699,-0.00434440653771162,-0.04067628085613251
1772896123023031000,10.921031005859374,0.0005139345303177834,-0.014915554784238338,-0.025283176451921463
1772896123032999000,10.9309990234375,0.01069200411438942,-0.02813202515244484,-0.007303377613425255
1772896123042966800,10.940966796875,0.013034345582127571,-0.03405886888504028,0.013292674906551838
1772896123052936000,10.95093603515625,0.008292321115732193,-0.04452455788850784,0.011240176856517792
1772896123062903800,10.96090380859375,0.0004972731694579124,-0.03871966153383255,0.009096131660044193
1772896123072872000,10.970871826171875,-0.01097988523542881,-0.025039268657565117,0.006716597825288773
1772896123082840800,10.9808408203125,-0.01916329190135002,-0.014760869555175304,-0.007769928313791752
1772896123092809000,10.99080908203125,-0.027742929756641388,-0.004325805231928825,-0.010964922606945038
1772896123102776800,11.00077685546875,-0.027231747284531593,-0.0050881775096058846,-0.018289491534233093
1772896123112745700,11.010745849609375,-0.01939486525952816,-0.0052466364577412605,-0.02061709389090538
1772896123122713900,11.0207138671875,-0.013214802369475365,-0.01260183285921812,-0.015207204967737198
1772896123132681700,11.030681640625,-0.010374542325735092,-0.018551601096987724,-0.007714134640991688
1772896123142651000,11.04065087890625,-0.007288542576134205,-0.025230497121810913,0.0025504501536488533
1772896123152619000,11.050618896484375,-0.0019054943695664406,-0.03441254422068596,-0.00013960851356387138
1772896123162587000,11.0605869140625,-0.008317171595990658,-0.0282920952886343,0.004344059154391289
1772896123172556000,11.07055615234375,-0.012890619225800037,-0.032354481518268585,0.011732999235391617
1772896123182526500,11.0805263671875,-0.011111438274383545,-0.03500141203403473,0.006850693374872208
1772896123192494600,11.09049462890625,-0.011664044111967087,-0.03183065354824066,0.008804921060800552
1772896123202463700,11.100463623046876,-0.012239078991115093,-0.02148342691361904,0.01629479229450226
1772896123212431600,11.110431640625,-0.010439581237733364,-0.01821919158101082,0.01338768471032381
1772896123222399700,11.120399658203125,-0.007018668577075005,-0.02364894561469555,0.002433735877275467
1772896123232368600,11.13036865234375,-0.007524935528635979,-0.02864556759595871,-0.004233754239976406
1772896123242336500,11.14033642578125,-0.007126412354409695,-0.03015235997736454,-0.0032070688903331757
1772896123252304600,11.1503046875,-0.0027905190363526344,-0.024230554699897766,-0.0020818831399083138
1772896123262273500,11.1602734375,0.005100886337459087,-0.01812894269824028,0.009827474132180214
1772896123272241700,11.17024169921875,0.012490625493228436,-0.012679049745202065,0.017290450632572174
1772896123282209500,11.18020947265625,0.0182627085596323,-0.013258298859000206,0.00929391011595726
1772896123292178700,11.1901787109375,0.019554873928427696,-0.0117176603525877,0.0071338205598294735
1772896123302146600,11.200146484375,0.018111687153577805,-0.011083772405982018,0.006550416350364685
1772896123312114700,11.21011474609375,0.016243480145931244,-0.008243510499596596,0.010853552259504795
1772896123322083600,11.22008349609375,0.012822176329791546,-0.006903721950948238,0.006911812350153923
1772896123332051500,11.230051513671874,0.010216806083917618,-0.005709294229745865,0.0025130687281489372
1772896123342019600,11.24001953125,0.008899630978703499,-0.006106898188591003,-0.004020929802209139
1772896123351988500,11.249988525390625,0.010368364863097668,-0.0037790294736623764,-0.002852068515494466
1772896123361956600,11.25995654296875,0.007583524100482464,0.005392104387283325,-0.00500650005415082
1772896123371924700,11.2699248046875,0.00921071507036686,0.008770057931542397,-0.002475431887432933
1772896123381893600,11.2798935546875,0.0037947427481412888,0.012288855388760567,-0.007232535630464554
1772896123391861800,11.28986181640625,0.0016652792692184448,0.019867945462465286,-0.015654517337679863
1772896123401829600,11.29982958984375,0.0028327107429504395,0.02822604775428772,-0.02840902842581272
1772896123411798800,11.309798828125,0.0047693620435893536,0.02581961452960968,-0.035111140459775925
1772896123421766400,11.319766357421875,0.003210638649761677,0.024467267096042633,-0.0344838984310627
1772896123431734500,11.329734619140625,-0.0018890481442213058,0.01461437065154314,-0.03491825982928276
1772896123441703700,11.33970361328125,-0.00254653487354517,0.013629218563437462,-0.031221825629472733
1772896123451671600,11.349671630859374,-0.007033694535493851,0.013124283403158188,-0.0161571204662323
1772896123461640700,11.359640625,-0.00642146822065115,0.009325336664915085,-0.006742249242961407
1772896123471608600,11.369608642578125,-0.007008963264524937,0.0016402527689933777,-0.0013091345317661762
1772896123481576700,11.37957666015625,-0.009867970831692219,-0.001522008329629898,0.006514168810099363
1772896123491545600,11.389545654296874,-0.017268627882003784,-0.00376172736287117,0.011638889089226723
1772896123501513700,11.399513671875,-0.022887807339429855,-0.004110581241548061,0.007407891098409891
1772896123511481600,11.409481689453125,-0.022260364145040512,-0.009050744585692883,0.0036275340244174004
1772896123521450500,11.419450439453126,-0.02175205945968628,-0.008043291047215462,-0.004951804876327515
1772896123531418600,11.429418701171874,-0.02014457806944847,-0.008451820351183414,-0.008198997005820274
1772896123541386500,11.439386474609375,-0.019586414098739624,-0.0026477351784706116,-0.009796992875635624
1772896123551355600,11.449355712890625,-0.019908390939235687,0.008940476924180984,-0.009855049662292004
1772896123561323500,11.459323486328126,-0.020742565393447876,0.011274250224232674,-0.01651165820658207
1772896123571291600,11.469291748046874,-0.020315662026405334,0.010089410468935966,-0.023893406614661217
1772896123581260800,11.4792607421875,-0.021260667592287064,0.005515402182936668,-0.018792418763041496
1772896123591228700,11.489228759765625,-0.01513273362070322,0.0015038829296827316,-0.012660490348935127
1772896123601196500,11.499196533203126,-0.012462388724088669,-0.0002867644652724266,0.005335411988198757
1772896123611165400,11.50916552734375,-0.007305976003408432,-0.00834309309720993,0.013006379827857018
1772896123621133600,11.519133544921875,-0.0043290751054883,-0.0214802585542202,0.018347525969147682
1772896123631101700,11.529101806640625,-0.006827120669186115,-0.025010012090206146,0.026105312630534172
1772896123641070600,11.539070556640626,-0.006126275286078453,-0.024774815887212753,0.030248822644352913
1772896123651038700,11.549038818359374,-0.011529561132192612,-0.01765964925289154,0.019910696893930435
1772896123661006600,11.559006591796875,-0.007007150910794735,-0.01023745909333229,0.0012050238437950611
1772896123670975700,11.568975830078125,-0.007008216343820095,0.008049936033785343,-0.006424666382372379
1772896123680943600,11.578943603515626,-0.008264720439910889,0.016255661845207214,-0.0041626435704529285
1772896123690911500,11.588911376953124,-0.0027341339737176895,0.021924469619989395,-0.005352810025215149
1772896123700880600,11.598880615234375,0.003726060502231121,0.02387707494199276,-0.004444938153028488
1772896123710848500,11.6088486328125,0.006145808380097151,0.019435187801718712,-0.012630695477128029
1772896123720816600,11.618816650390626,0.0011584069579839706,0.011800208128988743,-0.006310317665338516
1772896123730785500,11.62878564453125,0.003898000344634056,0.012874794192612171,0.002652284689247608
1772896123740753700,11.638753662109375,0.009136945940554142,0.011953866109251976,0.007163879927247763
1772896123750721800,11.6487216796875,0.010521257296204567,0.018849056214094162,-0.00016833539120852947
1772896123760690700,11.658690673828126,0.012427105568349361,0.018841620534658432,-0.0031668238807469606
1772896123770658800,11.668658935546874,0.0065244752913713455,0.016861295327544212,-0.0038829478435218334
1772896123780626400,11.67862646484375,0.0046712663024663925,0.01866048574447632,-0.006117270328104496
1772896123790595600,11.688595703125,0.00534744281321764,0.015828479081392288,-0.002894845325499773
1772896123800563500,11.6985634765625,0.009572534821927547,0.012159707024693489,-0.003772922558709979
1772896123810531600,11.708531494140624,0.010448981076478958,0.007407030090689659,-0.0021145720966160297
1772896123820500700,11.718500732421875,0.015842875465750694,-0.0008575133979320526,0.0070016575045883656
1772896123830468600,11.728468505859375,0.015269231051206589,0.001712169498205185,0.013158619403839111
1772896123840436700,11.738436767578126,0.01589057222008705,0.001962779089808464,0.00898497924208641
1772896123850405600,11.748405517578124,0.0219588503241539,0.008883802220225334,0.005063475109636784
1772896123860373800,11.758373779296875,0.030551917850971222,0.007221420295536518,0.003743749111890793
1772896123870341600,11.768341552734375,0.04073691368103027,-0.000028502196073532104,0.005363483913242817
1772896123880310500,11.778310546875,0.04707597196102142,-0.006675437558442354,0.008114788681268692
1772896123890278700,11.788278564453124,0.04887067899107933,-0.01058256160467863,0.012004336342215538
1772896123900246500,11.79824658203125,0.04542677104473114,-0.00477803498506546,0.022057706490159035
1772896123910215700,11.808215576171875,0.04547151178121567,-0.011417029425501823,0.02053038403391838
1772896123920183600,11.81818359375,0.03623586148023605,-0.016125988215208054,0.02015591226518154
1772896123930151700,11.828151611328124,0.022172242403030396,-0.024146895855665207,0.023768756538629532
1772896123940120600,11.83812060546875,0.010494766756892204,-0.03060607612133026,0.01882915385067463
1772896123950088700,11.848088623046875,0.004852593876421452,-0.049761660397052765,0.01751222088932991
1772896123960056600,11.858056640625,-0.0017670756205916405,-0.05172097682952881,0.02869560196995735
1772896123970025500,11.868025390625,-0.0003369580954313278,-0.05503075197339058,0.03603527322411537
1772896123979993600,11.87799365234375,0.0001706751063466072,-0.0539570227265358,0.03189559280872345
1772896123989961700,11.887961669921875,-0.003541771322488785,-0.047853320837020874,0.022834451869130135
1772896123999930600,11.8979306640625,-0.003703854978084564,-0.02785109356045723,0.020081810653209686
1772896124009898800,11.907898681640624,-0.005415469408035278,-0.0037364354357123375,0.00578036904335022
1772896124019866600,11.91786669921875,-0.004476085305213928,0.01778000220656395,-0.006057051941752434
1772896124029835800,11.927835693359375,-0.003113078884780407,0.03720030561089516,-0.01570887863636017
1772896124039803600,11.9378037109375,-0.0036810794845223427,0.03852070868015289,-0.01882144808769226
1772896124049771500,11.947771484375,-0.004223032854497433,0.04209999740123749,-0.021837744861841202
1772896124059740400,11.957740478515625,-0.0078059229999780655,0.04899947717785835,-0.01082603819668293
1772896124069708500,11.96770849609375,-0.004631435498595238,0.05270926281809807,-0.008369805291295052
1772896124079676700,11.9776767578125,0.0023900549858808517,0.04997367784380913,-0.004395936615765095
1772896124089645600,11.9876455078125,0.007090001367032528,0.048924390226602554,-0.00806364230811596
1772896124099613700,11.99761376953125,0.009206479415297508,0.0447285994887352,-0.004096698015928268
1772896124109581800,12.007581787109375,0.010942860506474972,0.04148140549659729,0.002932182978838682
1772896124119550700,12.01755078125,0.011254373006522655,0.03758465126156807,0.010060733184218407
1772896124129518800,12.027518798828124,0.009936907328665257,0.03634148836135864,0.012845334596931934
1772896124139486500,12.037486572265625,0.003186897374689579,0.039078690111637115,0.0068842144683003426
1772896124149455600,12.04745556640625,-0.008514500223100185,0.040233172476291656,0.002519027329981327
